sender,sender_type,sender_id,timestamp,meta,,aud,condition,duration,ended_on,response,response_action,time_commit,time_end,time_render,time_run,time_show,time_switch,url,vis,id,age,sex,edu,occ,ela,pat,ill,prt,pcr,pab,,pre_stim
Instructions,html.Page,0,2022-07-04T16:56:57.666Z,"{""labjs_version"":""20.2.4"",""labjs_build"":{""flavor"":""production"",""commit"":""f5b4a49f956347addd546a832a3327688c2c0fef""},""location"":""file:///C:/Users/Proband%207/Desktop/RTE/index.html"",""userAgent"":""Mozilla/5.0 (Windows NT 6.1; Win64; x64) AppleWebKit/537.36 (KHTML, like Gecko) Chrome/103.0.0.0 Safari/537.36"",""platform"":""Win32"",""language"":""de-DE"",""locale"":""de"",""timeZone"":""Europe/Berlin"",""timezoneOffset"":-120,""screen_width"":1366,""screen_height"":768,""scroll_width"":1366,""scroll_height"":609,""window_innerWidth"":1366,""window_innerHeight"":657,""devicePixelRatio"":1}",,,,122729735,form,submission,,,124849.79999999981,124848.5,2102089,2111.4000000003725,2118765,124850.77,{},,AN02EC04,20,m,2,0,Wirtschaftsinformatik,0,0,0,0,0,
Change,Background,canvas.Screen,1,2022-07-04T16:57:00.654Z,,,,,3001.4159999999974,timeout,,,127837.40000000037,127835514,124834093,124850.70000000019,124850.77,127852186,,,AN02EC04,20,m,2,0,Wirtschaftsinformatik,0,0,0,0,0,
Fixation,canvas.Screen,2_0_0_0,2022-07-04T16:57:02.588Z,,,1,A,1935.4119999999966,timeout,,,129772.20000000019,129770.92,127835514,127839,127852186,129787598,,black,AN02EC04,20,m,2,0,Wirtschaftsinformatik,0,0,0,0,0,,
Stimulus,canvas.Screen,2_0_0_1,2022-07-04T16:57:02.688Z,,,1,A,100.0060000000085,timeout,,,129872,129870925,129770.92,129772.5,129787598,129887604,,black,AN02EC04,20,m,2,0,Wirtschaftsinformatik,0,0,0,0,0,,
Reaction,canvas.Screen,2_0_0_2,2022-07-04T16:57:03.057Z,,,1,A,351.2960000003659,response,stim_detected,mousedown,130241.20000000019,130238.90000000037,129870925,129872.40000000037,129887604,130254448,,black,AN02EC04,20,m,2,0,Wirtschaftsinformatik,0,0,0,0,0,,0
Trial,flow.Sequence,2_0_0,2022-07-04T16:57:03.058Z,,,1,A,2386.714000000371,completion,,,130241.90000000037,130238.90000000037,127835514,127839,127852186,130254448,,black,AN02EC04,20,m,2,0,Wirtschaftsinformatik,0,0,0,0,0,,
Frame,canvas.Frame,2_0,2022-07-04T16:57:03.059Z,,,1,A,2390.113999999812,,,,130242.59999999963,130242.29999999981,127835514,127837.79999999981,127852186,130254448,,black,AN02EC04,20,m,2,0,Wirtschaftsinformatik,0,0,0,0,0,,
Fixation,canvas.Screen,2_1_0_0,2022-07-04T16:57:05.057Z,,,1,A,2001.4049999999988,timeout,,,132240.2000000002,132239175,130237771,130243.79999999981,130254448,132255853,,black,AN02EC04,20,m,2,0,Wirtschaftsinformatik,0,0,0,0,0,,
Stimulus,canvas.Screen,2_1_0_1,2022-07-04T16:57:05.157Z,,,1,A,99.73399999999674,timeout,,,132340.5,132338912,132239175,132240.5,132255853,132355587,,black,AN02EC04,20,m,2,0,Wirtschaftsinformatik,0,0,0,0,0,,
Reaction,canvas.Screen,2_1_0_2,2022-07-04T16:57:05.359Z,,,1,A,185.01299999962794,response,stim_detected,mousedown,132542.2999999998,132540.59999999963,132338912,132341,132355587,132556022,,black,AN02EC04,20,m,2,0,Wirtschaftsinformatik,0,0,0,0,0,,A
Trial,flow.Sequence,2_1_0,2022-07-04T16:57:05.360Z,,,1,A,2286.1519999996235,completion,,,132543.2999999998,132540.59999999963,130237771,130243.70000000019,130254448,132556022,,black,AN02EC04,20,m,2,0,Wirtschaftsinformatik,0,0,0,0,0,,
Frame,canvas.Frame,2_1,2022-07-04T16:57:05.360Z,,,1,A,2289.051999999996,,,,132543.90000000037,132543.5,130237771,130242.90000000037,130254448,132556022,,black,AN02EC04,20,m,2,0,Wirtschaftsinformatik,0,0,0,0,0,,
Fixation,canvas.Screen,2_2_0_0,2022-07-04T16:57:07.626Z,,,1,AV,2268.228000000003,timeout,,,134809.40000000037,134807572,132539345,132545.2999999998,132556022,134824.25,,grey,AN02EC04,20,m,2,0,Wirtschaftsinformatik,0,0,0,0,0,,
Stimulus,canvas.Screen,2_2_0_1,2022-07-04T16:57:07.726Z,,,1,AV,99.7960000000021,timeout,,,134909.40000000037,134907.37,134807572,134809.7000000002,134824.25,134924046,,grey,AN02EC04,20,m,2,0,Wirtschaftsinformatik,0,0,0,0,0,,
Reaction,canvas.Screen,2_2_0_2,2022-07-04T16:57:07.856Z,,,1,AV,113.55399999962538,response,stim_detected,mousedown,135039.2000000002,135037.59999999963,134907.37,134909.7000000002,134924046,135041.02,,grey,AN02EC04,20,m,2,0,Wirtschaftsinformatik,0,0,0,0,0,,A
Trial,flow.Sequence,2_2_0,2022-07-04T16:57:07.856Z,,,1,AV,2481.5779999996303,completion,,,135039.7999999998,135037.59999999963,132539345,132545.09999999963,132556022,135041.02,,grey,AN02EC04,20,m,2,0,Wirtschaftsinformatik,0,0,0,0,0,,
Frame,canvas.Frame,2_2,2022-07-04T16:57:07.857Z,,,1,AV,2483.978000000003,,,,135040.2999999998,135040,132539345,132544.2999999998,132556022,135041.02,,grey,AN02EC04,20,m,2,0,Wirtschaftsinformatik,0,0,0,0,0,,
Fixation,canvas.Screen,2_3_0_0,2022-07-04T16:57:09.444Z,,,1,AV,1601.3160000000207,timeout,,,136627.40000000037,136625656,135024343,135041.59999999963,135041.02,136642336,,grey,AN02EC04,20,m,2,0,Wirtschaftsinformatik,0,0,0,0,0,,
Stimulus,canvas.Screen,2_3_0_1,2022-07-04T16:57:09.543Z,,,1,AV,99.8179999999993,timeout,,,136726.40000000037,136725192,136625656,136627.7000000002,136642336,136742154,,grey,AN02EC04,20,m,2,0,Wirtschaftsinformatik,0,0,0,0,0,,
Reaction,canvas.Screen,2_3_0_2,2022-07-04T16:57:09.695Z,,,1,AV,134.34599999999045,response,stim_detected,mousedown,136878.40000000037,136876.5,136725192,136726.7000000002,136742154,136892247,,grey,AN02EC04,20,m,2,0,Wirtschaftsinformatik,0,0,0,0,0,,AV
Trial,flow.Sequence,2_3_0,2022-07-04T16:57:09.695Z,,,1,AV,1835.4800000000105,completion,,,136879.09999999963,136876.5,135024343,135041.59999999963,135041.02,136892247,,grey,AN02EC04,20,m,2,0,Wirtschaftsinformatik,0,0,0,0,0,,
Frame,canvas.Frame,2_3,2022-07-04T16:57:09.696Z,,,1,AV,1838.1800000001967,,,,136879.5,136879.2000000002,135024343,135040.59999999963,135041.02,136892247,,grey,AN02EC04,20,m,2,0,Wirtschaftsinformatik,0,0,0,0,0,,
Fixation,canvas.Screen,2_4_0_0,2022-07-04T16:57:11.243Z,,,1,A,1549.9189999999944,timeout,,,138426.5,138425499,136875.57,136880.7000000002,136892247,138442166,,black,AN02EC04,20,m,2,0,Wirtschaftsinformatik,0,0,0,0,0,,
Stimulus,canvas.Screen,2_4_0_1,2022-07-04T16:57:11.345Z,,,1,A,101.26300000000629,timeout,,,138528.40000000037,138526.75,138425499,138426.7999999998,138442166,138543429,,black,AN02EC04,20,m,2,0,Wirtschaftsinformatik,0,0,0,0,0,,
Reaction,canvas.Screen,2_4_0_2,2022-07-04T16:57:11.658Z,,,1,A,296.0709999999963,response,stim_detected,mousedown,138841.40000000037,138839.5,138526.75,138528.90000000037,138543429,138843525,,black,AN02EC04,20,m,2,0,Wirtschaftsinformatik,0,0,0,0,0,,AV
Trial,flow.Sequence,2_4_0,2022-07-04T16:57:11.658Z,,,1,A,1947.252999999997,completion,,,138841.90000000037,138839.5,136875.57,136880.59999999963,136892247,138843525,,black,AN02EC04,20,m,2,0,Wirtschaftsinformatik,0,0,0,0,0,,
Frame,canvas.Frame,2_4,2022-07-04T16:57:11.659Z,,,1,A,1949.752999999997,,,,138842.2000000002,138842,136875.57,136879.7000000002,136892247,138843525,,black,AN02EC04,20,m,2,0,Wirtschaftsinformatik,0,0,0,0,0,,
Fixation,canvas.Screen,2_5_0_0,2022-07-04T16:57:14.063Z,,,0,V,2418.342000000004,timeout,,,141246.5,141245014,138826848,138843.2999999998,138843525,141261867,,grey,AN02EC04,20,m,2,0,Wirtschaftsinformatik,0,0,0,0,0,,
Stimulus,canvas.Screen,2_5_0_1,2022-07-04T16:57:14.163Z,,,0,V,100.0679999999993,timeout,,,141346.59999999963,141345257,141245014,141246.90000000037,141261867,141361935,,grey,AN02EC04,20,m,2,0,Wirtschaftsinformatik,0,0,0,0,0,,
Reaction,canvas.Screen,2_5_0_2,2022-07-04T16:57:14.301Z,,,0,V,121.46500000037486,response,stim_detected,mousedown,141485.2000000002,141483.40000000037,141345257,141346.90000000037,141361935,141495332,,grey,AN02EC04,20,m,2,0,Wirtschaftsinformatik,0,0,0,0,0,,A
Trial,flow.Sequence,2_5_0,2022-07-04T16:57:14.302Z,,,0,V,2639.8750000003783,completion,,,141485.7000000002,141483.40000000037,138826848,138843.2000000002,138843525,141495332,,grey,AN02EC04,20,m,2,0,Wirtschaftsinformatik,0,0,0,0,0,,
Frame,canvas.Frame,2_5,2022-07-04T16:57:14.302Z,,,0,V,2642.3750000003783,,,,141486.09999999963,141485.90000000037,138826848,138842.40000000037,138843525,141495332,,grey,AN02EC04,20,m,2,0,Wirtschaftsinformatik,0,0,0,0,0,,
Fixation,canvas.Screen,2_6_0_0,2022-07-04T16:57:16.465Z,,,1,A,2168.3040000000037,timeout,,,143648.7000000002,143646957,141478655,141488,141495332,143663636,,black,AN02EC04,20,m,2,0,Wirtschaftsinformatik,0,0,0,0,0,,
Stimulus,canvas.Screen,2_6_0_1,2022-07-04T16:57:16.564Z,,,1,A,99.87400000001071,timeout,,,143747.7999999998,143746144,143646957,143649.2000000002,143663636,143763.51,,black,AN02EC04,20,m,2,0,Wirtschaftsinformatik,0,0,0,0,0,,
Reaction,canvas.Screen,2_6_0_2,2022-07-04T16:57:16.708Z,,,1,A,126.98999999999069,response,stim_detected,mousedown,143892.09999999963,143890.5,143746144,143748.09999999963,143763.51,143896926,,black,AN02EC04,20,m,2,0,Wirtschaftsinformatik,0,0,0,0,0,,V
Trial,flow.Sequence,2_6_0,2022-07-04T16:57:16.709Z,,,1,A,2395.168000000005,completion,,,143892.59999999963,143890.5,141478655,141487.7999999998,141495332,143896926,,black,AN02EC04,20,m,2,0,Wirtschaftsinformatik,0,0,0,0,0,,
Frame,canvas.Frame,2_6,2022-07-04T16:57:16.709Z,,,1,A,2397.3680000001914,,,,143893,143892.7000000002,141478655,141486.2999999998,141495332,143896926,,black,AN02EC04,20,m,2,0,Wirtschaftsinformatik,0,0,0,0,0,,
Fixation,canvas.Screen,2_7_0_0,2022-07-04T16:57:18.332Z,,,0,V,1634.4659999999858,timeout,,,145515.59999999963,145514714,143880249,143894.2000000002,143896926,145531392,,grey,AN02EC04,20,m,2,0,Wirtschaftsinformatik,0,0,0,0,0,,
Stimulus,canvas.Screen,2_7_0_1,2022-07-04T16:57:18.433Z,,,0,V,100.13800000000629,timeout,,,145616.7000000002,145614852,145514714,145515.90000000037,145531392,145631.53,,grey,AN02EC04,20,m,2,0,Wirtschaftsinformatik,0,0,0,0,0,,
Reaction,canvas.Screen,2_7_0_2,2022-07-04T16:57:18.591Z,,,0,V,141.97000000000116,response,stim_detected,mousedown,145775.09999999963,145773.5,145614852,145617,145631.53,145781501,,grey,AN02EC04,20,m,2,0,Wirtschaftsinformatik,0,0,0,0,0,,A
Trial,flow.Sequence,2_7_0,2022-07-04T16:57:18.592Z,,,0,V,1876.5739999999932,completion,,,145775.40000000037,145773.5,143880249,143894.09999999963,143896926,145781501,,grey,AN02EC04,20,m,2,0,Wirtschaftsinformatik,0,0,0,0,0,,
Frame,canvas.Frame,2_7,2022-07-04T16:57:18.592Z,,,0,V,1878.5739999999932,,,,145775.7000000002,145775.5,143880249,143893.2000000002,143896926,145781501,,grey,AN02EC04,20,m,2,0,Wirtschaftsinformatik,0,0,0,0,0,,
Fixation,canvas.Screen,2_8_0_0,2022-07-04T16:57:20.184Z,,,1,AV,1601.2149999999965,timeout,,,147367.7999999998,147366037,145764824,145776.90000000037,145781501,147382716,,grey,AN02EC04,20,m,2,0,Wirtschaftsinformatik,0,0,0,0,0,,
Stimulus,canvas.Screen,2_8_0_1,2022-07-04T16:57:20.284Z,,,1,AV,99.95400000002701,timeout,,,147468.09999999963,147465993,147366037,147368.09999999963,147382716,147482.67,,grey,AN02EC04,20,m,2,0,Wirtschaftsinformatik,0,0,0,0,0,,
Reaction,canvas.Screen,2_8_0_2,2022-07-04T16:57:20.415Z,,,1,AV,113.73000000035972,response,stim_detected,mousedown,147598.2000000002,147596.40000000037,147465993,147468.2999999998,147482.67,147616.1,,grey,AN02EC04,20,m,2,0,Wirtschaftsinformatik,0,0,0,0,0,,V
Trial,flow.Sequence,2_8_0,2022-07-04T16:57:20.415Z,,,1,AV,1814.8990000003832,completion,,,147598.7000000002,147596.40000000037,145764824,145776.7999999998,145781501,147616.1,,grey,AN02EC04,20,m,2,0,Wirtschaftsinformatik,0,0,0,0,0,,
Frame,canvas.Frame,2_8,2022-07-04T16:57:20.416Z,,,1,AV,1817.2989999998244,,,,147599.2999999998,147598.7999999998,145764824,145776,145781501,147616.1,,grey,AN02EC04,20,m,2,0,Wirtschaftsinformatik,0,0,0,0,0,,
Fixation,canvas.Screen,2_9_0_0,2022-07-04T16:57:22.451Z,,,0,V,2034.5979999999981,timeout,,,149635.09999999963,149634021,147599423,147600.5,147616.1,149650698,,grey,AN02EC04,20,m,2,0,Wirtschaftsinformatik,0,0,0,0,0,,
Stimulus,canvas.Screen,2_9_0_1,2022-07-04T16:57:22.551Z,,,0,V,99.89100000000326,timeout,,,149734.90000000037,149733914,149634021,149635.5,149650698,149750589,,grey,AN02EC04,20,m,2,0,Wirtschaftsinformatik,0,0,0,0,0,,
Reaction,canvas.Screen,2_9_0_2,2022-07-04T16:57:22.706Z,,,0,V,137.8110000003653,response,stim_detected,mousedown,149889.90000000037,149888.40000000037,149733914,149735.2000000002,149750589,149900915,,grey,AN02EC04,20,m,2,0,Wirtschaftsinformatik,0,0,0,0,0,,AV
Trial,flow.Sequence,2_9_0,2022-07-04T16:57:22.707Z,,,0,V,2272.3000000003667,completion,,,149890.40000000037,149888.40000000037,147599423,147600.40000000037,147616.1,149900915,,grey,AN02EC04,20,m,2,0,Wirtschaftsinformatik,0,0,0,0,0,,
Frame,canvas.Frame,2_9,2022-07-04T16:57:22.707Z,,,0,V,2274.399999999994,,,,149890.59999999963,149890.5,147599423,147599.59999999963,147616.1,149900915,,grey,AN02EC04,20,m,2,0,Wirtschaftsinformatik,0,0,0,0,0,,
Fixation,canvas.Screen,2_10_0_0,2022-07-04T16:57:24.586Z,,,1,A,1884.8910000000033,timeout,,,151770,151769126,149884238,149891.7999999998,149900915,151785806,,black,AN02EC04,20,m,2,0,Wirtschaftsinformatik,0,0,0,0,0,,
Stimulus,canvas.Screen,2_10_0_1,2022-07-04T16:57:24.686Z,,,1,A,99.87799999999697,timeout,,,151870,151869006,151769126,151770.40000000037,151785806,151885684,,black,AN02EC04,20,m,2,0,Wirtschaftsinformatik,0,0,0,0,0,,
Reaction,canvas.Screen,2_10_0_2,2022-07-04T16:57:24.833Z,,,1,A,128.71600000036415,response,stim_detected,mousedown,152016.2999999998,152014.40000000037,151869006,151870.2999999998,151885684,152019007,,black,AN02EC04,20,m,2,0,Wirtschaftsinformatik,0,0,0,0,0,,V
Trial,flow.Sequence,2_10_0,2022-07-04T16:57:24.833Z,,,1,A,2113.4850000003644,completion,,,152016.7000000002,152014.40000000037,149884238,149891.7000000002,149900915,152019007,,black,AN02EC04,20,m,2,0,Wirtschaftsinformatik,0,0,0,0,0,,
Frame,canvas.Frame,2_10,2022-07-04T16:57:24.834Z,,,1,A,2115.9850000003644,,,,152017.2000000002,152016.90000000037,149884238,149890.7999999998,149900915,152019007,,black,AN02EC04,20,m,2,0,Wirtschaftsinformatik,0,0,0,0,0,,
Fixation,canvas.Screen,2_11_0_0,2022-07-04T16:57:26.905Z,,,1,AV,2084.907999999996,timeout,,,154088.2000000002,154087236,152002.33,152018.5,152019007,154103915,,grey,AN02EC04,20,m,2,0,Wirtschaftsinformatik,0,0,0,0,0,,
Stimulus,canvas.Screen,2_11_0_1,2022-07-04T16:57:27.005Z,,,1,AV,99.94399999998859,timeout,,,154188.2999999998,154187181,154087236,154088.5,154103915,154203859,,grey,AN02EC04,20,m,2,0,Wirtschaftsinformatik,0,0,0,0,0,,
Reaction,canvas.Screen,2_11_0_2,2022-07-04T16:57:27.132Z,,,1,AV,110.440999999817,response,stim_detected,mousedown,154315.90000000037,154314.2999999998,154187181,154188.59999999963,154203859,154320519,,grey,AN02EC04,20,m,2,0,Wirtschaftsinformatik,0,0,0,0,0,,A
Trial,flow.Sequence,2_11_0,2022-07-04T16:57:27.133Z,,,1,AV,2295.2929999998014,completion,,,154316.2999999998,154314.2999999998,152002.33,152018.2999999998,152019007,154320519,,grey,AN02EC04,20,m,2,0,Wirtschaftsinformatik,0,0,0,0,0,,
Frame,canvas.Frame,2_11,2022-07-04T16:57:27.133Z,,,1,AV,2297.592999999615,,,,154316.90000000037,154316.59999999963,152002.33,152017.40000000037,152019007,154320519,,grey,AN02EC04,20,m,2,0,Wirtschaftsinformatik,0,0,0,0,0,,
Fixation,canvas.Screen,2_12_0_0,2022-07-04T16:57:29.224Z,,,0,V,2102.407999999996,timeout,,,156407.2999999998,156406242,154303842,154318.5,154320519,156422927,,grey,AN02EC04,20,m,2,0,Wirtschaftsinformatik,0,0,0,0,0,,
Stimulus,canvas.Screen,2_12_0_1,2022-07-04T16:57:29.324Z,,,0,V,99.18799999999464,timeout,,,156507.2000000002,156505436,156406242,156407.59999999963,156422927,156522115,,grey,AN02EC04,20,m,2,0,Wirtschaftsinformatik,0,0,0,0,0,,
Reaction,canvas.Screen,2_12_0_2,2022-07-04T16:57:29.452Z,,,0,V,112.28500000038184,response,stim_detected,mousedown,156635.7999999998,156634.40000000037,156505436,156507.59999999963,156522115,156638788,,grey,AN02EC04,20,m,2,0,Wirtschaftsinformatik,0,0,0,0,0,,AV
Trial,flow.Sequence,2_12_0,2022-07-04T16:57:29.453Z,,,0,V,2313.8810000003723,completion,,,156636.2999999998,156634.40000000037,154303842,154318.2999999998,154320519,156638788,,grey,AN02EC04,20,m,2,0,Wirtschaftsinformatik,0,0,0,0,0,,
Frame,canvas.Frame,2_12,2022-07-04T16:57:29.453Z,,,0,V,2316.0809999996272,,,,156636.7999999998,156636.59999999963,154303842,154317.09999999963,154320519,156638788,,grey,AN02EC04,20,m,2,0,Wirtschaftsinformatik,0,0,0,0,0,,
Fixation,canvas.Screen,2_13_0_0,2022-07-04T16:57:31.775Z,,,0,V,2334.7790000000095,timeout,,,158958.40000000037,158956.89,156622111,156638.2999999998,156638788,158973567,,grey,AN02EC04,20,m,2,0,Wirtschaftsinformatik,0,0,0,0,0,,
Stimulus,canvas.Screen,2_13_0_1,2022-07-04T16:57:31.875Z,,,0,V,100.27499999999418,timeout,,,159058.2999999998,159057164,158956.89,158958.7000000002,158973567,159073842,,grey,AN02EC04,20,m,2,0,Wirtschaftsinformatik,0,0,0,0,0,,
Reaction,canvas.Screen,2_13_0_2,2022-07-04T16:57:32.037Z,,,0,V,145.55800000036834,response,stim_detected,mousedown,159220.90000000037,159219.40000000037,159057164,159058.7000000002,159073842,159223859,,grey,AN02EC04,20,m,2,0,Wirtschaftsinformatik,0,0,0,0,0,,V
Trial,flow.Sequence,2_13_0,2022-07-04T16:57:32.038Z,,,0,V,2580.612000000372,completion,,,159221.40000000037,159219.40000000037,156622111,156638.2000000002,156638788,159223859,,grey,AN02EC04,20,m,2,0,Wirtschaftsinformatik,0,0,0,0,0,,
Frame,canvas.Frame,2_13,2022-07-04T16:57:32.038Z,,,0,V,2582.811999999627,,,,159221.7000000002,159221.59999999963,156622111,156637,156638788,159223859,,grey,AN02EC04,20,m,2,0,Wirtschaftsinformatik,0,0,0,0,0,,
Fixation,canvas.Screen,2_14_0_0,2022-07-04T16:57:33.976Z,,,0,V,1951.216000000015,timeout,,,161159.40000000037,161158398,159207182,159222.7999999998,159223859,161175075,,grey,AN02EC04,20,m,2,0,Wirtschaftsinformatik,0,0,0,0,0,,
Stimulus,canvas.Screen,2_14_0_1,2022-07-04T16:57:34.076Z,,,0,V,100.00899999999092,timeout,,,161259.5,161258408,161158398,161159.7000000002,161175075,161275084,,grey,AN02EC04,20,m,2,0,Wirtschaftsinformatik,0,0,0,0,0,,
Reaction,canvas.Screen,2_14_0_2,2022-07-04T16:57:34.232Z,,,0,V,139.21599999981117,response,stim_detected,mousedown,161415.90000000037,161414.2999999998,161258408,161259.7999999998,161275084,161441999,,grey,AN02EC04,20,m,2,0,Wirtschaftsinformatik,0,0,0,0,0,,V
Trial,flow.Sequence,2_14_0,2022-07-04T16:57:34.233Z,,,0,V,2190.440999999817,completion,,,161416.2999999998,161414.2999999998,159207182,159222.7000000002,159223859,161441999,,grey,AN02EC04,20,m,2,0,Wirtschaftsinformatik,0,0,0,0,0,,
Frame,canvas.Frame,2_14,2022-07-04T16:57:34.233Z,,,0,V,2192.6410000000033,,,,161416.7000000002,161416.5,159207182,159222,159223859,161441999,,grey,AN02EC04,20,m,2,0,Wirtschaftsinformatik,0,0,0,0,0,,
Fixation,canvas.Screen,2_15_0_0,2022-07-04T16:57:36.161Z,,,1,A,1917.8469999999797,timeout,,,163344.59999999963,163343169,161408645,161417.90000000037,161441999,163359846,,black,AN02EC04,20,m,2,0,Wirtschaftsinformatik,0,0,0,0,0,,
Stimulus,canvas.Screen,2_15_0_1,2022-07-04T16:57:36.261Z,,,1,A,100.0789999999979,timeout,,,163444.5,163443248,163343169,163344.90000000037,163359846,163459925,,black,AN02EC04,20,m,2,0,Wirtschaftsinformatik,0,0,0,0,0,,
Reaction,canvas.Screen,2_15_0_2,2022-07-04T16:57:36.388Z,,,1,A,110.37499999982538,response,stim_detected,mousedown,163571.7999999998,163570.2999999998,163443248,163444.7999999998,163459925,163576781,,black,AN02EC04,20,m,2,0,Wirtschaftsinformatik,0,0,0,0,0,,V
Trial,flow.Sequence,2_15_0,2022-07-04T16:57:36.389Z,,,1,A,2128.300999999803,completion,,,163572.40000000037,163570.2999999998,161408645,161417.7999999998,161441999,163576781,,black,AN02EC04,20,m,2,0,Wirtschaftsinformatik,0,0,0,0,0,,
Frame,canvas.Frame,2_15,2022-07-04T16:57:36.389Z,,,1,A,2130.6009999996168,,,,163572.7999999998,163572.59999999963,161408645,161416.90000000037,161441999,163576781,,black,AN02EC04,20,m,2,0,Wirtschaftsinformatik,0,0,0,0,0,,
Fixation,canvas.Screen,2_16_0_0,2022-07-04T16:57:38.312Z,,,1,A,1934.2770000000019,timeout,,,165495.7000000002,165494383,163560104,163574,163576781,165511058,,black,AN02EC04,20,m,2,0,Wirtschaftsinformatik,0,0,0,0,0,,
Stimulus,canvas.Screen,2_16_0_1,2022-07-04T16:57:38.412Z,,,1,A,100.25600000002305,timeout,,,165595.7999999998,165594638,165494383,165496,165511058,165611314,,black,AN02EC04,20,m,2,0,Wirtschaftsinformatik,0,0,0,0,0,,
Reaction,canvas.Screen,2_16_0_2,2022-07-04T16:57:38.582Z,,,1,A,152.88600000017323,response,stim_detected,mousedown,165765.59999999963,165764.2000000002,165594638,165596.09999999963,165611314,165778204,,black,AN02EC04,20,m,2,0,Wirtschaftsinformatik,0,0,0,0,0,,A
Trial,flow.Sequence,2_16_0,2022-07-04T16:57:38.582Z,,,1,A,2187.419000000198,completion,,,165766.09999999963,165764.2000000002,163560104,163573.7999999998,163576781,165778204,,black,AN02EC04,20,m,2,0,Wirtschaftsinformatik,0,0,0,0,0,,
Frame,canvas.Frame,2_16,2022-07-04T16:57:38.583Z,,,1,A,2189.5189999998256,,,,165766.5,165766.2999999998,163560104,163573.09999999963,163576781,165778204,,black,AN02EC04,20,m,2,0,Wirtschaftsinformatik,0,0,0,0,0,,
Fixation,canvas.Screen,2_17_0_0,2022-07-04T16:57:40.331Z,,,1,A,1751.5709999999963,timeout,,,167514.90000000037,167513094,165761527,165767.7999999998,165778204,167529775,,black,AN02EC04,20,m,2,0,Wirtschaftsinformatik,0,0,0,0,0,,
Stimulus,canvas.Screen,2_17_0_1,2022-07-04T16:57:40.430Z,,,1,A,99.74600000001374,timeout,,,167613.7999999998,167612843,167513094,167515.09999999963,167529775,167629521,,black,AN02EC04,20,m,2,0,Wirtschaftsinformatik,0,0,0,0,0,,
Reaction,canvas.Screen,2_17_0_2,2022-07-04T16:57:40.583Z,,,1,A,135.67900000017835,response,stim_detected,mousedown,167766.7000000002,167765.2000000002,167612843,167614,167629521,167779572,,black,AN02EC04,20,m,2,0,Wirtschaftsinformatik,0,0,0,0,0,,A
Trial,flow.Sequence,2_17_0,2022-07-04T16:57:40.583Z,,,1,A,1986.9960000001884,completion,,,167767.2000000002,167765.2000000002,165761527,165767.59999999963,165778204,167779572,,black,AN02EC04,20,m,2,0,Wirtschaftsinformatik,0,0,0,0,0,,
Frame,canvas.Frame,2_17,2022-07-04T16:57:40.584Z,,,1,A,1989.0959999998158,,,,167767.5,167767.2999999998,165761527,165766.7999999998,165778204,167779572,,black,AN02EC04,20,m,2,0,Wirtschaftsinformatik,0,0,0,0,0,,
Fixation,canvas.Screen,2_18_0_0,2022-07-04T16:57:42.115Z,,,1,AV,1534.283000000025,timeout,,,169298.7999999998,169297178,167762895,167768.7000000002,167779572,169313855,,grey,AN02EC04,20,m,2,0,Wirtschaftsinformatik,0,0,0,0,0,,
Stimulus,canvas.Screen,2_18_0_1,2022-07-04T16:57:42.215Z,,,1,AV,99.9320000000007,timeout,,,169398.7999999998,169397112,169297178,169299.09999999963,169313855,169413787,,grey,AN02EC04,20,m,2,0,Wirtschaftsinformatik,0,0,0,0,0,,
Reaction,canvas.Screen,2_18_0_2,2022-07-04T16:57:42.333Z,,,1,AV,101.41300000017509,response,stim_detected,mousedown,169516.7000000002,169515.2000000002,169397112,169399.09999999963,169413787,169530.74,,grey,AN02EC04,20,m,2,0,Wirtschaftsinformatik,0,0,0,0,0,,A
Trial,flow.Sequence,2_18_0,2022-07-04T16:57:42.334Z,,,1,AV,1735.6280000002007,completion,,,169517.2000000002,169515.2000000002,167762895,167768.59999999963,167779572,169530.74,,grey,AN02EC04,20,m,2,0,Wirtschaftsinformatik,0,0,0,0,0,,
Frame,canvas.Frame,2_18,2022-07-04T16:57:42.334Z,,,1,AV,1737.7279999998282,,,,169517.59999999963,169517.2999999998,167762895,167767.7000000002,167779572,169530.74,,grey,AN02EC04,20,m,2,0,Wirtschaftsinformatik,0,0,0,0,0,,
Fixation,canvas.Screen,2_19_0_0,2022-07-04T16:57:44.066Z,,,0,V,1734.6380000000063,timeout,,,171249.90000000037,171248699,169514063,169518.7000000002,169530.74,171265378,,grey,AN02EC04,20,m,2,0,Wirtschaftsinformatik,0,0,0,0,0,,
Stimulus,canvas.Screen,2_19_0_1,2022-07-04T16:57:44.166Z,,,0,V,99.69700000001467,timeout,,,171349.90000000037,171348.4,171248699,171250.09999999963,171265378,171365075,,grey,AN02EC04,20,m,2,0,Wirtschaftsinformatik,0,0,0,0,0,,
Reaction,canvas.Screen,2_19_0_2,2022-07-04T16:57:44.316Z,,,0,V,133.02499999961583,response,stim_detected,mousedown,171499.59999999963,171498.09999999963,171348.4,171350.2999999998,171365075,171515406,,grey,AN02EC04,20,m,2,0,Wirtschaftsinformatik,0,0,0,0,0,,AV
Trial,flow.Sequence,2_19_0,2022-07-04T16:57:44.316Z,,,0,V,1967.3599999996368,completion,,,171500,171498.09999999963,169514063,169518.59999999963,169530.74,171515406,,grey,AN02EC04,20,m,2,0,Wirtschaftsinformatik,0,0,0,0,0,,
Frame,canvas.Frame,2_19,2022-07-04T16:57:44.317Z,,,0,V,1969.4600000001956,,,,171500.40000000037,171500.2000000002,169514063,169517.7999999998,169530.74,171515406,,grey,AN02EC04,20,m,2,0,Wirtschaftsinformatik,0,0,0,0,0,,
Fixation,canvas.Screen,2_20_0_0,2022-07-04T16:57:46.501Z,,,1,AV,2184.6960000000254,timeout,,,173685.09999999963,173683425,171498729,171501.5,171515406,173700102,,grey,AN02EC04,20,m,2,0,Wirtschaftsinformatik,0,0,0,0,0,,
Stimulus,canvas.Screen,2_20_0_1,2022-07-04T16:57:46.601Z,,,1,AV,100.00099999998929,timeout,,,173785.09999999963,173783427,173683425,173685.40000000037,173700102,173800103,,grey,AN02EC04,20,m,2,0,Wirtschaftsinformatik,0,0,0,0,0,,
Reaction,canvas.Screen,2_20_0_2,2022-07-04T16:57:46.719Z,,,1,AV,101.09700000018347,response,stim_detected,mousedown,173902.59999999963,173901.2000000002,173783427,173785.2999999998,173800103,173917006,,grey,AN02EC04,20,m,2,0,Wirtschaftsinformatik,0,0,0,0,0,,V
Trial,flow.Sequence,2_20_0,2022-07-04T16:57:46.719Z,,,1,AV,2385.794000000198,completion,,,173903.2000000002,173901.2000000002,171498729,171501.40000000037,171515406,173917006,,grey,AN02EC04,20,m,2,0,Wirtschaftsinformatik,0,0,0,0,0,,
Frame,canvas.Frame,2_20,2022-07-04T16:57:46.720Z,,,1,AV,2387.9940000003844,,,,173903.59999999963,173903.40000000037,171498729,171500.59999999963,171515406,173917006,,grey,AN02EC04,20,m,2,0,Wirtschaftsinformatik,0,0,0,0,0,,
Fixation,canvas.Screen,2_21_0_0,2022-07-04T16:57:48.686Z,,,0,V,1967.244000000006,timeout,,,175869.2000000002,175867578,173900329,173904.7000000002,173917006,175884.25,,grey,AN02EC04,20,m,2,0,Wirtschaftsinformatik,0,0,0,0,0,,
Stimulus,canvas.Screen,2_21_0_1,2022-07-04T16:57:48.786Z,,,0,V,100.7390000000014,timeout,,,175970.09999999963,175968312,175867578,175869.5,175884.25,175984989,,grey,AN02EC04,20,m,2,0,Wirtschaftsinformatik,0,0,0,0,0,,
Reaction,canvas.Screen,2_21_0_2,2022-07-04T16:57:48.953Z,,,0,V,150.11099999962607,response,stim_detected,mousedown,176136.7000000002,176135.09999999963,175968312,175970.5,175984989,176151794,,grey,AN02EC04,20,m,2,0,Wirtschaftsinformatik,0,0,0,0,0,,AV
Trial,flow.Sequence,2_21_0,2022-07-04T16:57:48.954Z,,,0,V,2218.0939999996335,completion,,,176137.2000000002,176135.09999999963,173900329,173904.59999999963,173917006,176151794,,grey,AN02EC04,20,m,2,0,Wirtschaftsinformatik,0,0,0,0,0,,
Frame,canvas.Frame,2_21,2022-07-04T16:57:48.954Z,,,0,V,2220.3940000003786,,,,176137.59999999963,176137.40000000037,173900329,173903.90000000037,173917006,176151794,,grey,AN02EC04,20,m,2,0,Wirtschaftsinformatik,0,0,0,0,0,,
Fixation,canvas.Screen,2_22_0_0,2022-07-04T16:57:51.004Z,,,0,V,2052.235000000015,timeout,,,178188.2000000002,178187345,176135117,176138.7000000002,176151794,178204029,,grey,AN02EC04,20,m,2,0,Wirtschaftsinformatik,0,0,0,0,0,,
Stimulus,canvas.Screen,2_22_0_1,2022-07-04T16:57:51.104Z,,,0,V,99.03199999997742,timeout,,,178287.5,178286385,178187345,178188.59999999963,178204029,178303061,,grey,AN02EC04,20,m,2,0,Wirtschaftsinformatik,0,0,0,0,0,,
Reaction,canvas.Screen,2_22_0_2,2022-07-04T16:57:51.268Z,,,0,V,147.0389999996405,response,stim_detected,mousedown,178451.59999999963,178450.09999999963,178286385,178287.90000000037,178303061,178453366,,grey,AN02EC04,20,m,2,0,Wirtschaftsinformatik,0,0,0,0,0,,V
Trial,flow.Sequence,2_22_0,2022-07-04T16:57:51.268Z,,,0,V,2298.305999999633,completion,,,178452.09999999963,178450.09999999963,176135117,176138.59999999963,176151794,178453366,,grey,AN02EC04,20,m,2,0,Wirtschaftsinformatik,0,0,0,0,0,,
Frame,canvas.Frame,2_22,2022-07-04T16:57:51.269Z,,,0,V,2300.5059999998193,,,,178452.5,178452.2999999998,176135117,176137.7999999998,176151794,178453366,,grey,AN02EC04,20,m,2,0,Wirtschaftsinformatik,0,0,0,0,0,,
Fixation,canvas.Screen,2_23_0_0,2022-07-04T16:57:53.423Z,,,1,AV,2168.021999999997,timeout,,,180606.40000000037,180604711,178436689,178453.7999999998,178453366,180621388,,grey,AN02EC04,20,m,2,0,Wirtschaftsinformatik,0,0,0,0,0,,
Stimulus,canvas.Screen,2_23_0_1,2022-07-04T16:57:53.523Z,,,1,AV,99.82000000000698,timeout,,,180706.40000000037,180704533,180604711,180606.7000000002,180621388,180721208,,grey,AN02EC04,20,m,2,0,Wirtschaftsinformatik,0,0,0,0,0,,
Reaction,canvas.Screen,2_23_0_2,2022-07-04T16:57:53.635Z,,,1,AV,95.992000000173,response,stim_detected,mousedown,180818.7000000002,180817.2000000002,180704533,180706.7999999998,180721208,180821628,,grey,AN02EC04,20,m,2,0,Wirtschaftsinformatik,0,0,0,0,0,,V
Trial,flow.Sequence,2_23_0,2022-07-04T16:57:53.636Z,,,1,AV,2363.834000000177,completion,,,180819.2999999998,180817.2000000002,178436689,178453.7999999998,178453366,180821628,,grey,AN02EC04,20,m,2,0,Wirtschaftsinformatik,0,0,0,0,0,,
Frame,canvas.Frame,2_23,2022-07-04T16:57:53.636Z,,,1,AV,2366.0340000003634,,,,180819.7000000002,180819.40000000037,178436689,178452.7999999998,178453366,180821628,,grey,AN02EC04,20,m,2,0,Wirtschaftsinformatik,0,0,0,0,0,,
Fixation,canvas.Screen,2_24_0_0,2022-07-04T16:57:55.575Z,,,1,A,1951.2170000000042,timeout,,,182757.5,182756168,180804951,180820.90000000037,180821628,182772845,,black,AN02EC04,20,m,2,0,Wirtschaftsinformatik,0,0,0,0,0,,
Stimulus,canvas.Screen,2_24_0_1,2022-07-04T16:57:55.675Z,,,1,A,99.89999999999418,timeout,,,182858,182856.07,182756168,182757.7999999998,182772845,182872745,,black,AN02EC04,20,m,2,0,Wirtschaftsinformatik,0,0,0,0,0,,
Reaction,canvas.Screen,2_24_0_2,2022-07-04T16:57:55.861Z,,,1,A,169.25500000000466,response,stim_detected,mousedown,183043.5,183042,182856.07,182858.40000000037,182872745,183056442,,black,AN02EC04,20,m,2,0,Wirtschaftsinformatik,0,0,0,0,0,,AV
Trial,flow.Sequence,2_24_0,2022-07-04T16:57:55.861Z,,,1,A,2220.372000000003,completion,,,183043.90000000037,183042,180804951,180820.7999999998,180821628,183056442,,black,AN02EC04,20,m,2,0,Wirtschaftsinformatik,0,0,0,0,0,,
Frame,canvas.Frame,2_24,2022-07-04T16:57:55.862Z,,,1,A,2222.5720000001893,,,,183044.40000000037,183044.2000000002,180804951,180820,180821628,183056442,,black,AN02EC04,20,m,2,0,Wirtschaftsinformatik,0,0,0,0,0,,
Fixation,canvas.Screen,2_25_0_0,2022-07-04T16:57:58.109Z,,,1,AV,2250.4890000000014,timeout,,,185291.59999999963,185290.26,183039765,183045.5,183056442,185306931,,grey,AN02EC04,20,m,2,0,Wirtschaftsinformatik,0,0,0,0,0,,
Stimulus,canvas.Screen,2_25_0_1,2022-07-04T16:57:58.210Z,,,1,AV,101.17599999997765,timeout,,,185392.7000000002,185391427,185290.26,185291.90000000037,185306931,185408107,,grey,AN02EC04,20,m,2,0,Wirtschaftsinformatik,0,0,0,0,0,,
Reaction,canvas.Screen,2_25_0_2,2022-07-04T16:57:58.326Z,,,1,AV,98.99299999963841,response,stim_detected,mousedown,185508.7999999998,185507.09999999963,185391427,185393,185408107,185524741,,grey,AN02EC04,20,m,2,0,Wirtschaftsinformatik,0,0,0,0,0,,A
Trial,flow.Sequence,2_25_0,2022-07-04T16:57:58.326Z,,,1,AV,2450.6579999996175,completion,,,185509.2000000002,185507.09999999963,183039765,183045.40000000037,183056442,185524741,,grey,AN02EC04,20,m,2,0,Wirtschaftsinformatik,0,0,0,0,0,,
Frame,canvas.Frame,2_25,2022-07-04T16:57:58.327Z,,,1,AV,2452.9580000003625,,,,185509.59999999963,185509.40000000037,183039765,183044.59999999963,183056442,185524741,,grey,AN02EC04,20,m,2,0,Wirtschaftsinformatik,0,0,0,0,0,,
Fixation,canvas.Screen,2_26_0_0,2022-07-04T16:58:00.028Z,,,1,AV,1701.6900000000023,timeout,,,187210.7000000002,187209748,185508064,185510.7000000002,185524741,187226431,,grey,AN02EC04,20,m,2,0,Wirtschaftsinformatik,0,0,0,0,0,,
Stimulus,canvas.Screen,2_26_0_1,2022-07-04T16:58:00.127Z,,,1,AV,98.69399999998859,timeout,,,187309.7000000002,187308455,187209748,187211,187226431,187325125,,grey,AN02EC04,20,m,2,0,Wirtschaftsinformatik,0,0,0,0,0,,
Reaction,canvas.Screen,2_26_0_2,2022-07-04T16:58:00.288Z,,,1,AV,143875,response,stim_detected,mousedown,187470.5,187469,187308455,187310,187325125,187476066,,grey,AN02EC04,20,m,2,0,Wirtschaftsinformatik,0,0,0,0,0,,AV
Trial,flow.Sequence,2_26_0,2022-07-04T16:58:00.288Z,,,1,AV,1944.258999999991,completion,,,187471,187469,185508064,185510.59999999963,185524741,187476066,,grey,AN02EC04,20,m,2,0,Wirtschaftsinformatik,0,0,0,0,0,,
Frame,canvas.Frame,2_26,2022-07-04T16:58:00.289Z,,,1,AV,1946.4590000001772,,,,187471.5,187471.2000000002,185508064,185509.7999999998,185524741,187476066,,grey,AN02EC04,20,m,2,0,Wirtschaftsinformatik,0,0,0,0,0,,
Fixation,canvas.Screen,2_27_0_0,2022-07-04T16:58:02.530Z,,,0,V,2251.838000000018,timeout,,,189712.7999999998,189711224,187459389,187472.7000000002,187476066,189727904,,grey,AN02EC04,20,m,2,0,Wirtschaftsinformatik,0,0,0,0,0,,
Stimulus,canvas.Screen,2_27_0_1,2022-07-04T16:58:02.629Z,,,0,V,99.74799999999232,timeout,,,189811.90000000037,189810829,189711224,189713.2000000002,189727904,189827652,,grey,AN02EC04,20,m,2,0,Wirtschaftsinformatik,0,0,0,0,0,,
Reaction,canvas.Screen,2_27_0_2,2022-07-04T16:58:02.765Z,,,0,V,118.34799999999814,response,stim_detected,mousedown,189947.90000000037,189946,189810829,189812.2000000002,189827652,189961068,,grey,AN02EC04,20,m,2,0,Wirtschaftsinformatik,0,0,0,0,0,,AV
Trial,flow.Sequence,2_27_0,2022-07-04T16:58:02.766Z,,,0,V,2469.9340000000084,completion,,,189948.5,189946,187459389,187472.5,187476066,189961068,,grey,AN02EC04,20,m,2,0,Wirtschaftsinformatik,0,0,0,0,0,,
Frame,canvas.Frame,2_27,2022-07-04T16:58:02.766Z,,,0,V,2472.6340000001946,,,,189949,189948.7000000002,187459389,187471.59999999963,187476066,189961068,,grey,AN02EC04,20,m,2,0,Wirtschaftsinformatik,0,0,0,0,0,,
Fixation,canvas.Screen,2_28_0_0,2022-07-04T16:58:04.747Z,,,1,AV,1984.573000000004,timeout,,,191930,191928964,189944391,189950.09999999963,189961068,191945641,,grey,AN02EC04,20,m,2,0,Wirtschaftsinformatik,0,0,0,0,0,,
Stimulus,canvas.Screen,2_28_0_1,2022-07-04T16:58:04.847Z,,,1,AV,100.00599999999395,timeout,,,192029.90000000037,192028971,191928964,191930.2999999998,191945641,192045647,,grey,AN02EC04,20,m,2,0,Wirtschaftsinformatik,0,0,0,0,0,,
Reaction,canvas.Screen,2_28_0_2,2022-07-04T16:58:04.968Z,,,1,AV,103.45299999963026,response,stim_detected,mousedown,192151.2000000002,192149.09999999963,192028971,192030.2000000002,192045647,192162519,,grey,AN02EC04,20,m,2,0,Wirtschaftsinformatik,0,0,0,0,0,,V
Trial,flow.Sequence,2_28_0,2022-07-04T16:58:04.969Z,,,1,AV,2188.031999999628,completion,,,192151.7999999998,192149.09999999963,189944391,189950,189961068,192162519,,grey,AN02EC04,20,m,2,0,Wirtschaftsinformatik,0,0,0,0,0,,
Frame,canvas.Frame,2_28,2022-07-04T16:58:04.969Z,,,1,AV,2190.9320000000007,,,,192152.2000000002,192152,189944391,189949.2999999998,189961068,192162519,,grey,AN02EC04,20,m,2,0,Wirtschaftsinformatik,0,0,0,0,0,,
Fixation,canvas.Screen,2_29_0_0,2022-07-04T16:58:06.532Z,,,1,A,1568.070000000007,timeout,,,193715.09999999963,193713908,192145842,192153.2999999998,192162519,193730589,,black,AN02EC04,20,m,2,0,Wirtschaftsinformatik,0,0,0,0,0,,
Stimulus,canvas.Screen,2_29_0_1,2022-07-04T16:58:06.632Z,,,1,A,99.61799999998766,timeout,,,193815,193813531,193713908,193715.5,193730589,193830207,,black,AN02EC04,20,m,2,0,Wirtschaftsinformatik,0,0,0,0,0,,
Reaction,canvas.Screen,2_29_0_2,2022-07-04T16:58:06.787Z,,,1,A,137.79300000000512,response,stim_detected,mousedown,193969.5,193968,193813531,193815.2000000002,193830207,193980434,,black,AN02EC04,20,m,2,0,Wirtschaftsinformatik,0,0,0,0,0,,AV
Trial,flow.Sequence,2_29_0,2022-07-04T16:58:06.787Z,,,1,A,1805.4809999999998,completion,,,193970,193968,192145842,192153.2000000002,192162519,193980434,,black,AN02EC04,20,m,2,0,Wirtschaftsinformatik,0,0,0,0,0,,
Frame,canvas.Frame,2_29,2022-07-04T16:58:06.788Z,,,1,A,1807.681000000186,,,,193970.2999999998,193970.2000000002,192145842,192152.40000000037,192162519,193980434,,black,AN02EC04,20,m,2,0,Wirtschaftsinformatik,0,0,0,0,0,,
Fixation,canvas.Screen,2_30_0_0,2022-07-04T16:58:08.949Z,,,1,AV,2167.149000000005,timeout,,,196132.09999999963,196130912,193963757,193971.5,193980434,196147583,,grey,AN02EC04,20,m,2,0,Wirtschaftsinformatik,0,0,0,0,0,,
Stimulus,canvas.Screen,2_30_0_1,2022-07-04T16:58:09.050Z,,,1,AV,101.07399999999325,timeout,,,196233.2000000002,196231978,196130912,196132.2999999998,196147583,196248657,,grey,AN02EC04,20,m,2,0,Wirtschaftsinformatik,0,0,0,0,0,,
Reaction,canvas.Screen,2_30_0_2,2022-07-04T16:58:09.171Z,,,1,AV,103.24300000036601,response,stim_detected,mousedown,196353.5,196351.90000000037,196231978,196233.5,196248657,196365.35,,grey,AN02EC04,20,m,2,0,Wirtschaftsinformatik,0,0,0,0,0,,A
Trial,flow.Sequence,2_30_0,2022-07-04T16:58:09.171Z,,,1,AV,2371.466000000364,completion,,,196353.90000000037,196351.90000000037,193963757,193971.40000000037,193980434,196365.35,,grey,AN02EC04,20,m,2,0,Wirtschaftsinformatik,0,0,0,0,0,,
Frame,canvas.Frame,2_30,2022-07-04T16:58:09.172Z,,,1,AV,2373.665999999619,,,,196354.40000000037,196354.09999999963,193963757,193970.59999999963,193980434,196365.35,,grey,AN02EC04,20,m,2,0,Wirtschaftsinformatik,0,0,0,0,0,,
Fixation,canvas.Screen,2_31_0_0,2022-07-04T16:58:11.268Z,,,1,AV,2100.892999999982,timeout,,,198451.2000000002,198449569,196348673,196355.59999999963,196365.35,198466243,,grey,AN02EC04,20,m,2,0,Wirtschaftsinformatik,0,0,0,0,0,,
Stimulus,canvas.Screen,2_31_0_1,2022-07-04T16:58:11.368Z,,,1,AV,100.64300000001094,timeout,,,198551.2000000002,198550207,198449569,198451.5,198466243,198566886,,grey,AN02EC04,20,m,2,0,Wirtschaftsinformatik,0,0,0,0,0,,
Reaction,canvas.Screen,2_31_0_2,2022-07-04T16:58:11.463Z,,,1,AV,77.01400000037393,response,stim_detected,mousedown,198645.40000000037,198643.90000000037,198550207,198551.5,198566886,198666874,,grey,AN02EC04,20,m,2,0,Wirtschaftsinformatik,0,0,0,0,0,,AV
Trial,flow.Sequence,2_31_0,2022-07-04T16:58:11.463Z,,,1,AV,2278.5500000003667,completion,,,198645.90000000037,198643.90000000037,196348673,196355.5,196365.35,198666874,,grey,AN02EC04,20,m,2,0,Wirtschaftsinformatik,0,0,0,0,0,,
Frame,canvas.Frame,2_31,2022-07-04T16:58:11.464Z,,,1,AV,2280.7499999996217,,,,198646.40000000037,198646.09999999963,196348673,196354.59999999963,196365.35,198666874,,grey,AN02EC04,20,m,2,0,Wirtschaftsinformatik,0,0,0,0,0,,
Fixation,canvas.Screen,2_32_0_0,2022-07-04T16:58:13.320Z,,,1,AV,1851.1549999999988,timeout,,,200502.40000000037,200501352,198633.52,198647.7000000002,198666874,200518029,,grey,AN02EC04,20,m,2,0,Wirtschaftsinformatik,0,0,0,0,0,,
Stimulus,canvas.Screen,2_32_0_1,2022-07-04T16:58:13.420Z,,,1,AV,99.54299999997602,timeout,,,200602.2999999998,200600.9,200501352,200502.7999999998,200518029,200617572,,grey,AN02EC04,20,m,2,0,Wirtschaftsinformatik,0,0,0,0,0,,
Reaction,canvas.Screen,2_32_0_2,2022-07-04T16:58:13.541Z,,,1,AV,104.32800000038696,response,stim_detected,mousedown,200723.40000000037,200721.90000000037,200600.9,200602.7000000002,200617572,200734912,,grey,AN02EC04,20,m,2,0,Wirtschaftsinformatik,0,0,0,0,0,,AV
Trial,flow.Sequence,2_32_0,2022-07-04T16:58:13.541Z,,,1,AV,2055.026000000362,completion,,,200723.90000000037,200721.90000000037,198633.52,198647.59999999963,198666874,200734912,,grey,AN02EC04,20,m,2,0,Wirtschaftsinformatik,0,0,0,0,0,,
Frame,canvas.Frame,2_32,2022-07-04T16:58:13.542Z,,,1,AV,2057.2259999996168,,,,200724.2999999998,200724.09999999963,198633.52,198646.59999999963,198666874,200734912,,grey,AN02EC04,20,m,2,0,Wirtschaftsinformatik,0,0,0,0,0,,
Fixation,canvas.Screen,2_33_0_0,2022-07-04T16:58:15.839Z,,,0,V,2301.4289999999746,timeout,,,203021.5,203019664,200718235,200725.59999999963,200734912,203036341,,grey,AN02EC04,20,m,2,0,Wirtschaftsinformatik,0,0,0,0,0,,
Stimulus,canvas.Screen,2_33_0_1,2022-07-04T16:58:15.939Z,,,0,V,100.07100000002538,timeout,,,203121.7000000002,203119735,203019664,203021.7000000002,203036341,203136412,,grey,AN02EC04,20,m,2,0,Wirtschaftsinformatik,0,0,0,0,0,,
Reaction,canvas.Screen,2_33_0_2,2022-07-04T16:58:16.057Z,,,0,V,102.38799999980256,response,stim_detected,mousedown,203240.2000000002,203238.7999999998,203119735,203122,203136412,203253289,,grey,AN02EC04,20,m,2,0,Wirtschaftsinformatik,0,0,0,0,0,,AV
Trial,flow.Sequence,2_33_0,2022-07-04T16:58:16.058Z,,,0,V,2503.8879999998026,completion,,,203240.7999999998,203238.7999999998,200718235,200725.40000000037,200734912,203253289,,grey,AN02EC04,20,m,2,0,Wirtschaftsinformatik,0,0,0,0,0,,
Frame,canvas.Frame,2_33,2022-07-04T16:58:16.058Z,,,0,V,2506.087999999989,,,,203241.09999999963,203241,200718235,200724.59999999963,200734912,203253289,,grey,AN02EC04,20,m,2,0,Wirtschaftsinformatik,0,0,0,0,0,,
Fixation,canvas.Screen,2_34_0_0,2022-07-04T16:58:17.723Z,,,1,AV,1667.8179999999993,timeout,,,204905.5,204904429,203236612,203242.2999999998,203253289,204921107,,grey,AN02EC04,20,m,2,0,Wirtschaftsinformatik,0,0,0,0,0,,
Stimulus,canvas.Screen,2_34_0_1,2022-07-04T16:58:17.823Z,,,1,AV,99.62700000000768,timeout,,,205005.5,205004.06,204904429,204905.7999999998,204921107,205020734,,grey,AN02EC04,20,m,2,0,Wirtschaftsinformatik,0,0,0,0,0,,
Reaction,canvas.Screen,2_34_0_2,2022-07-04T16:58:17.940Z,,,1,AV,100.16600000037579,response,stim_detected,mousedown,205122.40000000037,205120.90000000037,205004.06,205005.7999999998,205020734,205137861,,grey,AN02EC04,20,m,2,0,Wirtschaftsinformatik,0,0,0,0,0,,V
Trial,flow.Sequence,2_34_0,2022-07-04T16:58:17.940Z,,,1,AV,1867.6110000003828,completion,,,205122.90000000037,205120.90000000037,203236612,203242.09999999963,203253289,205137861,,grey,AN02EC04,20,m,2,0,Wirtschaftsinformatik,0,0,0,0,0,,
Frame,canvas.Frame,2_34,2022-07-04T16:58:17.940Z,,,1,AV,1869.7110000000102,,,,205123.2999999998,205123,203236612,203241.40000000037,203253289,205137861,,grey,AN02EC04,20,m,2,0,Wirtschaftsinformatik,0,0,0,0,0,,
Fixation,canvas.Screen,2_35_0_0,2022-07-04T16:58:19.874Z,,,0,V,1934.5309999999881,timeout,,,207056.7000000002,207055715,205121184,205124.40000000037,205137861,207072392,,grey,AN02EC04,20,m,2,0,Wirtschaftsinformatik,0,0,0,0,0,,
Stimulus,canvas.Screen,2_35_0_1,2022-07-04T16:58:19.974Z,,,0,V,100.18900000001304,timeout,,,207157.2000000002,207155786,207055715,207057.09999999963,207072392,207172581,,grey,AN02EC04,20,m,2,0,Wirtschaftsinformatik,0,0,0,0,0,,
Reaction,canvas.Screen,2_35_0_2,2022-07-04T16:58:20.119Z,,,0,V,129.01899999962188,response,stim_detected,mousedown,207302.2999999998,207301.59999999963,207155786,207157.40000000037,207172581,207305997,,grey,AN02EC04,20,m,2,0,Wirtschaftsinformatik,0,0,0,0,0,,AV
Trial,flow.Sequence,2_35_0,2022-07-04T16:58:20.120Z,,,0,V,2163.738999999623,completion,,,207302.40000000037,207301.59999999963,205121184,205124.40000000037,205137861,207305997,,grey,AN02EC04,20,m,2,0,Wirtschaftsinformatik,0,0,0,0,0,,
Frame,canvas.Frame,2_35,2022-07-04T16:58:20.120Z,,,0,V,2164.6389999999956,,,,207302.59999999963,207302.5,205121184,205123.5,205137861,207305997,,grey,AN02EC04,20,m,2,0,Wirtschaftsinformatik,0,0,0,0,0,,
Fixation,canvas.Screen,2_36_0_0,2022-07-04T16:58:22.358Z,,,1,AV,2250.5169999999925,timeout,,,209540.7999999998,209539843,207289.32,207303.09999999963,207305997,209556514,,grey,AN02EC04,20,m,2,0,Wirtschaftsinformatik,0,0,0,0,0,,
Stimulus,canvas.Screen,2_36_0_1,2022-07-04T16:58:22.459Z,,,1,AV,100.53500000000349,timeout,,,209641.7000000002,209640375,209539843,209541.09999999963,209556514,209657049,,grey,AN02EC04,20,m,2,0,Wirtschaftsinformatik,0,0,0,0,0,,
Reaction,canvas.Screen,2_36_0_2,2022-07-04T16:58:22.587Z,,,1,AV,111.75099999981467,response,stim_detected,mousedown,209770.2999999998,209768.7999999998,209640375,209642.09999999963,209657049,209774289,,grey,AN02EC04,20,m,2,0,Wirtschaftsinformatik,0,0,0,0,0,,V
Trial,flow.Sequence,2_36_0,2022-07-04T16:58:22.588Z,,,1,AV,2462.8029999998107,completion,,,209770.90000000037,209768.7999999998,207289.32,207303,207305997,209774289,,grey,AN02EC04,20,m,2,0,Wirtschaftsinformatik,0,0,0,0,0,,
Frame,canvas.Frame,2_36,2022-07-04T16:58:22.588Z,,,1,AV,2465.1029999996244,,,,209771.2999999998,209771.09999999963,207289.32,207302.7000000002,207305997,209774289,,grey,AN02EC04,20,m,2,0,Wirtschaftsinformatik,0,0,0,0,0,,
Fixation,canvas.Screen,2_37_0_0,2022-07-04T16:58:24.811Z,,,1,A,2234.5709999999963,timeout,,,211993.90000000037,211992184,209757612,209772.40000000037,209774289,212008.86,,black,AN02EC04,20,m,2,0,Wirtschaftsinformatik,0,0,0,0,0,,
Stimulus,canvas.Screen,2_37_0_1,2022-07-04T16:58:24.911Z,,,1,A,100.43300000001909,timeout,,,212093.90000000037,212092.61,211992184,211994.09999999963,212008.86,212109293,,black,AN02EC04,20,m,2,0,Wirtschaftsinformatik,0,0,0,0,0,,
Reaction,canvas.Screen,2_37_0_2,2022-07-04T16:58:25.163Z,,,1,A,235.5069999998086,response,stim_detected,mousedown,212346.2999999998,212344.7999999998,212092.61,212094.2999999998,212109293,212359368,,black,AN02EC04,20,m,2,0,Wirtschaftsinformatik,0,0,0,0,0,,AV
Trial,flow.Sequence,2_37_0,2022-07-04T16:58:25.164Z,,,1,A,2570.510999999824,completion,,,212346.7999999998,212344.7999999998,209757612,209772.2999999998,209774289,212359368,,black,AN02EC04,20,m,2,0,Wirtschaftsinformatik,0,0,0,0,0,,
Frame,canvas.Frame,2_37,2022-07-04T16:58:25.164Z,,,1,A,2572.611000000383,,,,212347.2000000002,212346.90000000037,209757612,209771.5,209774289,212359368,,black,AN02EC04,20,m,2,0,Wirtschaftsinformatik,0,0,0,0,0,,
Fixation,canvas.Screen,2_38_0_0,2022-07-04T16:58:27.346Z,,,0,V,2184.845000000001,timeout,,,214529,214527535,212342691,212348.40000000037,212359368,214544213,,grey,AN02EC04,20,m,2,0,Wirtschaftsinformatik,0,0,0,0,0,,
Stimulus,canvas.Screen,2_38_0_1,2022-07-04T16:58:27.446Z,,,0,V,99.99100000000908,timeout,,,214629.09999999963,214627527,214527535,214529.2999999998,214544213,214644204,,grey,AN02EC04,20,m,2,0,Wirtschaftsinformatik,0,0,0,0,0,,
Reaction,canvas.Screen,2_38_0_2,2022-07-04T16:58:27.619Z,,,0,V,155.59599999981583,response,stim_detected,mousedown,214801.40000000037,214799.7999999998,214627527,214629.40000000037,214644204,214811004,,grey,AN02EC04,20,m,2,0,Wirtschaftsinformatik,0,0,0,0,0,,A
Trial,flow.Sequence,2_38_0,2022-07-04T16:58:27.619Z,,,0,V,2440.431999999826,completion,,,214801.7999999998,214799.7999999998,212342691,212348.2999999998,212359368,214811004,,grey,AN02EC04,20,m,2,0,Wirtschaftsinformatik,0,0,0,0,0,,
Frame,canvas.Frame,2_38,2022-07-04T16:58:27.619Z,,,0,V,2442.532000000385,,,,214802.2000000002,214801.90000000037,212342691,212347.40000000037,212359368,214811004,,grey,AN02EC04,20,m,2,0,Wirtschaftsinformatik,0,0,0,0,0,,
Fixation,canvas.Screen,2_39_0_0,2022-07-04T16:58:29.998Z,,,1,AV,2384.979000000021,timeout,,,217181.09999999963,217179305,214794327,214803.2999999998,214811004,217195983,,grey,AN02EC04,20,m,2,0,Wirtschaftsinformatik,0,0,0,0,0,,
Stimulus,canvas.Screen,2_39_0_1,2022-07-04T16:58:30.098Z,,,1,AV,99.97999999998137,timeout,,,217281.09999999963,217279286,217179305,217181.2999999998,217195983,217295963,,grey,AN02EC04,20,m,2,0,Wirtschaftsinformatik,0,0,0,0,0,,
Reaction,canvas.Screen,2_39_0_2,2022-07-04T16:58:30.213Z,,,1,AV,98.73700000019744,response,stim_detected,mousedown,217396.2000000002,217394.7000000002,217279286,217281.40000000037,217295963,217412724,,grey,AN02EC04,20,m,2,0,Wirtschaftsinformatik,0,0,0,0,0,,V
Trial,flow.Sequence,2_39_0,2022-07-04T16:58:30.214Z,,,1,AV,2583.6960000002,completion,,,217396.59999999963,217394.7000000002,214794327,214803.2000000002,214811004,217412724,,grey,AN02EC04,20,m,2,0,Wirtschaftsinformatik,0,0,0,0,0,,
Frame,canvas.Frame,2_39,2022-07-04T16:58:30.214Z,,,1,AV,2585.7959999998275,,,,217397,217396.7999999998,214794327,214802.40000000037,214811004,217412724,,grey,AN02EC04,20,m,2,0,Wirtschaftsinformatik,0,0,0,0,0,,
Fixation,canvas.Screen,2_40_0_0,2022-07-04T16:58:32.667Z,,,1,AV,2452.310000000027,timeout,,,219850.2999999998,219848352,217396047,217398.2999999998,217412724,219865034,,grey,AN02EC04,20,m,2,0,Wirtschaftsinformatik,0,0,0,0,0,,
Stimulus,canvas.Screen,2_40_0_1,2022-07-04T16:58:32.767Z,,,1,AV,99.47499999997672,timeout,,,219949.59999999963,219947.83,219848352,219850.7000000002,219865034,219964509,,grey,AN02EC04,20,m,2,0,Wirtschaftsinformatik,0,0,0,0,0,,
Reaction,canvas.Screen,2_40_0_2,2022-07-04T16:58:32.919Z,,,1,AV,136.19100000019534,response,stim_detected,mousedown,220102.2999999998,220100.7000000002,219947.83,219949.7999999998,219964509,220114554,,grey,AN02EC04,20,m,2,0,Wirtschaftsinformatik,0,0,0,0,0,,AV
Trial,flow.Sequence,2_40_0,2022-07-04T16:58:32.920Z,,,1,AV,2687.976000000199,completion,,,220102.7000000002,220100.7000000002,217396047,217398.2000000002,217412724,220114554,,grey,AN02EC04,20,m,2,0,Wirtschaftsinformatik,0,0,0,0,0,,
Frame,canvas.Frame,2_40,2022-07-04T16:58:32.920Z,,,1,AV,2690.0759999998263,,,,220103,220102.7999999998,217396047,217397.2999999998,217412724,220114554,,grey,AN02EC04,20,m,2,0,Wirtschaftsinformatik,0,0,0,0,0,,
Fixation,canvas.Screen,2_41_0_0,2022-07-04T16:58:34.785Z,,,1,A,1868.0810000000056,timeout,,,221967.40000000037,221965956,220097877,220104.2999999998,220114554,221982635,,black,AN02EC04,20,m,2,0,Wirtschaftsinformatik,0,0,0,0,0,,
Stimulus,canvas.Screen,2_41_0_1,2022-07-04T16:58:34.884Z,,,1,A,99.66399999998976,timeout,,,222067.2999999998,222065624,221965956,221967.7999999998,221982635,222082299,,black,AN02EC04,20,m,2,0,Wirtschaftsinformatik,0,0,0,0,0,,
Reaction,canvas.Screen,2_41_0_2,2022-07-04T16:58:35.043Z,,,1,A,142.50099999981467,response,stim_detected,mousedown,222226.40000000037,222224.7999999998,222065624,222067.7999999998,222082299,222249307,,black,AN02EC04,20,m,2,0,Wirtschaftsinformatik,0,0,0,0,0,,AV
Trial,flow.Sequence,2_41_0,2022-07-04T16:58:35.044Z,,,1,A,2110.24599999981,completion,,,222226.7000000002,222224.7999999998,220097877,220104.2000000002,220114554,222249307,,black,AN02EC04,20,m,2,0,Wirtschaftsinformatik,0,0,0,0,0,,
Frame,canvas.Frame,2_41,2022-07-04T16:58:35.044Z,,,1,A,2112.346000000369,,,,222227.09999999963,222226.90000000037,220097877,220103.2999999998,220114554,222249307,,black,AN02EC04,20,m,2,0,Wirtschaftsinformatik,0,0,0,0,0,,
Fixation,canvas.Screen,2_42_0_0,2022-07-04T16:58:36.786Z,,,1,AV,1734.7099999999919,timeout,,,223968.40000000037,223967337,222215953,222228.09999999963,222249307,223984017,,grey,AN02EC04,20,m,2,0,Wirtschaftsinformatik,0,0,0,0,0,,
Stimulus,canvas.Screen,2_42_0_1,2022-07-04T16:58:36.885Z,,,1,AV,99.27400000000489,timeout,,,224068.40000000037,224066619,223967337,223968.7000000002,223984017,224083291,,grey,AN02EC04,20,m,2,0,Wirtschaftsinformatik,0,0,0,0,0,,
Reaction,canvas.Screen,2_42_0_2,2022-07-04T16:58:37.033Z,,,1,AV,131.40900000018883,response,stim_detected,mousedown,224216.2000000002,224214.7000000002,224066619,224068.59999999963,224083291,224233938,,grey,AN02EC04,20,m,2,0,Wirtschaftsinformatik,0,0,0,0,0,,A
Trial,flow.Sequence,2_42_0,2022-07-04T16:58:37.034Z,,,1,AV,1965.3930000001856,completion,,,224216.59999999963,224214.7000000002,222215953,222228,222249307,224233938,,grey,AN02EC04,20,m,2,0,Wirtschaftsinformatik,0,0,0,0,0,,
Frame,canvas.Frame,2_42,2022-07-04T16:58:37.034Z,,,1,AV,1967.3930000001856,,,,224216.90000000037,224216.7000000002,222215953,222227.2999999998,222249307,224233938,,grey,AN02EC04,20,m,2,0,Wirtschaftsinformatik,0,0,0,0,0,,
Fixation,canvas.Screen,2_43_0_0,2022-07-04T16:58:39.188Z,,,1,A,2152.1600000000035,timeout,,,226370.5,226369415,224217261,224218.09999999963,224233938,226386098,,black,AN02EC04,20,m,2,0,Wirtschaftsinformatik,0,0,0,0,0,,
Stimulus,canvas.Screen,2_43_0_1,2022-07-04T16:58:39.288Z,,,1,A,99.44899999999325,timeout,,,226470.59999999963,226468869,226369415,226370.7000000002,226386098,226485547,,black,AN02EC04,20,m,2,0,Wirtschaftsinformatik,0,0,0,0,0,,
Reaction,canvas.Screen,2_43_0_2,2022-07-04T16:58:39.401Z,,,1,A,96.15300000019488,response,stim_detected,mousedown,226583.40000000037,226581.7000000002,226468869,226470.7999999998,226485547,226585534,,black,AN02EC04,20,m,2,0,Wirtschaftsinformatik,0,0,0,0,0,,AV
Trial,flow.Sequence,2_43_0,2022-07-04T16:58:39.401Z,,,1,A,2347.7620000001916,completion,,,226583.90000000037,226581.7000000002,224217261,224218,224233938,226585534,,black,AN02EC04,20,m,2,0,Wirtschaftsinformatik,0,0,0,0,0,,
Frame,canvas.Frame,2_43,2022-07-04T16:58:39.401Z,,,1,A,2350.0620000000054,,,,226584.2000000002,226584,224217261,224217,224233938,226585534,,black,AN02EC04,20,m,2,0,Wirtschaftsinformatik,0,0,0,0,0,,
Fixation,canvas.Screen,2_44_0_0,2022-07-04T16:58:41.590Z,,,1,A,2201.939999999973,timeout,,,228772.59999999963,228770793,226568857,226585.09999999963,226585534,228787474,,black,AN02EC04,20,m,2,0,Wirtschaftsinformatik,0,0,0,0,0,,
Stimulus,canvas.Screen,2_44_0_1,2022-07-04T16:58:41.689Z,,,1,A,99.70300000000861,timeout,,,228871.5,228870499,228770793,228772.7999999998,228787474,228887177,,black,AN02EC04,20,m,2,0,Wirtschaftsinformatik,0,0,0,0,0,,
Reaction,canvas.Screen,2_44_0_2,2022-07-04T16:58:41.846Z,,,1,A,140.52300000019022,response,stim_detected,mousedown,229029.09999999963,229027.7000000002,228870499,228871.7999999998,228887177,229037185,,black,AN02EC04,20,m,2,0,Wirtschaftsinformatik,0,0,0,0,0,,A
Trial,flow.Sequence,2_44_0,2022-07-04T16:58:41.847Z,,,1,A,2442.166000000172,completion,,,229029.5,229027.7000000002,226568857,226585.09999999963,226585534,229037185,,black,AN02EC04,20,m,2,0,Wirtschaftsinformatik,0,0,0,0,0,,
Frame,canvas.Frame,2_44,2022-07-04T16:58:41.847Z,,,1,A,2444.166000000172,,,,229029.90000000037,229029.7000000002,226568857,226584.2999999998,226585534,229037185,,black,AN02EC04,20,m,2,0,Wirtschaftsinformatik,0,0,0,0,0,,
Fixation,canvas.Screen,2_45_0_0,2022-07-04T16:58:43.691Z,,,0,V,1851.3980000000156,timeout,,,230873.7000000002,230871904,229020508,229030.7999999998,229037185,230888583,,grey,AN02EC04,20,m,2,0,Wirtschaftsinformatik,0,0,0,0,0,,
Stimulus,canvas.Screen,2_45_0_1,2022-07-04T16:58:43.790Z,,,0,V,99.55999999999767,timeout,,,230972.7000000002,230971469,230871904,230874,230888583,230988143,,grey,AN02EC04,20,m,2,0,Wirtschaftsinformatik,0,0,0,0,0,,
Reaction,canvas.Screen,2_45_0_2,2022-07-04T16:58:44.101Z,,,0,V,294.4569999996165,response,stim_detected,mousedown,231284.2000000002,231282.59999999963,230971469,230973,230988143,231288686,,grey,AN02EC04,20,m,2,0,Wirtschaftsinformatik,0,0,0,0,0,,A
Trial,flow.Sequence,2_45_0,2022-07-04T16:58:44.102Z,,,0,V,2245.41499999963,completion,,,231284.5,231282.59999999963,229020508,229030.7000000002,229037185,231288686,,grey,AN02EC04,20,m,2,0,Wirtschaftsinformatik,0,0,0,0,0,,
Frame,canvas.Frame,2_45,2022-07-04T16:58:44.102Z,,,0,V,2247.5150000001886,,,,231284.7999999998,231284.7000000002,229020508,229030,229037185,231288686,,grey,AN02EC04,20,m,2,0,Wirtschaftsinformatik,0,0,0,0,0,,
Fixation,canvas.Screen,2_46_0_0,2022-07-04T16:58:46.075Z,,,1,AV,1984.0020000000077,timeout,,,233257.7999999998,233256015,231272009,231285.7999999998,231288686,233272688,,grey,AN02EC04,20,m,2,0,Wirtschaftsinformatik,0,0,0,0,0,,
Stimulus,canvas.Screen,2_46_0_1,2022-07-04T16:58:46.175Z,,,1,AV,100.76600000000326,timeout,,,233357.7000000002,233356776,233256015,233258,233272688,233373454,,grey,AN02EC04,20,m,2,0,Wirtschaftsinformatik,0,0,0,0,0,,
Reaction,canvas.Screen,2_46_0_2,2022-07-04T16:58:46.296Z,,,1,AV,104.14599999962957,response,stim_detected,mousedown,233479.09999999963,233477.59999999963,233356776,233357.90000000037,233373454,233490149,,grey,AN02EC04,20,m,2,0,Wirtschaftsinformatik,0,0,0,0,0,,V
Trial,flow.Sequence,2_46_0,2022-07-04T16:58:46.297Z,,,1,AV,2188.9139999996405,completion,,,233479.5,233477.59999999963,231272009,231285.7000000002,231288686,233490149,,grey,AN02EC04,20,m,2,0,Wirtschaftsinformatik,0,0,0,0,0,,
Frame,canvas.Frame,2_46,2022-07-04T16:58:46.297Z,,,1,AV,2190.9139999996405,,,,233479.7999999998,233479.59999999963,231272009,231285,231288686,233490149,,grey,AN02EC04,20,m,2,0,Wirtschaftsinformatik,0,0,0,0,0,,
Fixation,canvas.Screen,2_47_0_0,2022-07-04T16:58:48.710Z,,,1,A,2417.7030000000086,timeout,,,235893.09999999963,235891178,233473472,233480.7999999998,233490149,235907852,,black,AN02EC04,20,m,2,0,Wirtschaftsinformatik,0,0,0,0,0,,
Stimulus,canvas.Screen,2_47_0_1,2022-07-04T16:58:48.810Z,,,1,A,100.69599999999627,timeout,,,235992.90000000037,235991868,235891178,235893.40000000037,235907852,236008548,,black,AN02EC04,20,m,2,0,Wirtschaftsinformatik,0,0,0,0,0,,
Reaction,canvas.Screen,2_47_0_2,2022-07-04T16:58:48.988Z,,,1,A,160.95199999999022,response,stim_detected,mousedown,236171,236169.5,235991868,235993.2000000002,236008548,236175283,,black,AN02EC04,20,m,2,0,Wirtschaftsinformatik,0,0,0,0,0,,AV
Trial,flow.Sequence,2_47_0,2022-07-04T16:58:48.989Z,,,1,A,2679.350999999995,completion,,,236171.40000000037,236169.5,233473472,233480.7000000002,233490149,236175283,,black,AN02EC04,20,m,2,0,Wirtschaftsinformatik,0,0,0,0,0,,
Frame,canvas.Frame,2_47,2022-07-04T16:58:48.989Z,,,1,A,2681.4509999996226,,,,236171.7999999998,236171.59999999963,233473472,233480,233490149,236175283,,black,AN02EC04,20,m,2,0,Wirtschaftsinformatik,0,0,0,0,0,,
Fixation,canvas.Screen,2_48_0_0,2022-07-04T16:58:51.362Z,,,1,AV,2384.353999999992,timeout,,,238544.40000000037,238542963,236158606,236172.7999999998,236175283,238559637,,grey,AN02EC04,20,m,2,0,Wirtschaftsinformatik,0,0,0,0,0,,
Stimulus,canvas.Screen,2_48_0_1,2022-07-04T16:58:51.461Z,,,1,AV,100.24900000001071,timeout,,,238644.2999999998,238643211,238542963,238544.59999999963,238559637,238659886,,grey,AN02EC04,20,m,2,0,Wirtschaftsinformatik,0,0,0,0,0,,
Reaction,canvas.Screen,2_48_0_2,2022-07-04T16:58:51.621Z,,,1,AV,142.51400000037393,response,stim_detected,mousedown,238804.09999999963,238802.40000000037,238643211,238644.5,238659886,238810365,,grey,AN02EC04,20,m,2,0,Wirtschaftsinformatik,0,0,0,0,0,,A
Trial,flow.Sequence,2_48_0,2022-07-04T16:58:51.622Z,,,1,AV,2627.1170000003767,completion,,,238804.40000000037,238802.40000000037,236158606,236172.7000000002,236175283,238810365,,grey,AN02EC04,20,m,2,0,Wirtschaftsinformatik,0,0,0,0,0,,
Frame,canvas.Frame,2_48,2022-07-04T16:58:51.622Z,,,1,AV,2629.3169999996317,,,,238804.7999999998,238804.59999999963,236158606,236172,236175283,238810365,,grey,AN02EC04,20,m,2,0,Wirtschaftsinformatik,0,0,0,0,0,,
Fixation,canvas.Screen,2_49_0_0,2022-07-04T16:58:53.430Z,,,0,V,1817.8040000000037,timeout,,,240613.09999999963,240611492,238793688,238805.90000000037,238810365,240628169,,grey,AN02EC04,20,m,2,0,Wirtschaftsinformatik,0,0,0,0,0,,
Stimulus,canvas.Screen,2_49_0_1,2022-07-04T16:58:53.530Z,,,0,V,100.16400000001886,timeout,,,240713.09999999963,240711656,240611492,240613.40000000037,240628169,240728333,,grey,AN02EC04,20,m,2,0,Wirtschaftsinformatik,0,0,0,0,0,,
Reaction,canvas.Screen,2_49_0_2,2022-07-04T16:58:53.729Z,,,0,V,182.2669999996142,response,stim_detected,mousedown,240912,240910.59999999963,240711656,240713.40000000037,240728333,240928474,,grey,AN02EC04,20,m,2,0,Wirtschaftsinformatik,0,0,0,0,0,,AV
Trial,flow.Sequence,2_49_0,2022-07-04T16:58:53.729Z,,,0,V,2100.234999999637,completion,,,240912.2999999998,240910.59999999963,238793688,238805.7999999998,238810365,240928474,,grey,AN02EC04,20,m,2,0,Wirtschaftsinformatik,0,0,0,0,0,,
Frame,canvas.Frame,2_49,2022-07-04T16:58:53.730Z,,,0,V,2102.035000000382,,,,240912.59999999963,240912.40000000037,238793688,238805,238810365,240928474,,grey,AN02EC04,20,m,2,0,Wirtschaftsinformatik,0,0,0,0,0,,
Fixation,canvas.Screen,2_50_0_0,2022-07-04T16:58:55.281Z,,,0,V,1550.9740000000165,timeout,,,242464.2999999998,242462771,240911797,240913.59999999963,240928474,242479448,,grey,AN02EC04,20,m,2,0,Wirtschaftsinformatik,0,0,0,0,0,,
Stimulus,canvas.Screen,2_50_0_1,2022-07-04T16:58:55.381Z,,,0,V,99.9659999999858,timeout,,,242564.2000000002,242562738,242462771,242464.5,242479448,242579414,,grey,AN02EC04,20,m,2,0,Wirtschaftsinformatik,0,0,0,0,0,,
Reaction,canvas.Screen,2_50_0_2,2022-07-04T16:58:55.589Z,,,0,V,191.18599999963772,response,stim_detected,mousedown,242772,242770.59999999963,242562738,242564.40000000037,242579414,242779691,,grey,AN02EC04,20,m,2,0,Wirtschaftsinformatik,0,0,0,0,0,,V
Trial,flow.Sequence,2_50_0,2022-07-04T16:58:55.590Z,,,0,V,1842.12599999964,completion,,,242772.40000000037,242770.59999999963,240911797,240913.5,240928474,242779691,,grey,AN02EC04,20,m,2,0,Wirtschaftsinformatik,0,0,0,0,0,,
Frame,canvas.Frame,2_50,2022-07-04T16:58:55.590Z,,,0,V,1844.0260000000126,,,,242772.59999999963,242772.5,240911797,240912.7999999998,240928474,242779691,,grey,AN02EC04,20,m,2,0,Wirtschaftsinformatik,0,0,0,0,0,,
Fixation,canvas.Screen,2_51_0_0,2022-07-04T16:58:57.666Z,,,0,V,2084.357000000018,timeout,,,244848.2999999998,244847373,242763014,242773.7000000002,242779691,244864048,,grey,AN02EC04,20,m,2,0,Wirtschaftsinformatik,0,0,0,0,0,,
Stimulus,canvas.Screen,2_51_0_1,2022-07-04T16:58:57.767Z,,,0,V,100.53599999999278,timeout,,,244949.2999999998,244947905,244847373,244848.5,244864048,244964584,,grey,AN02EC04,20,m,2,0,Wirtschaftsinformatik,0,0,0,0,0,,
Reaction,canvas.Screen,2_51_0_2,2022-07-04T16:58:57.907Z,,,0,V,123.91599999999744,response,stim_detected,mousedown,245090,245088.5,244947905,244949.59999999963,244964584,245097885,,grey,AN02EC04,20,m,2,0,Wirtschaftsinformatik,0,0,0,0,0,,V
Trial,flow.Sequence,2_51_0,2022-07-04T16:58:57.908Z,,,0,V,2308.8090000000084,completion,,,245090.40000000037,245088.5,242763014,242773.5,242779691,245097885,,grey,AN02EC04,20,m,2,0,Wirtschaftsinformatik,0,0,0,0,0,,
Frame,canvas.Frame,2_51,2022-07-04T16:58:57.908Z,,,0,V,2310.8090000000084,,,,245090.59999999963,245090.5,242763014,242772.90000000037,242779691,245097885,,grey,AN02EC04,20,m,2,0,Wirtschaftsinformatik,0,0,0,0,0,,
Fixation,canvas.Screen,2_52_0_0,2022-07-04T16:58:59.502Z,,,1,A,1601.8340000000026,timeout,,,246684.40000000037,246683034,245081208,245091.59999999963,245097885,246699719,,black,AN02EC04,20,m,2,0,Wirtschaftsinformatik,0,0,0,0,0,,
Stimulus,canvas.Screen,2_52_0_1,2022-07-04T16:58:59.601Z,,,1,A,99.3409999999858,timeout,,,246783.40000000037,246782266,246683034,246684.59999999963,246699719,246799.06,,black,AN02EC04,20,m,2,0,Wirtschaftsinformatik,0,0,0,0,0,,
Reaction,canvas.Screen,2_52_0_2,2022-07-04T16:58:59.962Z,,,1,A,344.4400000000023,response,stim_detected,mousedown,247144.90000000037,247143.5,246782266,246783.59999999963,246799.06,247149277,,black,AN02EC04,20,m,2,0,Wirtschaftsinformatik,0,0,0,0,0,,V
Trial,flow.Sequence,2_52_0,2022-07-04T16:58:59.963Z,,,1,A,2045.6149999999907,completion,,,247145.2999999998,247143.5,245081208,245091.5,245097885,247149277,,black,AN02EC04,20,m,2,0,Wirtschaftsinformatik,0,0,0,0,0,,
Frame,canvas.Frame,2_52,2022-07-04T16:58:59.963Z,,,1,A,2047.6149999999907,,,,247145.59999999963,247145.5,245081208,245090.7999999998,245097885,247149277,,black,AN02EC04,20,m,2,0,Wirtschaftsinformatik,0,0,0,0,0,,
Fixation,canvas.Screen,2_53_0_0,2022-07-04T16:59:01.686Z,,,1,AV,1734.4199999999837,timeout,,,248868.59999999963,248867.02,247132.6,247146.90000000037,247149277,248883697,,grey,AN02EC04,20,m,2,0,Wirtschaftsinformatik,0,0,0,0,0,,
Stimulus,canvas.Screen,2_53_0_1,2022-07-04T16:59:01.786Z,,,1,AV,100.39700000002631,timeout,,,248968.5,248967381,248867.02,248868.90000000037,248883697,248984094,,grey,AN02EC04,20,m,2,0,Wirtschaftsinformatik,0,0,0,0,0,,
Reaction,canvas.Screen,2_53_0_2,2022-07-04T16:59:01.946Z,,,1,AV,143.40599999998813,response,stim_detected,mousedown,249128.90000000037,249127.5,248967381,248968.7999999998,248984094,249133946,,grey,AN02EC04,20,m,2,0,Wirtschaftsinformatik,0,0,0,0,0,,A
Trial,flow.Sequence,2_53_0,2022-07-04T16:59:01.947Z,,,1,AV,1978.2229999999981,completion,,,249129.2999999998,249127.5,247132.6,247146.7999999998,247149277,249133946,,grey,AN02EC04,20,m,2,0,Wirtschaftsinformatik,0,0,0,0,0,,
Frame,canvas.Frame,2_53,2022-07-04T16:59:01.947Z,,,1,AV,1980.2229999999981,,,,249129.59999999963,249129.5,247132.6,247145.7999999998,247149277,249133946,,grey,AN02EC04,20,m,2,0,Wirtschaftsinformatik,0,0,0,0,0,,
Fixation,canvas.Screen,2_54_0_0,2022-07-04T16:59:03.654Z,,,0,V,1718.0869999999995,timeout,,,250836.7000000002,250835353,249117269,249130.7000000002,249133946,250852033,,grey,AN02EC04,20,m,2,0,Wirtschaftsinformatik,0,0,0,0,0,,
Stimulus,canvas.Screen,2_54_0_1,2022-07-04T16:59:03.754Z,,,0,V,99.63500000000931,timeout,,,250936.7000000002,250934992,250835353,250837,250852033,250951668,,grey,AN02EC04,20,m,2,0,Wirtschaftsinformatik,0,0,0,0,0,,
Reaction,canvas.Screen,2_54_0_2,2022-07-04T16:59:04.002Z,,,0,V,231.83199999999488,response,stim_detected,mousedown,251184.90000000037,251183.5,250934992,250936.90000000037,250951668,251201982,,grey,AN02EC04,20,m,2,0,Wirtschaftsinformatik,0,0,0,0,0,,AV
Trial,flow.Sequence,2_54_0,2022-07-04T16:59:04.003Z,,,0,V,2049.5540000000037,completion,,,251185.2999999998,251183.5,249117269,249130.59999999963,249133946,251201982,,grey,AN02EC04,20,m,2,0,Wirtschaftsinformatik,0,0,0,0,0,,
Frame,canvas.Frame,2_54,2022-07-04T16:59:04.003Z,,,0,V,2051.4540000003763,,,,251185.5,251185.40000000037,249117269,249129.7999999998,249133946,251201982,,grey,AN02EC04,20,m,2,0,Wirtschaftsinformatik,0,0,0,0,0,,
Fixation,canvas.Screen,2_55_0_0,2022-07-04T16:59:06.222Z,,,1,A,2218.4890000000014,timeout,,,253404.7999999998,253403791,251185305,251187.59999999963,251201982,253420471,,black,AN02EC04,20,m,2,0,Wirtschaftsinformatik,0,0,0,0,0,,
Stimulus,canvas.Screen,2_55_0_1,2022-07-04T16:59:06.322Z,,,1,A,99.6480000000156,timeout,,,253504.7000000002,253503442,253403791,253405,253420471,253520119,,black,AN02EC04,20,m,2,0,Wirtschaftsinformatik,0,0,0,0,0,,
Reaction,canvas.Screen,2_55_0_2,2022-07-04T16:59:06.484Z,,,1,A,145.28100000036648,response,stim_detected,mousedown,253667.09999999963,253665.40000000037,253503442,253505,253520119,253670.32,,black,AN02EC04,20,m,2,0,Wirtschaftsinformatik,0,0,0,0,0,,V
Trial,flow.Sequence,2_55_0,2022-07-04T16:59:06.485Z,,,1,A,2463.4180000003835,completion,,,253667.5,253665.40000000037,251185305,251187.5,251201982,253670.32,,black,AN02EC04,20,m,2,0,Wirtschaftsinformatik,0,0,0,0,0,,
Frame,canvas.Frame,2_55,2022-07-04T16:59:06.485Z,,,1,A,2465.6179999996384,,,,253667.7999999998,253667.59999999963,251185305,251185.7000000002,251201982,253670.32,,black,AN02EC04,20,m,2,0,Wirtschaftsinformatik,0,0,0,0,0,,
Fixation,canvas.Screen,2_56_0_0,2022-07-04T16:59:08.807Z,,,1,AV,2334.7919999999867,timeout,,,255990,255988435,253653643,253668.7999999998,253670.32,256005112,,grey,AN02EC04,20,m,2,0,Wirtschaftsinformatik,0,0,0,0,0,,
Stimulus,canvas.Screen,2_56_0_1,2022-07-04T16:59:08.907Z,,,1,AV,100.0010000000184,timeout,,,256090.09999999963,256088437,255988435,255990.2000000002,256005112,256105113,,grey,AN02EC04,20,m,2,0,Wirtschaftsinformatik,0,0,0,0,0,,
Reaction,canvas.Screen,2_56_0_2,2022-07-04T16:59:09.066Z,,,1,AV,141.48699999961536,response,stim_detected,mousedown,256248.2999999998,256246.59999999963,256088437,256090.40000000037,256105113,256255373,,grey,AN02EC04,20,m,2,0,Wirtschaftsinformatik,0,0,0,0,0,,A
Trial,flow.Sequence,2_56_0,2022-07-04T16:59:09.066Z,,,1,AV,2576.2799999996205,completion,,,256248.7000000002,256246.59999999963,253653643,253668.7000000002,253670.32,256255373,,grey,AN02EC04,20,m,2,0,Wirtschaftsinformatik,0,0,0,0,0,,
Frame,canvas.Frame,2_56,2022-07-04T16:59:09.066Z,,,1,AV,2578.4799999998068,,,,256248.90000000037,256248.7999999998,253653643,253668,253670.32,256255373,,grey,AN02EC04,20,m,2,0,Wirtschaftsinformatik,0,0,0,0,0,,
Fixation,canvas.Screen,2_57_0_0,2022-07-04T16:59:11.276Z,,,1,AV,2218.485000000015,timeout,,,258459,258457178,256238696,256250.09999999963,256255373,258473858,,grey,AN02EC04,20,m,2,0,Wirtschaftsinformatik,0,0,0,0,0,,
Stimulus,canvas.Screen,2_57_0_1,2022-07-04T16:59:11.375Z,,,1,AV,99.39299999998184,timeout,,,258558.09999999963,258556576,258457178,258459.2000000002,258473858,258573251,,grey,AN02EC04,20,m,2,0,Wirtschaftsinformatik,0,0,0,0,0,,
Reaction,canvas.Screen,2_57_0_2,2022-07-04T16:59:11.499Z,,,1,AV,106.94900000019697,response,stim_detected,mousedown,258681.7999999998,258680.2000000002,258556576,258558.2999999998,258573251,258690304,,grey,AN02EC04,20,m,2,0,Wirtschaftsinformatik,0,0,0,0,0,,AV
Trial,flow.Sequence,2_57_0,2022-07-04T16:59:11.499Z,,,1,AV,2424.827000000194,completion,,,258682.2000000002,258680.2000000002,256238696,256250,256255373,258690304,,grey,AN02EC04,20,m,2,0,Wirtschaftsinformatik,0,0,0,0,0,,
Frame,canvas.Frame,2_57,2022-07-04T16:59:11.500Z,,,1,AV,2426.9269999998214,,,,258682.5,258682.2999999998,256238696,256249.09999999963,256255373,258690304,,grey,AN02EC04,20,m,2,0,Wirtschaftsinformatik,0,0,0,0,0,,
Fixation,canvas.Screen,2_58_0_0,2022-07-04T16:59:13.344Z,,,0,V,1852.0860000000102,timeout,,,260527.2999999998,260525705,258673627,258683.5,258690304,260542.39,,grey,AN02EC04,20,m,2,0,Wirtschaftsinformatik,0,0,0,0,0,,
Stimulus,canvas.Screen,2_58_0_1,2022-07-04T16:59:13.442Z,,,0,V,98.33399999997346,timeout,,,260625.09999999963,260624054,260525705,260527.59999999963,260542.39,260640724,,grey,AN02EC04,20,m,2,0,Wirtschaftsinformatik,0,0,0,0,0,,
Reaction,canvas.Screen,2_58_0_2,2022-07-04T16:59:13.618Z,,,0,V,158.6760000003851,response,stim_detected,mousedown,260800.7999999998,260799.40000000037,260624054,260625.40000000037,260640724,260808417,,grey,AN02EC04,20,m,2,0,Wirtschaftsinformatik,0,0,0,0,0,,AV
Trial,flow.Sequence,2_58_0,2022-07-04T16:59:13.619Z,,,0,V,2109.096000000369,completion,,,260801.2000000002,260799.40000000037,258673627,258683.40000000037,258690304,260808417,,grey,AN02EC04,20,m,2,0,Wirtschaftsinformatik,0,0,0,0,0,,
Frame,canvas.Frame,2_58,2022-07-04T16:59:13.619Z,,,0,V,2111.096000000369,,,,260801.59999999963,260801.40000000037,258673627,258682.7000000002,258690304,260808417,,grey,AN02EC04,20,m,2,0,Wirtschaftsinformatik,0,0,0,0,0,,
Fixation,canvas.Screen,2_59_0_0,2022-07-04T16:59:15.427Z,,,1,A,1817.5570000000007,timeout,,,262610.2000000002,262609299,260791.74,260802.7000000002,260808417,262625974,,black,AN02EC04,20,m,2,0,Wirtschaftsinformatik,0,0,0,0,0,,
Stimulus,canvas.Screen,2_59_0_1,2022-07-04T16:59:15.528Z,,,1,A,100.45699999999488,timeout,,,262711.2000000002,262709753,262609299,262610.5,262625974,262726431,,black,AN02EC04,20,m,2,0,Wirtschaftsinformatik,0,0,0,0,0,,
Reaction,canvas.Screen,2_59_0_2,2022-07-04T16:59:15.677Z,,,1,A,131.86899999983143,response,stim_detected,mousedown,262859.7999999998,262858.2999999998,262709753,262711.4000000004,262726431,262876438,,black,AN02EC04,20,m,2,0,Wirtschaftsinformatik,0,0,0,0,0,,V
Trial,flow.Sequence,2_59_0,2022-07-04T16:59:15.677Z,,,1,A,2049.882999999827,completion,,,262860.2000000002,262858.2999999998,260791.74,260802.59999999963,260808417,262876438,,black,AN02EC04,20,m,2,0,Wirtschaftsinformatik,0,0,0,0,0,,
Frame,canvas.Frame,2_59,2022-07-04T16:59:15.678Z,,,1,A,2051.882999999827,,,,262860.5,262860.2999999998,260791.74,260801.90000000037,260808417,262876438,,black,AN02EC04,20,m,2,0,Wirtschaftsinformatik,0,0,0,0,0,,
Fixation,canvas.Screen,2_60_0_0,2022-07-04T16:59:17.231Z,,,1,AV,1551.7629999999772,timeout,,,264413.2999999998,264411516,262859761,262861.5,262876438,264428201,,grey,AN02EC04,20,m,2,0,Wirtschaftsinformatik,0,0,0,0,0,,
Stimulus,canvas.Screen,2_60_0_1,2022-07-04T16:59:17.329Z,,,1,AV,98.7609999999986,timeout,,,264511.2000000002,264510291,264411516,264413.5999999996,264428201,264526962,,grey,AN02EC04,20,m,2,0,Wirtschaftsinformatik,0,0,0,0,0,,
Reaction,canvas.Screen,2_60_0_2,2022-07-04T16:59:17.520Z,,,1,AV,174.3379999998142,response,stim_detected,mousedown,264702.7000000002,264701.2999999998,264510291,264511.5,264526962,264711044,,grey,AN02EC04,20,m,2,0,Wirtschaftsinformatik,0,0,0,0,0,,A
Trial,flow.Sequence,2_60_0,2022-07-04T16:59:17.520Z,,,1,AV,1824.86199999979,completion,,,264703.0999999996,264701.2999999998,262859761,262861.4000000004,262876438,264711044,,grey,AN02EC04,20,m,2,0,Wirtschaftsinformatik,0,0,0,0,0,,
Frame,canvas.Frame,2_60,2022-07-04T16:59:17.521Z,,,1,AV,1826.7620000001625,,,,264703.4000000004,264703.2000000002,262859761,262860.5999999996,262876438,264711044,,grey,AN02EC04,20,m,2,0,Wirtschaftsinformatik,0,0,0,0,0,,
Fixation,canvas.Screen,2_61_0_0,2022-07-04T16:59:19.598Z,,,0,V,2084.755999999994,timeout,,,266780.2999999998,266779122,264694366,264704.2999999998,264711044,266795.8,,grey,AN02EC04,20,m,2,0,Wirtschaftsinformatik,0,0,0,0,0,,
Stimulus,canvas.Screen,2_61_0_1,2022-07-04T16:59:19.698Z,,,0,V,100.05400000000373,timeout,,,266880.4000000004,266879177,266779122,266780.5999999996,266795.8,266895854,,grey,AN02EC04,20,m,2,0,Wirtschaftsinformatik,0,0,0,0,0,,
Reaction,canvas.Screen,2_61_0_2,2022-07-04T16:59:19.825Z,,,0,V,110.44599999982165,response,stim_detected,mousedown,267007.7000000002,267006.2999999998,266879177,266880.5999999996,266895854,267012545,,grey,AN02EC04,20,m,2,0,Wirtschaftsinformatik,0,0,0,0,0,,AV
Trial,flow.Sequence,2_61_0,2022-07-04T16:59:19.825Z,,,0,V,2295.2559999998193,completion,,,267008.0999999996,267006.2999999998,264694366,264704.2999999998,264711044,267012545,,grey,AN02EC04,20,m,2,0,Wirtschaftsinformatik,0,0,0,0,0,,
Frame,canvas.Frame,2_61,2022-07-04T16:59:19.826Z,,,0,V,2297.156000000192,,,,267008.4000000004,267008.2000000002,264694366,264703.5,264711044,267012545,,grey,AN02EC04,20,m,2,0,Wirtschaftsinformatik,0,0,0,0,0,,
Fixation,canvas.Screen,2_62_0_0,2022-07-04T16:59:21.332Z,,,0,V,1517.3070000000298,timeout,,,268514.5,268513178,266995868,267009.4000000004,267012545,268529852,,grey,AN02EC04,20,m,2,0,Wirtschaftsinformatik,0,0,0,0,0,,
Stimulus,canvas.Screen,2_62_0_1,2022-07-04T16:59:21.432Z,,,0,V,100.39899999997579,timeout,,,268614.5,268613574,268513178,268514.5999999996,268529852,268630251,,grey,AN02EC04,20,m,2,0,Wirtschaftsinformatik,0,0,0,0,0,,
Reaction,canvas.Screen,2_62_0_2,2022-07-04T16:59:21.570Z,,,0,V,121.04899999982445,response,stim_detected,mousedown,268752.7000000002,268751.2999999998,268613574,268614.7000000002,268630251,268763784,,grey,AN02EC04,20,m,2,0,Wirtschaftsinformatik,0,0,0,0,0,,V
Trial,flow.Sequence,2_62_0,2022-07-04T16:59:21.570Z,,,0,V,1738.75499999983,completion,,,268753.0999999996,268751.2999999998,266995868,267009.2999999998,267012545,268763784,,grey,AN02EC04,20,m,2,0,Wirtschaftsinformatik,0,0,0,0,0,,
Frame,canvas.Frame,2_62,2022-07-04T16:59:21.571Z,,,0,V,1740.6550000002026,,,,268753.4000000004,268753.2000000002,266995868,267008.5,267012545,268763784,,grey,AN02EC04,20,m,2,0,Wirtschaftsinformatik,0,0,0,0,0,,
Fixation,canvas.Screen,2_63_0_0,2022-07-04T16:59:23.450Z,,,0,V,1883.7509999999893,timeout,,,270632.5999999996,270630864,268747106,268754.4000000004,268763784,270647535,,grey,AN02EC04,20,m,2,0,Wirtschaftsinformatik,0,0,0,0,0,,
Stimulus,canvas.Screen,2_63_0_1,2022-07-04T16:59:23.550Z,,,0,V,100.7280000000028,timeout,,,270732.5999999996,270731587,270630864,270632.7999999998,270647535,270748263,,grey,AN02EC04,20,m,2,0,Wirtschaftsinformatik,0,0,0,0,0,,
Reaction,canvas.Screen,2_63_0_2,2022-07-04T16:59:23.684Z,,,0,V,116.93700000020908,response,stim_detected,mousedown,270866.5999999996,270865.2000000002,270731587,270732.9000000004,270748263,270881832,,grey,AN02EC04,20,m,2,0,Wirtschaftsinformatik,0,0,0,0,0,,V
Trial,flow.Sequence,2_63_0,2022-07-04T16:59:23.684Z,,,0,V,2101.416000000201,completion,,,270867.2000000002,270865.2000000002,268747106,268754.2999999998,268763784,270881832,,grey,AN02EC04,20,m,2,0,Wirtschaftsinformatik,0,0,0,0,0,,
Frame,canvas.Frame,2_63,2022-07-04T16:59:23.685Z,,,0,V,2103.6160000003874,,,,270867.5,270867.4000000004,268747106,268753.5,268763784,270881832,,grey,AN02EC04,20,m,2,0,Wirtschaftsinformatik,0,0,0,0,0,,
Fixation,canvas.Screen,2_64_0_0,2022-07-04T16:59:25.702Z,,,1,A,2017.9210000000312,timeout,,,272884.7999999998,272883076,270865155,270868.5,270881832,272899753,,black,AN02EC04,20,m,2,0,Wirtschaftsinformatik,0,0,0,0,0,,
Stimulus,canvas.Screen,2_64_0_1,2022-07-04T16:59:25.801Z,,,1,A,99.49399999994785,timeout,,,272983.5999999996,272982575,272883076,272885.0999999996,272899753,272999247,,black,AN02EC04,20,m,2,0,Wirtschaftsinformatik,0,0,0,0,0,,
Reaction,canvas.Screen,2_64_0_2,2022-07-04T16:59:26.016Z,,,1,A,197.95300000021234,response,stim_detected,mousedown,273198.5999999996,273197.2000000002,272982575,272983.9000000004,272999247,273200041,,black,AN02EC04,20,m,2,0,Wirtschaftsinformatik,0,0,0,0,0,,V
Trial,flow.Sequence,2_64_0,2022-07-04T16:59:26.016Z,,,1,A,2315.3680000001914,completion,,,273199.0999999996,273197.2000000002,270865155,270868.5,270881832,273200041,,black,AN02EC04,20,m,2,0,Wirtschaftsinformatik,0,0,0,0,0,,
Frame,canvas.Frame,2_64,2022-07-04T16:59:26.017Z,,,1,A,2317.3680000001914,,,,273199.4000000004,273199.2000000002,270865155,270867.7000000002,270881832,273200041,,black,AN02EC04,20,m,2,0,Wirtschaftsinformatik,0,0,0,0,0,,
Fixation,canvas.Screen,2_65_0_0,2022-07-04T16:59:28.103Z,,,0,V,2100875,timeout,,,275285.7999999998,275284242,273183364,273200.5999999996,273200041,275300916,,grey,AN02EC04,20,m,2,0,Wirtschaftsinformatik,0,0,0,0,0,,
Stimulus,canvas.Screen,2_65_0_1,2022-07-04T16:59:28.203Z,,,0,V,100.61799999995856,timeout,,,275385.7999999998,275384856,275284242,275286,275300916,275401534,,grey,AN02EC04,20,m,2,0,Wirtschaftsinformatik,0,0,0,0,0,,
Reaction,canvas.Screen,2_65_0_2,2022-07-04T16:59:28.362Z,,,0,V,141.66600000020117,response,stim_detected,mousedown,275544.5999999996,275543.2000000002,275384856,275386,275401534,275551616,,grey,AN02EC04,20,m,2,0,Wirtschaftsinformatik,0,0,0,0,0,,A
Trial,flow.Sequence,2_65_0,2022-07-04T16:59:28.362Z,,,0,V,2343.1590000001597,completion,,,275545,275543.2000000002,273183364,273200.5,273200041,275551616,,grey,AN02EC04,20,m,2,0,Wirtschaftsinformatik,0,0,0,0,0,,
Frame,canvas.Frame,2_65,2022-07-04T16:59:28.363Z,,,0,V,2345.058999999601,,,,275545.2999999998,275545.0999999996,273183364,273199.5999999996,273200041,275551616,,grey,AN02EC04,20,m,2,0,Wirtschaftsinformatik,0,0,0,0,0,,
Fixation,canvas.Screen,2_66_0_0,2022-07-04T16:59:30.171Z,,,1,A,1817.798999999999,timeout,,,277353.7999999998,277352738,275534939,275546.5,275551616,277369415,,black,AN02EC04,20,m,2,0,Wirtschaftsinformatik,0,0,0,0,0,,
Stimulus,canvas.Screen,2_66_0_1,2022-07-04T16:59:30.271Z,,,1,A,100.11800000001676,timeout,,,277453.7999999998,277452856,277352738,277354.0999999996,277369415,277469533,,black,AN02EC04,20,m,2,0,Wirtschaftsinformatik,0,0,0,0,0,,
Reaction,canvas.Screen,2_66_0_2,2022-07-04T16:59:30.441Z,,,1,A,152.66700000019046,response,stim_detected,mousedown,277623.5999999996,277622.2000000002,277452856,277454,277469533,277636338,,black,AN02EC04,20,m,2,0,Wirtschaftsinformatik,0,0,0,0,0,,V
Trial,flow.Sequence,2_66_0,2022-07-04T16:59:30.441Z,,,1,A,2070.5840000002063,completion,,,277624,277622.2000000002,275534939,275546.4000000004,275551616,277636338,,black,AN02EC04,20,m,2,0,Wirtschaftsinformatik,0,0,0,0,0,,
Frame,canvas.Frame,2_66,2022-07-04T16:59:30.442Z,,,1,A,2072.5840000002063,,,,277624.2999999998,277624.2000000002,275534939,275545.5,275551616,277636338,,black,AN02EC04,20,m,2,0,Wirtschaftsinformatik,0,0,0,0,0,,
Fixation,canvas.Screen,2_67_0_0,2022-07-04T16:59:32.055Z,,,1,A,1617.2280000000028,timeout,,,279237.9000000004,279236893,277619661,277625.2999999998,277636338,279253566,,black,AN02EC04,20,m,2,0,Wirtschaftsinformatik,0,0,0,0,0,,
Stimulus,canvas.Screen,2_67_0_1,2022-07-04T16:59:32.156Z,,,1,A,100.44500000000698,timeout,,,279339,279337335,279236893,279238.2000000002,279253566,279354011,,black,AN02EC04,20,m,2,0,Wirtschaftsinformatik,0,0,0,0,0,,
Reaction,canvas.Screen,2_67_0_2,2022-07-04T16:59:32.319Z,,,1,A,146.18900000018766,response,stim_detected,mousedown,279501.5999999996,279500.2000000002,279337335,279339.2000000002,279354011,279520.89,,black,AN02EC04,20,m,2,0,Wirtschaftsinformatik,0,0,0,0,0,,A
Trial,flow.Sequence,2_67_0,2022-07-04T16:59:32.319Z,,,1,A,1863.8620000001974,completion,,,279502,279500.2000000002,277619661,277625.2999999998,277636338,279520.89,,black,AN02EC04,20,m,2,0,Wirtschaftsinformatik,0,0,0,0,0,,
Frame,canvas.Frame,2_67,2022-07-04T16:59:32.320Z,,,1,A,1865.7619999996386,,,,279502.2999999998,279502.0999999996,277619661,277624.5,277636338,279520.89,,black,AN02EC04,20,m,2,0,Wirtschaftsinformatik,0,0,0,0,0,,
Fixation,canvas.Screen,2_68_0_0,2022-07-04T16:59:34.358Z,,,1,A,2036.0109999999986,timeout,,,281541.0999999996,281540213,279487536,279503.4000000004,279520.89,281556901,,black,AN02EC04,20,m,2,0,Wirtschaftsinformatik,0,0,0,0,0,,
Stimulus,canvas.Screen,2_68_0_1,2022-07-04T16:59:34.457Z,,,1,A,98.59599999996135,timeout,,,281640,281638821,281540213,281541.5,281556901,281655497,,black,AN02EC04,20,m,2,0,Wirtschaftsinformatik,0,0,0,0,0,,
Reaction,canvas.Screen,2_68_0_2,2022-07-04T16:59:34.565Z,,,1,A,90.70300000021234,response,stim_detected,mousedown,281747.7000000002,281746.2000000002,281638821,281640.2999999998,281655497,281755762,,black,AN02EC04,20,m,2,0,Wirtschaftsinformatik,0,0,0,0,0,,A
Trial,flow.Sequence,2_68_0,2022-07-04T16:59:34.565Z,,,1,A,2225.3100000001723,completion,,,281748.2000000002,281746.2000000002,279487536,279503.2999999998,279520.89,281755762,,black,AN02EC04,20,m,2,0,Wirtschaftsinformatik,0,0,0,0,0,,
Frame,canvas.Frame,2_68,2022-07-04T16:59:34.566Z,,,1,A,2227.4099999997998,,,,281748.5,281748.2999999998,279487536,279502.5,279520.89,281755762,,black,AN02EC04,20,m,2,0,Wirtschaftsinformatik,0,0,0,0,0,,
Fixation,canvas.Screen,2_69_0_0,2022-07-04T16:59:36.341Z,,,0,V,1784.2069999999949,timeout,,,283524.2000000002,283523294,281739085,281749.5,281755762,283539969,,grey,AN02EC04,20,m,2,0,Wirtschaftsinformatik,0,0,0,0,0,,
Stimulus,canvas.Screen,2_69_0_1,2022-07-04T16:59:36.441Z,,,0,V,99.98999999999069,timeout,,,283624.2000000002,283623285,283523294,283524.5,283539969,283639959,,grey,AN02EC04,20,m,2,0,Wirtschaftsinformatik,0,0,0,0,0,,
Reaction,canvas.Screen,2_69_0_2,2022-07-04T16:59:36.620Z,,,0,V,161.140999999654,response,stim_detected,mousedown,283802.5999999996,283801.0999999996,283623285,283624.4000000004,283639959,283807093,,grey,AN02EC04,20,m,2,0,Wirtschaftsinformatik,0,0,0,0,0,,A
Trial,flow.Sequence,2_69_0,2022-07-04T16:59:36.620Z,,,0,V,2045.3379999996396,completion,,,283802.9000000004,283801.0999999996,281739085,281749.5,281755762,283807093,,grey,AN02EC04,20,m,2,0,Wirtschaftsinformatik,0,0,0,0,0,,
Frame,canvas.Frame,2_69,2022-07-04T16:59:36.621Z,,,0,V,2047.3379999996396,,,,283803.2999999998,283803.0999999996,281739085,281748.7000000002,281755762,283807093,,grey,AN02EC04,20,m,2,0,Wirtschaftsinformatik,0,0,0,0,0,,
Fixation,canvas.Screen,2_70_0_0,2022-07-04T16:59:38.728Z,,,1,A,2119.0449999999837,timeout,,,285910.2999999998,285909453,283790416,283804.2999999998,283807093,285926138,,black,AN02EC04,20,m,2,0,Wirtschaftsinformatik,0,0,0,0,0,,
Stimulus,canvas.Screen,2_70_0_1,2022-07-04T16:59:38.828Z,,,1,A,99.10700000001816,timeout,,,286010.2999999998,286008568,285909453,285910.5,285926138,286025245,,black,AN02EC04,20,m,2,0,Wirtschaftsinformatik,0,0,0,0,0,,
Reaction,canvas.Screen,2_70_0_2,2022-07-04T16:59:38.977Z,,,1,A,132.85499999963213,response,stim_detected,mousedown,286159.5999999996,286158.0999999996,286008568,286010.5999999996,286025245,286175382,,black,AN02EC04,20,m,2,0,Wirtschaftsinformatik,0,0,0,0,0,,V
Trial,flow.Sequence,2_70_0,2022-07-04T16:59:38.977Z,,,1,A,2351.006999999634,completion,,,286159.9000000004,286158.0999999996,283790416,283804.2000000002,283807093,286175382,,black,AN02EC04,20,m,2,0,Wirtschaftsinformatik,0,0,0,0,0,,
Frame,canvas.Frame,2_70,2022-07-04T16:59:38.978Z,,,1,A,2353.006999999634,,,,286160.2999999998,286160.0999999996,283790416,283803.5,283807093,286175382,,black,AN02EC04,20,m,2,0,Wirtschaftsinformatik,0,0,0,0,0,,
Fixation,canvas.Screen,2_71_0_0,2022-07-04T16:59:41.363Z,,,0,V,2384.9710000000196,timeout,,,288545.5,288543675,286158705,286161.4000000004,286175382,288560353,,grey,AN02EC04,20,m,2,0,Wirtschaftsinformatik,0,0,0,0,0,,
Stimulus,canvas.Screen,2_71_0_1,2022-07-04T16:59:41.462Z,,,0,V,99.78600000002189,timeout,,,288644.5,288643463,288543675,288546,288560353,288660139,,grey,AN02EC04,20,m,2,0,Wirtschaftsinformatik,0,0,0,0,0,,
Reaction,canvas.Screen,2_71_0_2,2022-07-04T16:59:41.607Z,,,0,V,127.86099999997532,response,stim_detected,mousedown,288789.5,288788,288643463,288644.7999999998,288660139,288793.79,,grey,AN02EC04,20,m,2,0,Wirtschaftsinformatik,0,0,0,0,0,,A
Trial,flow.Sequence,2_71_0,2022-07-04T16:59:41.607Z,,,0,V,2612.6180000000168,completion,,,288789.9000000004,288788,286158705,286161.2000000002,286175382,288793.79,,grey,AN02EC04,20,m,2,0,Wirtschaftsinformatik,0,0,0,0,0,,
Frame,canvas.Frame,2_71,2022-07-04T16:59:41.607Z,,,0,V,2614.6180000000168,,,,288790.2000000002,288790,286158705,286160.5,286175382,288793.79,,grey,AN02EC04,20,m,2,0,Wirtschaftsinformatik,0,0,0,0,0,,
Fixation,canvas.Screen,2_72_0_0,2022-07-04T16:59:43.447Z,,,1,A,1851.4020000000019,timeout,,,290629.5999999996,290628513,288777113,288791.0999999996,288793.79,290645192,,black,AN02EC04,20,m,2,0,Wirtschaftsinformatik,0,0,0,0,0,,
Stimulus,canvas.Screen,2_72_0_1,2022-07-04T16:59:43.547Z,,,1,A,99.97000000003027,timeout,,,290729.5,290728484,290628513,290629.7999999998,290645192,290745162,,black,AN02EC04,20,m,2,0,Wirtschaftsinformatik,0,0,0,0,0,,
Reaction,canvas.Screen,2_72_0_2,2022-07-04T16:59:43.874Z,,,1,A,309.9379999996163,response,stim_detected,mousedown,291056.7000000002,291055.0999999996,290728484,290729.7999999998,290745162,291061975,,black,AN02EC04,20,m,2,0,Wirtschaftsinformatik,0,0,0,0,0,,V
Trial,flow.Sequence,2_72_0,2022-07-04T16:59:43.874Z,,,1,A,2261.3099999996484,completion,,,291057.0999999996,291055.0999999996,288777113,288791.0999999996,288793.79,291061975,,black,AN02EC04,20,m,2,0,Wirtschaftsinformatik,0,0,0,0,0,,
Frame,canvas.Frame,2_72,2022-07-04T16:59:43.875Z,,,1,A,2263.5099999998347,,,,291057.5,291057.2999999998,288777113,288790.2999999998,288793.79,291061975,,black,AN02EC04,20,m,2,0,Wirtschaftsinformatik,0,0,0,0,0,,
Fixation,canvas.Screen,2_73_0_0,2022-07-04T16:59:45.865Z,,,0,V,2000.5329999999958,timeout,,,293047.5,293045836,291045298,291058.7000000002,291061975,293062508,,grey,AN02EC04,20,m,2,0,Wirtschaftsinformatik,0,0,0,0,0,,
Stimulus,canvas.Screen,2_73_0_1,2022-07-04T16:59:45.965Z,,,0,V,100.89700000005541,timeout,,,293147.7999999998,293146727,293045836,293047.7999999998,293062508,293163405,,grey,AN02EC04,20,m,2,0,Wirtschaftsinformatik,0,0,0,0,0,,
Reaction,canvas.Screen,2_73_0_2,2022-07-04T16:59:46.132Z,,,0,V,149.59499999997206,response,stim_detected,mousedown,293314.5999999996,293313,293146727,293148,293163405,293330166,,grey,AN02EC04,20,m,2,0,Wirtschaftsinformatik,0,0,0,0,0,,A
Trial,flow.Sequence,2_73_0,2022-07-04T16:59:46.132Z,,,0,V,2251.0250000000233,completion,,,293315,293313,291045298,291058.5,291061975,293330166,,grey,AN02EC04,20,m,2,0,Wirtschaftsinformatik,0,0,0,0,0,,
Frame,canvas.Frame,2_73,2022-07-04T16:59:46.133Z,,,0,V,2253.2250000002095,,,,293315.4000000004,293315.2000000002,291045298,291057.7000000002,291061975,293330166,,grey,AN02EC04,20,m,2,0,Wirtschaftsinformatik,0,0,0,0,0,,
Fixation,canvas.Screen,2_74_0_0,2022-07-04T16:59:48.000Z,,,0,V,1867.9459999999963,timeout,,,295182.7999999998,295181434,293313489,293316.7999999998,293330166,295198112,,grey,AN02EC04,20,m,2,0,Wirtschaftsinformatik,0,0,0,0,0,,
Stimulus,canvas.Screen,2_74_0_1,2022-07-04T16:59:48.100Z,,,0,V,99.89999999996508,timeout,,,295282.7999999998,295281336,295181434,295183.2000000002,295198112,295298012,,grey,AN02EC04,20,m,2,0,Wirtschaftsinformatik,0,0,0,0,0,,
Reaction,canvas.Screen,2_74_0_2,2022-07-04T16:59:48.255Z,,,0,V,138.08799999963958,response,stim_detected,mousedown,295437.7000000002,295436.0999999996,295281336,295283,295298012,295448.26,,grey,AN02EC04,20,m,2,0,Wirtschaftsinformatik,0,0,0,0,0,,V
Trial,flow.Sequence,2_74_0,2022-07-04T16:59:48.255Z,,,0,V,2105.933999999601,completion,,,295438.0999999996,295436.0999999996,293313489,293316.7000000002,293330166,295448.26,,grey,AN02EC04,20,m,2,0,Wirtschaftsinformatik,0,0,0,0,0,,
Frame,canvas.Frame,2_74,2022-07-04T16:59:48.256Z,,,0,V,2108.0340000001597,,,,295438.5,295438.2000000002,293313489,293315.7000000002,293330166,295448.26,,grey,AN02EC04,20,m,2,0,Wirtschaftsinformatik,0,0,0,0,0,,
Fixation,canvas.Screen,2_75_0_0,2022-07-04T16:59:50.685Z,,,0,V,2435.304999999993,timeout,,,297867.7999999998,297866885,295431583,295439.5,295448.26,297883565,,grey,AN02EC04,20,m,2,0,Wirtschaftsinformatik,0,0,0,0,0,,
Stimulus,canvas.Screen,2_75_0_1,2022-07-04T16:59:50.785Z,,,0,V,99.4199999999837,timeout,,,297967.7999999998,297966.31,297866885,297868.0999999996,297883565,297982985,,grey,AN02EC04,20,m,2,0,Wirtschaftsinformatik,0,0,0,0,0,,
Reaction,canvas.Screen,2_75_0_2,2022-07-04T16:59:50.924Z,,,0,V,122.01500000001397,response,stim_detected,mousedown,298106.5999999996,298105,297966.31,297968.0999999996,297982985,298116653,,grey,AN02EC04,20,m,2,0,Wirtschaftsinformatik,0,0,0,0,0,,V
Trial,flow.Sequence,2_75_0,2022-07-04T16:59:50.924Z,,,0,V,2656.7399999999907,completion,,,298107.0999999996,298105,295431583,295439.4000000004,295448.26,298116653,,grey,AN02EC04,20,m,2,0,Wirtschaftsinformatik,0,0,0,0,0,,
Frame,canvas.Frame,2_75,2022-07-04T16:59:50.925Z,,,0,V,2658.940000000177,,,,298107.5,298107.2000000002,295431583,295438.5999999996,295448.26,298116653,,grey,AN02EC04,20,m,2,0,Wirtschaftsinformatik,0,0,0,0,0,,
Fixation,canvas.Screen,2_76_0_0,2022-07-04T16:59:52.721Z,,,1,A,1802.8369999999995,timeout,,,299904,299902798,298099976,298108.5,298116653,299919.49,,black,AN02EC04,20,m,2,0,Wirtschaftsinformatik,0,0,0,0,0,,
Stimulus,canvas.Screen,2_76_0_1,2022-07-04T16:59:52.819Z,,,1,A,97.8059999999823,timeout,,,300001.9000000004,300000625,299902798,299904.2999999998,299919.49,300017296,,black,AN02EC04,20,m,2,0,Wirtschaftsinformatik,0,0,0,0,0,,
Reaction,canvas.Screen,2_76_0_2,2022-07-04T16:59:52.980Z,,,1,A,143.704000000027,response,stim_detected,mousedown,300162.5,300161,300000625,300002.2000000002,300017296,300168039,,black,AN02EC04,20,m,2,0,Wirtschaftsinformatik,0,0,0,0,0,,V
Trial,flow.Sequence,2_76_0,2022-07-04T16:59:52.980Z,,,1,A,2044.3470000000088,completion,,,300162.7999999998,300161,298099976,298108.4000000004,298116653,300168039,,black,AN02EC04,20,m,2,0,Wirtschaftsinformatik,0,0,0,0,0,,
Frame,canvas.Frame,2_76,2022-07-04T16:59:52.980Z,,,1,A,2046.4469999996363,,,,300163.2000000002,300163.0999999996,298099976,298107.7000000002,298116653,300168039,,black,AN02EC04,20,m,2,0,Wirtschaftsinformatik,0,0,0,0,0,,
Fixation,canvas.Screen,2_77_0_0,2022-07-04T16:59:55.406Z,,,1,A,2435.4890000000014,timeout,,,302588.2999999998,302586847,300151362,300164.2000000002,300168039,302603528,,black,AN02EC04,20,m,2,0,Wirtschaftsinformatik,0,0,0,0,0,,
Stimulus,canvas.Screen,2_77_0_1,2022-07-04T16:59:55.506Z,,,1,A,99.62300000002142,timeout,,,302688.2000000002,302686471,302586847,302588.5999999996,302603528,302703151,,black,AN02EC04,20,m,2,0,Wirtschaftsinformatik,0,0,0,0,0,,
Reaction,canvas.Screen,2_77_0_2,2022-07-04T16:59:55.692Z,,,1,A,168.84899999998743,response,stim_detected,mousedown,302873.5,302872,302686471,302688.5999999996,302703151,302886539,,black,AN02EC04,20,m,2,0,Wirtschaftsinformatik,0,0,0,0,0,,A
Trial,flow.Sequence,2_77_0,2022-07-04T16:59:55.692Z,,,1,A,2703.9610000000102,completion,,,302873.9000000004,302872,300151362,300164.0999999996,300168039,302886539,,black,AN02EC04,20,m,2,0,Wirtschaftsinformatik,0,0,0,0,0,,
Frame,canvas.Frame,2_77,2022-07-04T16:59:55.693Z,,,1,A,2706.0609999996377,,,,302874.2999999998,302874.0999999996,300151362,300163.4000000004,300168039,302886539,,black,AN02EC04,20,m,2,0,Wirtschaftsinformatik,0,0,0,0,0,,
Fixation,canvas.Screen,2_78_0_0,2022-07-04T16:59:57.424Z,,,1,A,1734.771000000008,timeout,,,304606.2000000002,304604.63,302869862,302875.4000000004,302886539,304621.31,,black,AN02EC04,20,m,2,0,Wirtschaftsinformatik,0,0,0,0,0,,
Stimulus,canvas.Screen,2_78_0_1,2022-07-04T16:59:57.525Z,,,1,A,99.82400000002235,timeout,,,304706.2999999998,304704457,304604.63,304607,304621.31,304721134,,black,AN02EC04,20,m,2,0,Wirtschaftsinformatik,0,0,0,0,0,,
Reaction,canvas.Screen,2_78_0_2,2022-07-04T16:59:57.763Z,,,1,A,221.86599999997998,response,stim_detected,mousedown,304944.5,304943,304704457,304706.7000000002,304721134,304954577,,black,AN02EC04,20,m,2,0,Wirtschaftsinformatik,0,0,0,0,0,,A
Trial,flow.Sequence,2_78_0,2022-07-04T16:59:57.763Z,,,1,A,2056.4610000000102,completion,,,304944.9000000004,304943,302869862,302875.2999999998,302886539,304954577,,black,AN02EC04,20,m,2,0,Wirtschaftsinformatik,0,0,0,0,0,,
Frame,canvas.Frame,2_78,2022-07-04T16:59:57.763Z,,,1,A,2058.4610000000102,,,,304945.2000000002,304945,302869862,302874.5,302886539,304954577,,black,AN02EC04,20,m,2,0,Wirtschaftsinformatik,0,0,0,0,0,,
Fixation,canvas.Screen,2_79_0_0,2022-07-04T16:59:59.308Z,,,1,AV,1551.4820000000182,timeout,,,306490.2999999998,306489377,304937.9,304946.5,304954577,306506059,,grey,AN02EC04,20,m,2,0,Wirtschaftsinformatik,0,0,0,0,0,,
Stimulus,canvas.Screen,2_79_0_1,2022-07-04T16:59:59.408Z,,,1,AV,99.62299999996321,timeout,,,306590.2999999998,306589005,306489377,306490.5,306506059,306605682,,grey,AN02EC04,20,m,2,0,Wirtschaftsinformatik,0,0,0,0,0,,
Reaction,canvas.Screen,2_79_0_2,2022-07-04T16:59:59.532Z,,,1,AV,106.21800000040093,response,stim_detected,mousedown,306713.4000000004,306711.9000000004,306589005,306590.5,306605682,306739139,,grey,AN02EC04,20,m,2,0,Wirtschaftsinformatik,0,0,0,0,0,,A
Trial,flow.Sequence,2_79_0,2022-07-04T16:59:59.532Z,,,1,AV,1757.3230000003823,completion,,,306713.7999999998,306711.9000000004,304937.9,304946.2999999998,304954577,306739139,,grey,AN02EC04,20,m,2,0,Wirtschaftsinformatik,0,0,0,0,0,,
Frame,canvas.Frame,2_79,2022-07-04T16:59:59.532Z,,,1,AV,1759.3230000003823,,,,306714.0999999996,306713.9000000004,304937.9,304945.5,304954577,306739139,,grey,AN02EC04,20,m,2,0,Wirtschaftsinformatik,0,0,0,0,0,,
Fixation,canvas.Screen,2_80_0_0,2022-07-04T17:00:01.144Z,,,1,A,1601.4329999999609,timeout,,,308325.4000000004,308323891,306705785,306715.0999999996,306739139,308340572,,black,AN02EC04,20,m,2,0,Wirtschaftsinformatik,0,0,0,0,0,,
Stimulus,canvas.Screen,2_80_0_1,2022-07-04T17:00:01.244Z,,,1,A,99.71000000002095,timeout,,,308425.4000000004,308423605,308323891,308325.7999999998,308340572,308440282,,black,AN02EC04,20,m,2,0,Wirtschaftsinformatik,0,0,0,0,0,,
Reaction,canvas.Screen,2_80_0_2,2022-07-04T17:00:01.412Z,,,1,A,151.618000000366,response,stim_detected,mousedown,308593.4000000004,308591.9000000004,308423605,308425.5999999996,308440282,308606967,,black,AN02EC04,20,m,2,0,Wirtschaftsinformatik,0,0,0,0,0,,AV
Trial,flow.Sequence,2_80_0,2022-07-04T17:00:01.412Z,,,1,A,1852.7610000003478,completion,,,308593.7999999998,308591.9000000004,306705785,306715,306739139,308606967,,black,AN02EC04,20,m,2,0,Wirtschaftsinformatik,0,0,0,0,0,,
Frame,canvas.Frame,2_80,2022-07-04T17:00:01.412Z,,,1,A,1854.7610000003478,,,,308594.2000000002,308593.9000000004,306705785,306714.2999999998,306739139,308606967,,black,AN02EC04,20,m,2,0,Wirtschaftsinformatik,0,0,0,0,0,,
Fixation,canvas.Screen,2_81_0_0,2022-07-04T17:00:03.629Z,,,1,AV,2218.689000000013,timeout,,,310810.5,310808975,308590294,308595.2999999998,308606967,310825656,,grey,AN02EC04,20,m,2,0,Wirtschaftsinformatik,0,0,0,0,0,,
Stimulus,canvas.Screen,2_81_0_1,2022-07-04T17:00:03.729Z,,,1,AV,99.67900000000373,timeout,,,310910.5999999996,310908657,310808975,310810.7000000002,310825656,310925335,,grey,AN02EC04,20,m,2,0,Wirtschaftsinformatik,0,0,0,0,0,,
Reaction,canvas.Screen,2_81_0_2,2022-07-04T17:00:03.879Z,,,1,AV,133.56500000035157,response,stim_detected,mousedown,311060.2999999998,311058.9000000004,310908657,310910.7999999998,310925335,311075376,,grey,AN02EC04,20,m,2,0,Wirtschaftsinformatik,0,0,0,0,0,,A
Trial,flow.Sequence,2_81_0,2022-07-04T17:00:03.879Z,,,1,AV,2451.9330000003683,completion,,,311060.7999999998,311058.9000000004,308590294,308595.2000000002,308606967,311075376,,grey,AN02EC04,20,m,2,0,Wirtschaftsinformatik,0,0,0,0,0,,
Frame,canvas.Frame,2_81,2022-07-04T17:00:03.879Z,,,1,AV,2454.032999999996,,,,311061.0999999996,311061,308590294,308594.4000000004,308606967,311075376,,grey,AN02EC04,20,m,2,0,Wirtschaftsinformatik,0,0,0,0,0,,
Fixation,canvas.Screen,2_82_0_0,2022-07-04T17:00:05.579Z,,,1,AV,1700.7210000000196,timeout,,,312760.5999999996,312759423,311058699,311062.0999999996,311075376,312776097,,grey,AN02EC04,20,m,2,0,Wirtschaftsinformatik,0,0,0,0,0,,
Stimulus,canvas.Screen,2_82_0_1,2022-07-04T17:00:05.680Z,,,1,AV,100.44199999998091,timeout,,,312861.5,312859815,312759423,312760.9000000004,312776097,312876539,,grey,AN02EC04,20,m,2,0,Wirtschaftsinformatik,0,0,0,0,0,,
Reaction,canvas.Screen,2_82_0_2,2022-07-04T17:00:05.830Z,,,1,AV,133.36100000038277,response,stim_detected,mousedown,313011.2999999998,313009.9000000004,312859815,312861.7999999998,312876539,313026632,,grey,AN02EC04,20,m,2,0,Wirtschaftsinformatik,0,0,0,0,0,,AV
Trial,flow.Sequence,2_82_0,2022-07-04T17:00:05.830Z,,,1,AV,1934.5240000003832,completion,,,313011.7000000002,313009.9000000004,311058699,311062,311075376,313026632,,grey,AN02EC04,20,m,2,0,Wirtschaftsinformatik,0,0,0,0,0,,
Frame,canvas.Frame,2_82,2022-07-04T17:00:05.830Z,,,1,AV,1936.5240000003832,,,,313012,313011.9000000004,311058699,311061.2999999998,311075376,313026632,,grey,AN02EC04,20,m,2,0,Wirtschaftsinformatik,0,0,0,0,0,,
Fixation,canvas.Screen,2_83_0_0,2022-07-04T17:00:08.249Z,,,0,V,2419.280000000028,timeout,,,315430.7999999998,315429228,313009955,313013.0999999996,313026632,315445912,,grey,AN02EC04,20,m,2,0,Wirtschaftsinformatik,0,0,0,0,0,,
Stimulus,canvas.Screen,2_83_0_1,2022-07-04T17:00:08.348Z,,,0,V,99.12900000001537,timeout,,,315529.7999999998,315528364,315429228,315431.0999999996,315445912,315545041,,grey,AN02EC04,20,m,2,0,Wirtschaftsinformatik,0,0,0,0,0,,
Reaction,canvas.Screen,2_83_0_2,2022-07-04T17:00:08.476Z,,,0,V,110.85900000034599,response,stim_detected,mousedown,315657.4000000004,315655.9000000004,315528364,315530,315545041,315661774,,grey,AN02EC04,20,m,2,0,Wirtschaftsinformatik,0,0,0,0,0,,AV
Trial,flow.Sequence,2_83_0,2022-07-04T17:00:08.476Z,,,0,V,2629.2680000003893,completion,,,315657.7999999998,315655.9000000004,313009955,313013,313026632,315661774,,grey,AN02EC04,20,m,2,0,Wirtschaftsinformatik,0,0,0,0,0,,
Frame,canvas.Frame,2_83,2022-07-04T17:00:08.476Z,,,0,V,2631.2680000003893,,,,315658.2000000002,315657.9000000004,313009955,313012.2000000002,313026632,315661774,,grey,AN02EC04,20,m,2,0,Wirtschaftsinformatik,0,0,0,0,0,,
Fixation,canvas.Screen,2_84_0_0,2022-07-04T17:00:10.182Z,,,0,V,1717.7430000000168,timeout,,,317363.7999999998,317362.84,315645097,315659.0999999996,315661774,317379517,,grey,AN02EC04,20,m,2,0,Wirtschaftsinformatik,0,0,0,0,0,,
Stimulus,canvas.Screen,2_84_0_1,2022-07-04T17:00:10.282Z,,,0,V,100.11200000002282,timeout,,,317463.7999999998,317462952,317362.84,317364.0999999996,317379517,317479629,,grey,AN02EC04,20,m,2,0,Wirtschaftsinformatik,0,0,0,0,0,,
Reaction,canvas.Screen,2_84_0_2,2022-07-04T17:00:10.445Z,,,0,V,145.27100000035716,response,stim_detected,mousedown,317626.7000000002,317624.9000000004,317462952,317464.2000000002,317479629,317629745,,grey,AN02EC04,20,m,2,0,Wirtschaftsinformatik,0,0,0,0,0,,V
Trial,flow.Sequence,2_84_0,2022-07-04T17:00:10.445Z,,,0,V,1963.1260000003967,completion,,,317627.0999999996,317624.9000000004,315645097,315659,315661774,317629745,,grey,AN02EC04,20,m,2,0,Wirtschaftsinformatik,0,0,0,0,0,,
Frame,canvas.Frame,2_84,2022-07-04T17:00:10.446Z,,,0,V,1965.4260000002105,,,,317627.4000000004,317627.2000000002,315645097,315658.2999999998,315661774,317629745,,grey,AN02EC04,20,m,2,0,Wirtschaftsinformatik,0,0,0,0,0,,
Fixation,canvas.Screen,2_85_0_0,2022-07-04T17:00:12.501Z,,,1,AV,2068.088999999978,timeout,,,319682.9000000004,319681156,317613068,317628.5,317629745,319697834,,grey,AN02EC04,20,m,2,0,Wirtschaftsinformatik,0,0,0,0,0,,
Stimulus,canvas.Screen,2_85_0_1,2022-07-04T17:00:12.601Z,,,1,AV,100.07100000005448,timeout,,,319782.9000000004,319781227,319681156,319683.0999999996,319697834,319797905,,grey,AN02EC04,20,m,2,0,Wirtschaftsinformatik,0,0,0,0,0,,
Reaction,canvas.Screen,2_85_0_2,2022-07-04T17:00:12.711Z,,,1,AV,93.8949999997858,response,stim_detected,mousedown,319893.2999999998,319891.7999999998,319781227,319783.0999999996,319797905,319914588,,grey,AN02EC04,20,m,2,0,Wirtschaftsinformatik,0,0,0,0,0,,V
Trial,flow.Sequence,2_85_0,2022-07-04T17:00:12.712Z,,,1,AV,2262.0549999998184,completion,,,319893.5999999996,319891.7999999998,317613068,317628.4000000004,317629745,319914588,,grey,AN02EC04,20,m,2,0,Wirtschaftsinformatik,0,0,0,0,0,,
Frame,canvas.Frame,2_85,2022-07-04T17:00:12.712Z,,,1,AV,2264.0549999998184,,,,319894,319893.7999999998,317613068,317627.7000000002,317629745,319914588,,grey,AN02EC04,20,m,2,0,Wirtschaftsinformatik,0,0,0,0,0,,
Fixation,canvas.Screen,2_86_0_0,2022-07-04T17:00:14.686Z,,,1,A,1968.655000000028,timeout,,,321868.0999999996,321866.56,319881234,319895,319914588,321883243,,black,AN02EC04,20,m,2,0,Wirtschaftsinformatik,0,0,0,0,0,,
Stimulus,canvas.Screen,2_86_0_1,2022-07-04T17:00:14.785Z,,,1,A,99.10999999998603,timeout,,,321966.9000000004,321965678,321866.56,321868.4000000004,321883243,321982353,,black,AN02EC04,20,m,2,0,Wirtschaftsinformatik,0,0,0,0,0,,
Reaction,canvas.Screen,2_86_0_2,2022-07-04T17:00:14.923Z,,,1,A,120.54700000036974,response,stim_detected,mousedown,322104.2999999998,322102.9000000004,321965678,321967.2000000002,321982353,322116058,,black,AN02EC04,20,m,2,0,Wirtschaftsinformatik,0,0,0,0,0,,AV
