sender,sender_type,sender_id,timestamp,meta,,aud,condition,duration,ended_on,response,response_action,time_commit,time_end,time_render,time_run,time_show,time_switch,url,vis,id,age,sex,edu,occ,ela,pat,ill,prt,pcr,pab,,pre_stim
Instructions,html.Page,0,2022-07-04T16:08:36.262Z,"{""labjs_version"":""20.2.4"",""labjs_build"":{""flavor"":""production"",""commit"":""f5b4a49f956347addd546a832a3327688c2c0fef""},""location"":""file:///C:/Users/Proband%207/Desktop/RTE/index.html"",""userAgent"":""Mozilla/5.0 (Windows NT 6.1; Win64; x64) AppleWebKit/537.36 (KHTML, like Gecko) Chrome/103.0.0.0 Safari/537.36"",""platform"":""Win32"",""language"":""de-DE"",""locale"":""de"",""timeZone"":""Europe/Berlin"",""timezoneOffset"":-120,""screen_width"":1366,""screen_height"":768,""scroll_width"":1366,""scroll_height"":609,""window_innerWidth"":1366,""window_innerHeight"":657,""devicePixelRatio"":1}",,,,1015946884,form,submission,,,1020057,1020055.3999999999,4091833,4091.600000000093,4108516,1020059758,{},,EL27SE03,22,f,1,0,Psychologie,0,0,0,0,0,
Change,Background,canvas.Screen,1,2022-07-04T16:08:39.252Z,,,,,3002.508999999962,timeout,,,1023047.7999999998,1023045587,1020043082,1020057.7000000002,1020059758,1023062267,,,EL27SE03,22,f,1,0,Psychologie,0,0,0,0,0,
Fixation,canvas.Screen,2_0_0_0,2022-07-04T16:08:41.503Z,,,0,V,2251.1149999999907,timeout,,,1025298.5,1025296705,1023045587,1023049.2000000002,1023062267,1025313382,,grey,EL27SE03,22,f,1,0,Psychologie,0,0,0,0,0,,
Stimulus,canvas.Screen,2_0_0_1,2022-07-04T16:08:41.602Z,,,0,V,100.19000000006054,timeout,,,1025397.3999999999,1025396454,1025296705,1025298.7999999998,1025313382,1025413572,,grey,EL27SE03,22,f,1,0,Psychologie,0,0,0,0,0,,
Reaction,canvas.Screen,2_0_0_2,2022-07-04T16:08:41.883Z,,,0,V,263.1280000001425,response,stim_detected,mousedown,1025678.6000000001,1025676.7000000002,1025396454,1025397.7000000002,1025413572,1025697081,,grey,EL27SE03,22,f,1,0,Psychologie,0,0,0,0,0,,0
Trial,flow.Sequence,2_0_0,2022-07-04T16:08:41.884Z,,,0,V,2614.4330000001937,completion,,,1025679.2999999998,1025676.7000000002,1023045587,1023049.2000000002,1023062267,1025697081,,grey,EL27SE03,22,f,1,0,Psychologie,0,0,0,0,0,,
Frame,canvas.Frame,2_0,2022-07-04T16:08:41.884Z,,,0,V,2617.2330000000075,,,,1025679.8999999999,1025679.5,1023045587,1023048.1000000001,1023062267,1025697081,,grey,EL27SE03,22,f,1,0,Psychologie,0,0,0,0,0,,
Fixation,canvas.Screen,2_1_0_0,2022-07-04T16:08:43.785Z,,,1,A,1899.4370000000345,timeout,,,1027581.1000000001,1027579854,1025680404,1025681.1000000001,1025697081,1027596518,,black,EL27SE03,22,f,1,0,Psychologie,0,0,0,0,0,,
Stimulus,canvas.Screen,2_1_0_1,2022-07-04T16:08:43.888Z,,,1,A,102.30400000000373,timeout,,,1027683.2000000002,1027682141,1027579854,1027581.2999999998,1027596518,1027698822,,black,EL27SE03,22,f,1,0,Psychologie,0,0,0,0,0,,
Reaction,canvas.Screen,2_1_0_2,2022-07-04T16:08:44.487Z,,,1,A,581.7780000000494,response,stim_detected,mousedown,1028282.7999999998,1028280.6000000001,1027682141,1027683.3999999999,1027698822,1028298764,,black,EL27SE03,22,f,1,0,Psychologie,0,0,0,0,0,,V
Trial,flow.Sequence,2_1_0,2022-07-04T16:08:44.488Z,,,1,A,2583.5190000000875,completion,,,1028283.7999999998,1028280.6000000001,1025680404,1025681,1025697081,1028298764,,black,EL27SE03,22,f,1,0,Psychologie,0,0,0,0,0,,V
Frame,canvas.Frame,2_1,2022-07-04T16:08:44.489Z,,,1,A,2586.8189999999013,,,,1028284.2000000002,1028283.8999999999,1025680404,1025680,1025697081,1028298764,,black,EL27SE03,22,f,1,0,Psychologie,0,0,0,0,0,,V
Fixation,canvas.Screen,2_2_0_0,2022-07-04T16:08:46.039Z,,,0,V,1551.362000000081,timeout,,,1029834.7999999998,1029833446,1028282087,1028285.6000000001,1028298764,1029850126,,grey,EL27SE03,22,f,1,0,Psychologie,0,0,0,0,0,,A
Stimulus,canvas.Screen,2_2_0_1,2022-07-04T16:08:46.139Z,,,0,V,99.63799999991897,timeout,,,1029934.7000000002,1029933088,1029833446,1029835.1000000001,1029850126,1029949764,,grey,EL27SE03,22,f,1,0,Psychologie,0,0,0,0,0,,A
Reaction,canvas.Screen,2_2_0_2,2022-07-04T16:08:46.402Z,,,0,V,245.83600000012666,response,stim_detected,mousedown,1030197.2000000002,1030195.6000000001,1029933088,1029935,1029949764,1030200.11,,grey,EL27SE03,22,f,1,0,Psychologie,0,0,0,0,0,,A
Trial,flow.Sequence,2_2_0,2022-07-04T16:08:46.402Z,,,0,V,1896.8360000001267,completion,,,1030197.6000000001,1030195.6000000001,1028282087,1028285.3999999999,1028298764,1030200.11,,grey,EL27SE03,22,f,1,0,Psychologie,0,0,0,0,0,,A
Frame,canvas.Frame,2_2,2022-07-04T16:08:46.403Z,,,0,V,1899.3360000001267,,,,1030198.2999999998,1030198.1000000001,1028282087,1028284.5,1028298764,1030200.11,,grey,EL27SE03,22,f,1,0,Psychologie,0,0,0,0,0,,A
Fixation,canvas.Screen,2_3_0_0,2022-07-04T16:08:48.457Z,,,0,V,2068.5019999999786,timeout,,,1032252.7000000002,1032251931,1030183432,1030199.7000000002,1030200.11,1032268612,,grey,EL27SE03,22,f,1,0,Psychologie,0,0,0,0,0,,V
Stimulus,canvas.Screen,2_3_0_1,2022-07-04T16:08:48.557Z,,,0,V,99.58600000001024,timeout,,,1032352.7999999998,1032351521,1032251931,1032253,1032268612,1032368198,,grey,EL27SE03,22,f,1,0,Psychologie,0,0,0,0,0,,V
Reaction,canvas.Screen,2_3_0_2,2022-07-04T16:08:48.746Z,,,0,V,172.40200000011828,response,stim_detected,mousedown,1032542.1000000001,1032540.6000000001,1032351521,1032353,1032368198,1032568354,,grey,EL27SE03,22,f,1,0,Psychologie,0,0,0,0,0,,V
Trial,flow.Sequence,2_3_0,2022-07-04T16:08:48.747Z,,,0,V,2340.490000000107,completion,,,1032542.5,1032540.6000000001,1030183432,1030199.5,1030200.11,1032568354,,grey,EL27SE03,22,f,1,0,Psychologie,0,0,0,0,0,,V
Frame,canvas.Frame,2_3,2022-07-04T16:08:48.747Z,,,0,V,2342.490000000107,,,,1032542.7999999998,1032542.6000000001,1030183432,1030198.5,1030200.11,1032568354,,grey,EL27SE03,22,f,1,0,Psychologie,0,0,0,0,0,,V
Fixation,canvas.Screen,2_4_0_0,2022-07-04T16:08:50.492Z,,,1,AV,1734.6499999999069,timeout,,,1034287.7999999998,1034286325,1032535,1032544.2000000002,1032568354,1034303004,,grey,EL27SE03,22,f,1,0,Psychologie,0,0,0,0,0,,V
Stimulus,canvas.Screen,2_4_0_1,2022-07-04T16:08:50.591Z,,,1,AV,99.7390000000596,timeout,,,1034386.8999999999,1034386067,1034286325,1034288.2000000002,1034303004,1034402743,,grey,EL27SE03,22,f,1,0,Psychologie,0,0,0,0,0,,V
Reaction,canvas.Screen,2_4_0_2,2022-07-04T16:08:50.749Z,,,1,AV,139.85700000007637,response,stim_detected,mousedown,1034544.5,1034542.6000000001,1034386067,1034387.3999999999,1034402743,1034552949,,grey,EL27SE03,22,f,1,0,Psychologie,0,0,0,0,0,,V
Trial,flow.Sequence,2_4_0,2022-07-04T16:08:50.749Z,,,1,AV,1974.2460000000428,completion,,,1034545.1000000001,1034542.6000000001,1032535,1032544.1000000001,1032568354,1034552949,,grey,EL27SE03,22,f,1,0,Psychologie,0,0,0,0,0,,V
Frame,canvas.Frame,2_4,2022-07-04T16:08:50.750Z,,,1,AV,1976.846000000136,,,,1034545.5,1034545.2000000002,1032535,1032543,1032568354,1034552949,,grey,EL27SE03,22,f,1,0,Psychologie,0,0,0,0,0,,V
Fixation,canvas.Screen,2_5_0_0,2022-07-04T16:08:52.344Z,,,0,V,1601.8739999999525,timeout,,,1036139.8999999999,1036138138,1034536272,1034546.8999999999,1034552949,1036154823,,grey,EL27SE03,22,f,1,0,Psychologie,0,0,0,0,0,,AV
Stimulus,canvas.Screen,2_5_0_1,2022-07-04T16:08:52.443Z,,,0,V,99.37800000002608,timeout,,,1036239,1036237.52,1036138138,1036140.2000000002,1036154823,1036254201,,grey,EL27SE03,22,f,1,0,Psychologie,0,0,0,0,0,,AV
Reaction,canvas.Screen,2_5_0_2,2022-07-04T16:08:52.593Z,,,0,V,133.29899999999907,response,stim_detected,mousedown,1036389,1036387.5,1036237.52,1036239.2000000002,1036254201,1036404237,,grey,EL27SE03,22,f,1,0,Psychologie,0,0,0,0,0,,AV
Trial,flow.Sequence,2_5_0,2022-07-04T16:08:52.594Z,,,0,V,1834.5509999999776,completion,,,1036389.3999999999,1036387.5,1034536272,1034546.7000000002,1034552949,1036404237,,grey,EL27SE03,22,f,1,0,Psychologie,0,0,0,0,0,,AV
Frame,canvas.Frame,2_5,2022-07-04T16:08:52.594Z,,,0,V,1836.5509999999776,,,,1036389.7999999998,1036389.5,1034536272,1034545.7999999998,1034552949,1036404237,,grey,EL27SE03,22,f,1,0,Psychologie,0,0,0,0,0,,AV
Fixation,canvas.Screen,2_6_0_0,2022-07-04T16:08:54.945Z,,,1,A,2352.0779999999795,timeout,,,1038741.1000000001,1038739634,1036387.56,1036390.7999999998,1036404237,1038756315,,black,EL27SE03,22,f,1,0,Psychologie,0,0,0,0,0,,V
Stimulus,canvas.Screen,2_6_0_1,2022-07-04T16:08:55.044Z,,,1,A,99.53900000010617,timeout,,,1038840.1000000001,1038839177,1038739634,1038741.6000000001,1038756315,1038855854,,black,EL27SE03,22,f,1,0,Psychologie,0,0,0,0,0,,V
Reaction,canvas.Screen,2_6_0_2,2022-07-04T16:08:55.391Z,,,1,A,329.6459999999497,response,stim_detected,mousedown,1039187.1000000001,1039185.5,1038839177,1038840.2000000002,1038855854,1039189.43,,black,EL27SE03,22,f,1,0,Psychologie,0,0,0,0,0,,V
Trial,flow.Sequence,2_6_0,2022-07-04T16:08:55.392Z,,,1,A,2781.2630000000354,completion,,,1039187.5,1039185.5,1036387.56,1036390.7999999998,1036404237,1039189.43,,black,EL27SE03,22,f,1,0,Psychologie,0,0,0,0,0,,V
Frame,canvas.Frame,2_6,2022-07-04T16:08:55.392Z,,,1,A,2783.3630000001285,,,,1039187.7999999998,1039187.6000000001,1036387.56,1036390,1036404237,1039189.43,,black,EL27SE03,22,f,1,0,Psychologie,0,0,0,0,0,,V
Fixation,canvas.Screen,2_7_0_0,2022-07-04T16:08:57.329Z,,,1,AV,1951.5879999999888,timeout,,,1041125.1000000001,1041124338,1039172753,1039189,1039189.43,1041141018,,grey,EL27SE03,22,f,1,0,Psychologie,0,0,0,0,0,,A
Stimulus,canvas.Screen,2_7_0_1,2022-07-04T16:08:57.429Z,,,1,AV,99.71699999994598,timeout,,,1041225.1000000001,1041224058,1041124338,1041125.3999999999,1041141018,1041240735,,grey,EL27SE03,22,f,1,0,Psychologie,0,0,0,0,0,,A
Reaction,canvas.Screen,2_7_0_2,2022-07-04T16:08:57.565Z,,,1,AV,117.76500000001397,response,stim_detected,mousedown,1041360.2000000002,1041358.5,1041224058,1041225.2999999998,1041240735,1041374248,,grey,EL27SE03,22,f,1,0,Psychologie,0,0,0,0,0,,A
Trial,flow.Sequence,2_7_0,2022-07-04T16:08:57.565Z,,,1,AV,2169.069999999949,completion,,,1041360.6000000001,1041358.5,1039172753,1039188.8999999999,1039189.43,1041374248,,grey,EL27SE03,22,f,1,0,Psychologie,0,0,0,0,0,,A
Frame,canvas.Frame,2_7,2022-07-04T16:08:57.565Z,,,1,AV,2171.3699999997625,,,,1041360.8999999999,1041360.7999999998,1039172753,1039188,1039189.43,1041374248,,grey,EL27SE03,22,f,1,0,Psychologie,0,0,0,0,0,,A
Fixation,canvas.Screen,2_8_0_0,2022-07-04T16:08:59.747Z,,,1,AV,2183.829999999958,timeout,,,1043542.2000000002,1043541407,1041357571,1041362.1000000001,1041374248,1043558078,,grey,EL27SE03,22,f,1,0,Psychologie,0,0,0,0,0,,AV
Stimulus,canvas.Screen,2_8_0_1,2022-07-04T16:08:59.848Z,,,1,AV,101.0339999999851,timeout,,,1043643.2000000002,1043642432,1043541407,1043542.3999999999,1043558078,1043659112,,grey,EL27SE03,22,f,1,0,Psychologie,0,0,0,0,0,,AV
Reaction,canvas.Screen,2_8_0_2,2022-07-04T16:08:59.995Z,,,1,AV,130.3880000000354,response,stim_detected,mousedown,1043790.8999999999,1043789.5,1043642432,1043643.3999999999,1043659112,1043792.52,,grey,EL27SE03,22,f,1,0,Psychologie,0,0,0,0,0,,AV
Trial,flow.Sequence,2_8_0,2022-07-04T16:08:59.996Z,,,1,AV,2415.2519999999786,completion,,,1043791.2999999998,1043789.5,1041357571,1041362,1041374248,1043792.52,,grey,EL27SE03,22,f,1,0,Psychologie,0,0,0,0,0,,AV
Frame,canvas.Frame,2_8,2022-07-04T16:08:59.996Z,,,1,AV,2417.2519999999786,,,,1043791.7000000002,1043791.5,1041357571,1041361.1000000001,1041374248,1043792.52,,grey,EL27SE03,22,f,1,0,Psychologie,0,0,0,0,0,,AV
Fixation,canvas.Screen,2_9_0_0,2022-07-04T16:09:01.783Z,,,0,V,1801.3469999999506,timeout,,,1045578.5,1045577188,1043775843,1043792.7999999998,1043792.52,1045593867,,grey,EL27SE03,22,f,1,0,Psychologie,0,0,0,0,0,,AV
Stimulus,canvas.Screen,2_9_0_1,2022-07-04T16:09:01.883Z,,,0,V,100.07500000006985,timeout,,,1045678.3999999999,1045677243,1045577188,1045578.7999999998,1045593867,1045693942,,grey,EL27SE03,22,f,1,0,Psychologie,0,0,0,0,0,,AV
Reaction,canvas.Screen,2_9_0_2,2022-07-04T16:09:02.088Z,,,0,V,188.55799999996088,response,stim_detected,mousedown,1045884.1000000001,1045882.5,1045677243,1045678.7000000002,1045693942,1045893913,,grey,EL27SE03,22,f,1,0,Psychologie,0,0,0,0,0,,AV
Trial,flow.Sequence,2_9_0,2022-07-04T16:09:02.089Z,,,0,V,2089.9799999999814,completion,,,1045884.5,1045882.5,1043775843,1043792.7000000002,1043792.52,1045893913,,grey,EL27SE03,22,f,1,0,Psychologie,0,0,0,0,0,,AV
Frame,canvas.Frame,2_9,2022-07-04T16:09:02.089Z,,,0,V,2092.0800000000745,,,,1045884.7999999998,1045884.6000000001,1043775843,1043791.8999999999,1043792.52,1045893913,,grey,EL27SE03,22,f,1,0,Psychologie,0,0,0,0,0,,AV
Fixation,canvas.Screen,2_10_0_0,2022-07-04T16:09:03.934Z,,,0,V,1851.28600000008,timeout,,,1047729.5,1047728521,1045877236,1045886.1000000001,1045893913,1047745199,,grey,EL27SE03,22,f,1,0,Psychologie,0,0,0,0,0,,V
Stimulus,canvas.Screen,2_10_0_1,2022-07-04T16:09:04.034Z,,,0,V,100.04700000002049,timeout,,,1047829.5,1047828515,1047728521,1047729.7999999998,1047745199,1047845246,,grey,EL27SE03,22,f,1,0,Psychologie,0,0,0,0,0,,V
Reaction,canvas.Screen,2_10_0_2,2022-07-04T16:09:04.190Z,,,0,V,138.25399999995716,response,stim_detected,mousedown,1047985.2999999998,1047983.5,1047828515,1047829.7999999998,1047845246,1047995339,,grey,EL27SE03,22,f,1,0,Psychologie,0,0,0,0,0,,V
Trial,flow.Sequence,2_10_0,2022-07-04T16:09:04.190Z,,,0,V,2089.5870000000577,completion,,,1047985.7000000002,1047983.5,1045877236,1045885.8999999999,1045893913,1047995339,,grey,EL27SE03,22,f,1,0,Psychologie,0,0,0,0,0,,V
Frame,canvas.Frame,2_10,2022-07-04T16:09:04.190Z,,,0,V,2091.8869999998715,,,,1047986,1047985.7999999998,1045877236,1045885.1000000001,1045893913,1047995339,,grey,EL27SE03,22,f,1,0,Psychologie,0,0,0,0,0,,V
Fixation,canvas.Screen,2_11_0_0,2022-07-04T16:09:06.419Z,,,0,V,2234.579000000027,timeout,,,1050214.7000000002,1050213242,1047978662,1047987.2000000002,1047995339,1050229918,,grey,EL27SE03,22,f,1,0,Psychologie,0,0,0,0,0,,V
Stimulus,canvas.Screen,2_11_0_1,2022-07-04T16:09:06.519Z,,,0,V,100.33299999986775,timeout,,,1050314.5,1050313574,1050213242,1050214.7999999998,1050229918,1050330251,,grey,EL27SE03,22,f,1,0,Psychologie,0,0,0,0,0,,V
Reaction,canvas.Screen,2_11_0_2,2022-07-04T16:09:06.685Z,,,0,V,149.14899999997579,response,stim_detected,mousedown,1050481,1050479.4,1050313574,1050314.7999999998,1050330251,1050497.02,,grey,EL27SE03,22,f,1,0,Psychologie,0,0,0,0,0,,V
Trial,flow.Sequence,2_11_0,2022-07-04T16:09:06.686Z,,,0,V,2484.0609999998705,completion,,,1050481.2999999998,1050479.4,1047978662,1047987,1047995339,1050497.02,,grey,EL27SE03,22,f,1,0,Psychologie,0,0,0,0,0,,V
Frame,canvas.Frame,2_11,2022-07-04T16:09:06.686Z,,,0,V,2486.1609999999637,,,,1050481.6,1050481.5,1047978662,1047986.1000000001,1047995339,1050497.02,,grey,EL27SE03,22,f,1,0,Psychologie,0,0,0,0,0,,V
Fixation,canvas.Screen,2_12_0_0,2022-07-04T16:09:09.053Z,,,1,A,2366.8889999999665,timeout,,,1052848.7000000002,1052847.24,1050480343,1050482.7999999998,1050497.02,1052863909,,black,EL27SE03,22,f,1,0,Psychologie,0,0,0,0,0,,V
Stimulus,canvas.Screen,2_12_0_1,2022-07-04T16:09:09.154Z,,,1,A,101.4639999999199,timeout,,,1052949.7999999998,1052948694,1052847.24,1052848.9,1052863909,1052965373,,black,EL27SE03,22,f,1,0,Psychologie,0,0,0,0,0,,V
Reaction,canvas.Screen,2_12_0_2,2022-07-04T16:09:09.446Z,,,1,A,274.42699999990873,response,stim_detected,mousedown,1053241.2999999998,1053239.7999999998,1052948694,1052950.2000000002,1052965373,1053248824,,black,EL27SE03,22,f,1,0,Psychologie,0,0,0,0,0,,V
Trial,flow.Sequence,2_12_0,2022-07-04T16:09:09.446Z,,,1,A,2742.779999999795,completion,,,1053241.7999999998,1053239.7999999998,1050480343,1050482.7000000002,1050497.02,1053248824,,black,EL27SE03,22,f,1,0,Psychologie,0,0,0,0,0,,V
Frame,canvas.Frame,2_12,2022-07-04T16:09:09.446Z,,,1,A,2744.8799999998882,,,,1053242.1,1053241.9,1050480343,1050481.7999999998,1050497.02,1053248824,,black,EL27SE03,22,f,1,0,Psychologie,0,0,0,0,0,,V
Fixation,canvas.Screen,2_13_0_0,2022-07-04T16:09:11.239Z,,,1,A,1801,timeout,,,1055034.7999999998,1055033148,1053232147,1053243.2999999998,1053248824,1055049824,,black,EL27SE03,22,f,1,0,Psychologie,0,0,0,0,0,,A
Stimulus,canvas.Screen,2_13_0_1,2022-07-04T16:09:11.339Z,,,1,A,100.33100000000559,timeout,,,1055134.7000000002,1055133476,1055033148,1055035,1055049824,1055150155,,black,EL27SE03,22,f,1,0,Psychologie,0,0,0,0,0,,A
Reaction,canvas.Screen,2_13_0_2,2022-07-04T16:09:11.566Z,,,1,A,210.1449999997858,response,stim_detected,mousedown,1055361.7999999998,1055360.2999999998,1055133476,1055135,1055150155,1055366897,,black,EL27SE03,22,f,1,0,Psychologie,0,0,0,0,0,,A
Trial,flow.Sequence,2_13_0,2022-07-04T16:09:11.567Z,,,1,A,2111.4759999997914,completion,,,1055362.2000000002,1055360.2999999998,1053232147,1053243.2000000002,1053248824,1055366897,,black,EL27SE03,22,f,1,0,Psychologie,0,0,0,0,0,,A
Frame,canvas.Frame,2_13,2022-07-04T16:09:11.567Z,,,1,A,2113.4759999997914,,,,1055362.5,1055362.2999999998,1053232147,1053242.2999999998,1053248824,1055366897,,black,EL27SE03,22,f,1,0,Psychologie,0,0,0,0,0,,A
Fixation,canvas.Screen,2_14_0_0,2022-07-04T16:09:13.507Z,,,1,AV,1951.9129999999423,timeout,,,1057302.9,1057302127,1055350.22,1055363.6,1055366897,1057318.81,,grey,EL27SE03,22,f,1,0,Psychologie,0,0,0,0,0,,A
Stimulus,canvas.Screen,2_14_0_1,2022-07-04T16:09:13.606Z,,,1,AV,99,timeout,,,1057401.9,1057401136,1057302127,1057303.2999999998,1057318.81,1057417.81,,grey,EL27SE03,22,f,1,0,Psychologie,0,0,0,0,0,,A
Reaction,canvas.Screen,2_14_0_2,2022-07-04T16:09:13.773Z,,,1,AV,149.48999999975786,response,stim_detected,mousedown,1057568.7999999998,1057567.2999999998,1057401136,1057402.1,1057417.81,1057585064,,grey,EL27SE03,22,f,1,0,Psychologie,0,0,0,0,0,,A
Trial,flow.Sequence,2_14_0,2022-07-04T16:09:13.774Z,,,1,AV,2200.4029999997,completion,,,1057569.4,1057567.2999999998,1055350.22,1055363.6,1055366897,1057585064,,grey,EL27SE03,22,f,1,0,Psychologie,0,0,0,0,0,,A
Frame,canvas.Frame,2_14,2022-07-04T16:09:13.774Z,,,1,AV,2202.5029999997932,,,,1057569.7000000002,1057569.4,1055350.22,1055362.7000000002,1055366897,1057585064,,grey,EL27SE03,22,f,1,0,Psychologie,0,0,0,0,0,,A
Fixation,canvas.Screen,2_15_0_0,2022-07-04T16:09:15.842Z,,,1,AV,2068375,timeout,,,1059638,1059636759,1057568387,1057571,1057585064,1059653439,,grey,EL27SE03,22,f,1,0,Psychologie,0,0,0,0,0,,AV
Stimulus,canvas.Screen,2_15_0_1,2022-07-04T16:09:15.942Z,,,1,AV,99.79099999996834,timeout,,,1059738,1059736552,1059636759,1059638.2999999998,1059653439,1059753.23,,grey,EL27SE03,22,f,1,0,Psychologie,0,0,0,0,0,,AV
Reaction,canvas.Screen,2_15_0_2,2022-07-04T16:09:16.097Z,,,1,AV,138.1699999999255,response,stim_detected,mousedown,1059892.7999999998,1059891.4,1059736552,1059738.2000000002,1059753.23,1059903254,,grey,EL27SE03,22,f,1,0,Psychologie,0,0,0,0,0,,AV
Trial,flow.Sequence,2_15_0,2022-07-04T16:09:16.098Z,,,1,AV,2306.335999999894,completion,,,1059893.2000000002,1059891.4,1057568387,1057570.9,1057585064,1059903254,,grey,EL27SE03,22,f,1,0,Psychologie,0,0,0,0,0,,AV
Frame,canvas.Frame,2_15,2022-07-04T16:09:16.098Z,,,1,AV,2308.2359999998007,,,,1059893.5,1059893.2999999998,1057568387,1057569.7999999998,1057585064,1059903254,,grey,EL27SE03,22,f,1,0,Psychologie,0,0,0,0,0,,AV
Fixation,canvas.Screen,2_16_0_0,2022-07-04T16:09:17.994Z,,,1,A,1901.5719999999274,timeout,,,1061789.2000000002,1061788146,1059886577,1059894.7000000002,1059903254,1061804826,,black,EL27SE03,22,f,1,0,Psychologie,0,0,0,0,0,,AV
Stimulus,canvas.Screen,2_16_0_1,2022-07-04T16:09:18.093Z,,,1,A,99.86100000003353,timeout,,,1061889.1,1061888009,1061788146,1061789.5,1061804826,1061904687,,black,EL27SE03,22,f,1,0,Psychologie,0,0,0,0,0,,AV
Reaction,canvas.Screen,2_16_0_2,2022-07-04T16:09:18.387Z,,,1,A,276.6129999998957,response,stim_detected,mousedown,1062182.7000000002,1062181.2999999998,1061888009,1061889.2999999998,1061904687,1062188.14,,black,EL27SE03,22,f,1,0,Psychologie,0,0,0,0,0,,AV
Trial,flow.Sequence,2_16_0,2022-07-04T16:09:18.387Z,,,1,A,2278.0459999998566,completion,,,1062183.2000000002,1062181.2999999998,1059886577,1059894.6,1059903254,1062188.14,,black,EL27SE03,22,f,1,0,Psychologie,0,0,0,0,0,,AV
Frame,canvas.Frame,2_16,2022-07-04T16:09:18.388Z,,,1,A,2280.0459999998566,,,,1062183.4,1062183.2999999998,1059886577,1059893.7000000002,1059903254,1062188.14,,black,EL27SE03,22,f,1,0,Psychologie,0,0,0,0,0,,AV
Fixation,canvas.Screen,2_17_0_0,2022-07-04T16:09:20.229Z,,,1,A,1851.9500000001863,timeout,,,1064024.2000000002,1064023406,1062171463,1062184.6,1062188.14,1064040.09,,black,EL27SE03,22,f,1,0,Psychologie,0,0,0,0,0,,A
Stimulus,canvas.Screen,2_17_0_1,2022-07-04T16:09:20.329Z,,,1,A,99.30999999982305,timeout,,,1064124.2999999998,1064122723,1064023406,1064024.5,1064040.09,1064139.4,,black,EL27SE03,22,f,1,0,Psychologie,0,0,0,0,0,,A
Reaction,canvas.Screen,2_17_0_2,2022-07-04T16:09:20.488Z,,,1,A,142.8000000002794,response,stim_detected,mousedown,1064283.7999999998,1064282.2000000002,1064122723,1064124.5,1064139.4,1064289552,,black,EL27SE03,22,f,1,0,Psychologie,0,0,0,0,0,,A
Trial,flow.Sequence,2_17_0,2022-07-04T16:09:20.488Z,,,1,A,2094.0600000002887,completion,,,1064284.1,1064282.2000000002,1062171463,1062184.5,1062188.14,1064289552,,black,EL27SE03,22,f,1,0,Psychologie,0,0,0,0,0,,A
Frame,canvas.Frame,2_17,2022-07-04T16:09:20.489Z,,,1,A,2096.159999999916,,,,1064284.5,1064284.2999999998,1062171463,1062183.6,1062188.14,1064289552,,black,EL27SE03,22,f,1,0,Psychologie,0,0,0,0,0,,A
Fixation,canvas.Screen,2_18_0_0,2022-07-04T16:09:22.247Z,,,1,AV,1768.1310000000522,timeout,,,1066042.2999999998,1066041003,1064272875,1064285.6,1064289552,1066057683,,grey,EL27SE03,22,f,1,0,Psychologie,0,0,0,0,0,,A
Stimulus,canvas.Screen,2_18_0_1,2022-07-04T16:09:22.347Z,,,1,AV,99.66700000013225,timeout,,,1066142.2999999998,1066140674,1066041003,1066042.6,1066057683,1066157.35,,grey,EL27SE03,22,f,1,0,Psychologie,0,0,0,0,0,,A
Reaction,canvas.Screen,2_18_0_2,2022-07-04T16:09:22.500Z,,,1,AV,136.9499999997206,response,stim_detected,mousedown,1066295.7000000002,1066294.2999999998,1066140674,1066142.5,1066157.35,1066307565,,grey,EL27SE03,22,f,1,0,Psychologie,0,0,0,0,0,,A
Trial,flow.Sequence,2_18_0,2022-07-04T16:09:22.500Z,,,1,AV,2004.747999999905,completion,,,1066296.1,1066294.2999999998,1064272875,1064285.5,1064289552,1066307565,,grey,EL27SE03,22,f,1,0,Psychologie,0,0,0,0,0,,A
Frame,canvas.Frame,2_18,2022-07-04T16:09:22.501Z,,,1,AV,2006.6480000002775,,,,1066296.4,1066296.2000000002,1064272875,1064284.7999999998,1064289552,1066307565,,grey,EL27SE03,22,f,1,0,Psychologie,0,0,0,0,0,,A
Fixation,canvas.Screen,2_19_0_0,2022-07-04T16:09:24.499Z,,,1,A,2001.9129999999423,timeout,,,1068294.4,1068292796,1066290888,1066297.6,1066307565,1068309478,,black,EL27SE03,22,f,1,0,Psychologie,0,0,0,0,0,,AV
Stimulus,canvas.Screen,2_19_0_1,2022-07-04T16:09:24.598Z,,,1,A,99.02900000009686,timeout,,,1068393.5,1068391833,1068292796,1068294.7000000002,1068309478,1068408507,,black,EL27SE03,22,f,1,0,Psychologie,0,0,0,0,0,,AV
Reaction,canvas.Screen,2_19_0_2,2022-07-04T16:09:24.798Z,,,1,A,183.7929999998305,response,stim_detected,mousedown,1068593.7000000002,1068592.2999999998,1068391833,1068393.7000000002,1068408507,1068609109,,black,EL27SE03,22,f,1,0,Psychologie,0,0,0,0,0,,AV
Trial,flow.Sequence,2_19_0,2022-07-04T16:09:24.798Z,,,1,A,2284.7349999998696,completion,,,1068594.1,1068592.2999999998,1066290888,1066297.5,1066307565,1068609109,,black,EL27SE03,22,f,1,0,Psychologie,0,0,0,0,0,,AV
Frame,canvas.Frame,2_19,2022-07-04T16:09:24.799Z,,,1,A,2286.7349999998696,,,,1068594.5,1068594.2999999998,1066290888,1066296.6,1066307565,1068609109,,black,EL27SE03,22,f,1,0,Psychologie,0,0,0,0,0,,AV
Fixation,canvas.Screen,2_20_0_0,2022-07-04T16:09:26.466Z,,,1,A,1667.8279999999795,timeout,,,1070261.5,1070260259,1068592432,1068595.7999999998,1068609109,1070276937,,black,EL27SE03,22,f,1,0,Psychologie,0,0,0,0,0,,A
Stimulus,canvas.Screen,2_20_0_1,2022-07-04T16:09:26.566Z,,,1,A,99.69900000002235,timeout,,,1070361.5,1070359962,1070260259,1070262,1070276937,1070376636,,black,EL27SE03,22,f,1,0,Psychologie,0,0,0,0,0,,A
Reaction,canvas.Screen,2_20_0_2,2022-07-04T16:09:26.810Z,,,1,A,227.46400000015274,response,stim_detected,mousedown,1070605.7000000002,1070604.1,1070359962,1070361.7000000002,1070376636,1070610458,,black,EL27SE03,22,f,1,0,Psychologie,0,0,0,0,0,,A
Trial,flow.Sequence,2_20_0,2022-07-04T16:09:26.810Z,,,1,A,1994.9910000001546,completion,,,1070606.2000000002,1070604.1,1068592432,1068595.7000000002,1068609109,1070610458,,black,EL27SE03,22,f,1,0,Psychologie,0,0,0,0,0,,A
Frame,canvas.Frame,2_20,2022-07-04T16:09:26.811Z,,,1,A,1997.1909999998752,,,,1070606.5,1070606.2999999998,1068592432,1068594.7000000002,1068609109,1070610458,,black,EL27SE03,22,f,1,0,Psychologie,0,0,0,0,0,,A
Fixation,canvas.Screen,2_21_0_0,2022-07-04T16:09:28.566Z,,,0,V,1766.8929999999236,timeout,,,1072361.5,1072360681,1070593781,1070607.9,1070610458,1072377351,,grey,EL27SE03,22,f,1,0,Psychologie,0,0,0,0,0,,A
Stimulus,canvas.Screen,2_21_0_1,2022-07-04T16:09:28.667Z,,,0,V,101.09199999994598,timeout,,,1072462.6,1072461764,1072360681,1072361.9,1072377351,1072478443,,grey,EL27SE03,22,f,1,0,Psychologie,0,0,0,0,0,,A
Reaction,canvas.Screen,2_21_0_2,2022-07-04T16:09:28.889Z,,,0,V,204.65700000012293,response,stim_detected,mousedown,1072684.6,1072683.1,1072461764,1072462.7999999998,1072478443,1072695179,,grey,EL27SE03,22,f,1,0,Psychologie,0,0,0,0,0,,A
Trial,flow.Sequence,2_21_0,2022-07-04T16:09:28.889Z,,,0,V,2072.6419999999925,completion,,,1072685,1072683.1,1070593781,1070607.7000000002,1070610458,1072695179,,grey,EL27SE03,22,f,1,0,Psychologie,0,0,0,0,0,,A
Frame,canvas.Frame,2_21,2022-07-04T16:09:28.890Z,,,0,V,2074.7420000000857,,,,1072685.4,1072685.2000000002,1070593781,1070606.7000000002,1070610458,1072695179,,grey,EL27SE03,22,f,1,0,Psychologie,0,0,0,0,0,,A
Fixation,canvas.Screen,2_22_0_0,2022-07-04T16:09:30.634Z,,,0,V,1750.4809999999125,timeout,,,1074429.7999999998,1074428988,1072678502,1072686.5,1072695179,1074445.66,,grey,EL27SE03,22,f,1,0,Psychologie,0,0,0,0,0,,V
Stimulus,canvas.Screen,2_22_0_1,2022-07-04T16:09:30.735Z,,,0,V,100.81200000015087,timeout,,,1074530.7000000002,1074529794,1074428988,1074430.1,1074445.66,1074546472,,grey,EL27SE03,22,f,1,0,Psychologie,0,0,0,0,0,,V
Reaction,canvas.Screen,2_22_0_2,2022-07-04T16:09:30.930Z,,,0,V,177.7280000001192,response,stim_detected,mousedown,1074725.7000000002,1074724.2000000002,1074529794,1074530.9,1074546472,1074729848,,grey,EL27SE03,22,f,1,0,Psychologie,0,0,0,0,0,,V
Trial,flow.Sequence,2_22_0,2022-07-04T16:09:30.930Z,,,0,V,2029.0210000001825,completion,,,1074726,1074724.2000000002,1072678502,1072686.5,1072695179,1074729848,,grey,EL27SE03,22,f,1,0,Psychologie,0,0,0,0,0,,V
Frame,canvas.Frame,2_22,2022-07-04T16:09:30.931Z,,,0,V,2030.9210000000894,,,,1074726.4,1074726.1,1072678502,1072685.6,1072695179,1074729848,,grey,EL27SE03,22,f,1,0,Psychologie,0,0,0,0,0,,V
Fixation,canvas.Screen,2_23_0_0,2022-07-04T16:09:33.087Z,,,1,A,2168.4459999999963,timeout,,,1076882.7999999998,1076881614,1074713171,1074727.4,1074729848,1076898294,,black,EL27SE03,22,f,1,0,Psychologie,0,0,0,0,0,,V
Stimulus,canvas.Screen,2_23_0_1,2022-07-04T16:09:33.187Z,,,1,A,99.8410000000149,timeout,,,1076982.9,1076981457,1076881614,1076883.1,1076898294,1076998135,,black,EL27SE03,22,f,1,0,Psychologie,0,0,0,0,0,,V
Reaction,canvas.Screen,2_23_0_2,2022-07-04T16:09:33.534Z,,,1,A,329.9650000000838,response,stim_detected,mousedown,1077329.7000000002,1077328.1,1076981457,1076983.1,1076998135,1077348284,,black,EL27SE03,22,f,1,0,Psychologie,0,0,0,0,0,,V
Trial,flow.Sequence,2_23_0,2022-07-04T16:09:33.534Z,,,1,A,2598.252000000095,completion,,,1077330.1,1077328.1,1074713171,1074727.2999999998,1074729848,1077348284,,black,EL27SE03,22,f,1,0,Psychologie,0,0,0,0,0,,V
Frame,canvas.Frame,2_23,2022-07-04T16:09:33.535Z,,,1,A,2600.352000000188,,,,1077330.4,1077330.2000000002,1074713171,1074726.5,1074729848,1077348284,,black,EL27SE03,22,f,1,0,Psychologie,0,0,0,0,0,,V
Fixation,canvas.Screen,2_24_0_0,2022-07-04T16:09:35.739Z,,,1,AV,2200.753999999957,timeout,,,1079534.1,1079532365,1077314.93,1077331.6,1077348284,1079549038,,grey,EL27SE03,22,f,1,0,Psychologie,0,0,0,0,0,,A
Stimulus,canvas.Screen,2_24_0_1,2022-07-04T16:09:35.838Z,,,1,AV,100.35499999998137,timeout,,,1079634.1,1079632718,1079532365,1079534.5,1079549038,1079649393,,grey,EL27SE03,22,f,1,0,Psychologie,0,0,0,0,0,,A
Reaction,canvas.Screen,2_24_0_2,2022-07-04T16:09:35.990Z,,,1,AV,134.80700000026263,response,stim_detected,mousedown,1079785.7999999998,1079784.2000000002,1079632718,1079634.2999999998,1079649393,1079799953,,grey,EL27SE03,22,f,1,0,Psychologie,0,0,0,0,0,,A
Trial,flow.Sequence,2_24_0,2022-07-04T16:09:35.991Z,,,1,AV,2435.916000000201,completion,,,1079786.2000000002,1079784.2000000002,1077314.93,1077331.6,1077348284,1079799953,,grey,EL27SE03,22,f,1,0,Psychologie,0,0,0,0,0,,A
Frame,canvas.Frame,2_24,2022-07-04T16:09:35.991Z,,,1,AV,2438.0159999998286,,,,1079786.6,1079786.2999999998,1077314.93,1077330.7000000002,1077348284,1079799953,,grey,EL27SE03,22,f,1,0,Psychologie,0,0,0,0,0,,A
Fixation,canvas.Screen,2_25_0_0,2022-07-04T16:09:37.589Z,,,1,A,1600.2239999999292,timeout,,,1081385,1081383507,1079783275,1079787.7000000002,1079799953,1081400177,,black,EL27SE03,22,f,1,0,Psychologie,0,0,0,0,0,,AV
Stimulus,canvas.Screen,2_25_0_1,2022-07-04T16:09:37.689Z,,,1,A,100.70200000004843,timeout,,,1081485.1,1081484203,1081383507,1081385.2999999998,1081400177,1081500879,,black,EL27SE03,22,f,1,0,Psychologie,0,0,0,0,0,,AV
Reaction,canvas.Screen,2_25_0_2,2022-07-04T16:09:37.991Z,,,1,A,284.221000000136,response,stim_detected,mousedown,1081786.6,1081785.1,1081484203,1081485.4,1081500879,1081801253,,black,EL27SE03,22,f,1,0,Psychologie,0,0,0,0,0,,AV
Trial,flow.Sequence,2_25_0,2022-07-04T16:09:37.991Z,,,1,A,1985.1470000001136,completion,,,1081787,1081785.1,1079783275,1079787.6,1079799953,1081801253,,black,EL27SE03,22,f,1,0,Psychologie,0,0,0,0,0,,AV
Frame,canvas.Frame,2_25,2022-07-04T16:09:37.992Z,,,1,A,1987.1470000001136,,,,1081787.2999999998,1081787.1,1079783275,1079786.7999999998,1079799953,1081801253,,black,EL27SE03,22,f,1,0,Psychologie,0,0,0,0,0,,AV
Fixation,canvas.Screen,2_26_0_0,2022-07-04T16:09:40.342Z,,,1,AV,2351.625999999931,timeout,,,1084137.2999999998,1084136201,1081784576,1081789.6,1081801253,1084152879,,grey,EL27SE03,22,f,1,0,Psychologie,0,0,0,0,0,,A
Stimulus,canvas.Screen,2_26_0_1,2022-07-04T16:09:40.442Z,,,1,AV,99.58600000012666,timeout,,,1084237.2000000002,1084235.79,1084136201,1084137.6,1084152879,1084252465,,grey,EL27SE03,22,f,1,0,Psychologie,0,0,0,0,0,,A
Reaction,canvas.Screen,2_26_0_2,2022-07-04T16:09:40.630Z,,,1,AV,171.6350000000093,response,stim_detected,mousedown,1084425.5,1084424.1,1084235.79,1084237.6,1084252465,1084436365,,grey,EL27SE03,22,f,1,0,Psychologie,0,0,0,0,0,,A
Trial,flow.Sequence,2_26_0,2022-07-04T16:09:40.630Z,,,1,AV,2622.847000000067,completion,,,1084426,1084424.1,1081784576,1081789.5,1081801253,1084436365,,grey,EL27SE03,22,f,1,0,Psychologie,0,0,0,0,0,,A
Frame,canvas.Frame,2_26,2022-07-04T16:09:40.631Z,,,1,AV,2624.94700000016,,,,1084426.2999999998,1084426.2000000002,1081784576,1081787.5,1081801253,1084436365,,grey,EL27SE03,22,f,1,0,Psychologie,0,0,0,0,0,,A
Fixation,canvas.Screen,2_27_0_0,2022-07-04T16:09:42.477Z,,,1,AV,1850.6399999998976,timeout,,,1086271.2999999998,1086270332,1084419688,1084427.5,1084436365,1086287005,,grey,EL27SE03,22,f,1,0,Psychologie,0,0,0,0,0,,AV
Stimulus,canvas.Screen,2_27_0_1,2022-07-04T16:09:42.578Z,,,1,AV,100.72200000006706,timeout,,,1086372.2000000002,1086371047,1086270332,1086271.5,1086287005,1086387727,,grey,EL27SE03,22,f,1,0,Psychologie,0,0,0,0,0,,AV
Reaction,canvas.Screen,2_27_0_2,2022-07-04T16:09:42.779Z,,,1,AV,184.17299999995157,response,stim_detected,mousedown,1086573.2999999998,1086571.9,1086371047,1086372.5,1086387727,1086587757,,grey,EL27SE03,22,f,1,0,Psychologie,0,0,0,0,0,,AV
Trial,flow.Sequence,2_27_0,2022-07-04T16:09:42.780Z,,,1,AV,2135.534999999916,completion,,,1086573.7000000002,1086571.9,1084419688,1084427.2999999998,1084436365,1086587757,,grey,EL27SE03,22,f,1,0,Psychologie,0,0,0,0,0,,AV
Frame,canvas.Frame,2_27,2022-07-04T16:09:42.780Z,,,1,AV,2137.534999999916,,,,1086574.1,1086573.9,1084419688,1084426.5,1084436365,1086587757,,grey,EL27SE03,22,f,1,0,Psychologie,0,0,0,0,0,,AV
Fixation,canvas.Screen,2_28_0_0,2022-07-04T16:09:44.380Z,,,1,A,1601.7960000000894,timeout,,,1088174.4,1088172868,1086571.08,1086575.4,1086587757,1088189553,,black,EL27SE03,22,f,1,0,Psychologie,0,0,0,0,0,,AV
Stimulus,canvas.Screen,2_28_0_1,2022-07-04T16:09:44.479Z,,,1,A,98.86299999989569,timeout,,,1088273.2999999998,1088271743,1088172868,1088174.5,1088189553,1088288416,,black,EL27SE03,22,f,1,0,Psychologie,0,0,0,0,0,,AV
Reaction,canvas.Screen,2_28_0_2,2022-07-04T16:09:44.714Z,,,1,A,218.58400000003166,response,stim_detected,mousedown,1088508.5,1088507,1088271743,1088273.6,1088288416,1088522425,,black,EL27SE03,22,f,1,0,Psychologie,0,0,0,0,0,,AV
Trial,flow.Sequence,2_28_0,2022-07-04T16:09:44.715Z,,,1,A,1919.2430000000168,completion,,,1088509,1088507,1086571.08,1086575.4,1086587757,1088522425,,black,EL27SE03,22,f,1,0,Psychologie,0,0,0,0,0,,AV
Frame,canvas.Frame,2_28,2022-07-04T16:09:44.715Z,,,1,A,1921.34300000011,,,,1088509.2999999998,1088509.1,1086571.08,1086574.2000000002,1086587757,1088522425,,black,EL27SE03,22,f,1,0,Psychologie,0,0,0,0,0,,AV
Fixation,canvas.Screen,2_29_0_0,2022-07-04T16:09:46.714Z,,,0,V,2001.246999999974,timeout,,,1090508.5,1090506995,1088505748,1088510.6,1088522425,1090523672,,grey,EL27SE03,22,f,1,0,Psychologie,0,0,0,0,0,,A
Stimulus,canvas.Screen,2_29_0_1,2022-07-04T16:09:46.814Z,,,0,V,99.88800000003539,timeout,,,1090608.5,1090606885,1090506995,1090508.7999999998,1090523672,1090623.56,,grey,EL27SE03,22,f,1,0,Psychologie,0,0,0,0,0,,A
Reaction,canvas.Screen,2_29_0_2,2022-07-04T16:09:46.997Z,,,0,V,165.43999999994412,response,stim_detected,mousedown,1090790.6,1090789,1090606885,1090608.6,1090623.56,1090807298,,grey,EL27SE03,22,f,1,0,Psychologie,0,0,0,0,0,,A
Trial,flow.Sequence,2_29_0,2022-07-04T16:09:46.997Z,,,0,V,2266.5749999999534,completion,,,1090791,1090789,1088505748,1088510.5,1088522425,1090807298,,grey,EL27SE03,22,f,1,0,Psychologie,0,0,0,0,0,,A
Frame,canvas.Frame,2_29,2022-07-04T16:09:46.997Z,,,0,V,2268.7750000001397,,,,1090791.5,1090791.2000000002,1088505748,1088509.6,1088522425,1090807298,,grey,EL27SE03,22,f,1,0,Psychologie,0,0,0,0,0,,A
Fixation,canvas.Screen,2_30_0_0,2022-07-04T16:09:48.848Z,,,0,V,1851.0209999999497,timeout,,,1092642.6,1092641643,1090790621,1090792.7999999998,1090807298,1092658319,,grey,EL27SE03,22,f,1,0,Psychologie,0,0,0,0,0,,V
Stimulus,canvas.Screen,2_30_0_1,2022-07-04T16:09:48.948Z,,,0,V,100.13700000010431,timeout,,,1092742.6,1092741.78,1092641643,1092642.9,1092658319,1092758456,,grey,EL27SE03,22,f,1,0,Psychologie,0,0,0,0,0,,V
Reaction,canvas.Screen,2_30_0_2,2022-07-04T16:09:49.161Z,,,0,V,195.5439999999944,response,stim_detected,mousedown,1092955.5,1092954,1092741.78,1092742.7999999998,1092758456,1092958693,,grey,EL27SE03,22,f,1,0,Psychologie,0,0,0,0,0,,V
Trial,flow.Sequence,2_30_0,2022-07-04T16:09:49.162Z,,,0,V,2146.7020000000484,completion,,,1092955.9,1092954,1090790621,1090792.7000000002,1090807298,1092958693,,grey,EL27SE03,22,f,1,0,Psychologie,0,0,0,0,0,,V
Frame,canvas.Frame,2_30,2022-07-04T16:09:49.162Z,,,0,V,2148.8020000001416,,,,1092956.2000000002,1092956.1,1090790621,1090791.7000000002,1090807298,1092958693,,grey,EL27SE03,22,f,1,0,Psychologie,0,0,0,0,0,,V
Fixation,canvas.Screen,2_31_0_0,2022-07-04T16:09:51.352Z,,,1,AV,2202.526000000071,timeout,,,1095145.7000000002,1095144534,1092942016,1092957.4,1092958693,1095161219,,grey,EL27SE03,22,f,1,0,Psychologie,0,0,0,0,0,,V
Stimulus,canvas.Screen,2_31_0_1,2022-07-04T16:09:51.451Z,,,1,AV,98.49900000006892,timeout,,,1095244.6,1095243044,1095144534,1095145.7999999998,1095161219,1095259718,,grey,EL27SE03,22,f,1,0,Psychologie,0,0,0,0,0,,V
Reaction,canvas.Screen,2_31_0_2,2022-07-04T16:09:51.603Z,,,1,AV,136.2819999998901,response,stim_detected,mousedown,1095397.5,1095396,1095243044,1095244.9,1095259718,1095410362,,grey,EL27SE03,22,f,1,0,Psychologie,0,0,0,0,0,,V
Trial,flow.Sequence,2_31_0,2022-07-04T16:09:51.604Z,,,1,AV,2437.30700000003,completion,,,1095397.7999999998,1095396,1092942016,1092957.2999999998,1092958693,1095410362,,grey,EL27SE03,22,f,1,0,Psychologie,0,0,0,0,0,,V
Frame,canvas.Frame,2_31,2022-07-04T16:09:51.604Z,,,1,AV,2439.30700000003,,,,1095398.2000000002,1095398,1092942016,1092956.4,1092958693,1095410362,,grey,EL27SE03,22,f,1,0,Psychologie,0,0,0,0,0,,V
Fixation,canvas.Screen,2_32_0_0,2022-07-04T16:09:53.819Z,,,1,AV,2218.0520000001416,timeout,,,1097612.7000000002,1097611737,1095393685,1095399.9,1095410362,1097628414,,grey,EL27SE03,22,f,1,0,Psychologie,0,0,0,0,0,,AV
Stimulus,canvas.Screen,2_32_0_1,2022-07-04T16:09:53.919Z,,,1,AV,100.06699999980628,timeout,,,1097712.7000000002,1097711804,1097611737,1097613,1097628414,1097728481,,grey,EL27SE03,22,f,1,0,Psychologie,0,0,0,0,0,,AV
Reaction,canvas.Screen,2_32_0_2,2022-07-04T16:09:54.067Z,,,1,AV,131.51900000008754,response,stim_detected,mousedown,1097861.4,1097860,1097711804,1097712.9,1097728481,1097878695,,grey,EL27SE03,22,f,1,0,Psychologie,0,0,0,0,0,,AV
Trial,flow.Sequence,2_32_0,2022-07-04T16:09:54.068Z,,,1,AV,2449.6380000000354,completion,,,1097861.7000000002,1097860,1095393685,1095399.7999999998,1095410362,1097878695,,grey,EL27SE03,22,f,1,0,Psychologie,0,0,0,0,0,,AV
Frame,canvas.Frame,2_32,2022-07-04T16:09:54.068Z,,,1,AV,2451.5379999999423,,,,1097862.1,1097861.9,1095393685,1095398.4,1095410362,1097878695,,grey,EL27SE03,22,f,1,0,Psychologie,0,0,0,0,0,,AV
Fixation,canvas.Screen,2_33_0_0,2022-07-04T16:09:56.554Z,,,0,V,2484.7099999999627,timeout,,,1100348.1,1100346729,1097862018,1097863.4,1097878695,1100363405,,grey,EL27SE03,22,f,1,0,Psychologie,0,0,0,0,0,,AV
Stimulus,canvas.Screen,2_33_0_1,2022-07-04T16:09:56.654Z,,,0,V,100.34499999997206,timeout,,,1100448,1100447029,1100346729,1100348.2999999998,1100363405,1100463.75,,grey,EL27SE03,22,f,1,0,Psychologie,0,0,0,0,0,,AV
Reaction,canvas.Screen,2_33_0_2,2022-07-04T16:09:56.794Z,,,0,V,123.25,response,stim_detected,mousedown,1100588.4,1100587,1100447029,1100448.2999999998,1100463.75,1100597166,,grey,EL27SE03,22,f,1,0,Psychologie,0,0,0,0,0,,AV
Trial,flow.Sequence,2_33_0,2022-07-04T16:09:56.795Z,,,0,V,2708.304999999935,completion,,,1100588.7999999998,1100587,1097862018,1097863.2999999998,1097878695,1100597166,,grey,EL27SE03,22,f,1,0,Psychologie,0,0,0,0,0,,AV
Frame,canvas.Frame,2_33,2022-07-04T16:09:56.795Z,,,0,V,2710.2049999998417,,,,1100589.2000000002,1100588.9,1097862018,1097862.2999999998,1097878695,1100597166,,grey,EL27SE03,22,f,1,0,Psychologie,0,0,0,0,0,,AV
Fixation,canvas.Screen,2_34_0_0,2022-07-04T16:09:59.223Z,,,0,V,2434.853000000119,timeout,,,1103017.1,1103015342,1100580489,1100590.2999999998,1100597166,1103032019,,grey,EL27SE03,22,f,1,0,Psychologie,0,0,0,0,0,,V
Stimulus,canvas.Screen,2_34_0_1,2022-07-04T16:09:59.322Z,,,0,V,100.16299999994226,timeout,,,1103116,1103115139,1103015342,1103017.2000000002,1103032019,1103132182,,grey,EL27SE03,22,f,1,0,Psychologie,0,0,0,0,0,,V
Reaction,canvas.Screen,2_34_0_2,2022-07-04T16:09:59.493Z,,,0,V,152.91800000006333,response,stim_detected,mousedown,1103286.6,1103285.1,1103115139,1103116.2999999998,1103132182,1103298952,,grey,EL27SE03,22,f,1,0,Psychologie,0,0,0,0,0,,V
Trial,flow.Sequence,2_34_0,2022-07-04T16:09:59.493Z,,,0,V,2687.934000000125,completion,,,1103287,1103285.1,1100580489,1100590.2000000002,1100597166,1103298952,,grey,EL27SE03,22,f,1,0,Psychologie,0,0,0,0,0,,V
Frame,canvas.Frame,2_34,2022-07-04T16:09:59.493Z,,,0,V,2689.934000000125,,,,1103287.2999999998,1103287.1,1100580489,1100589.2999999998,1100597166,1103298952,,grey,EL27SE03,22,f,1,0,Psychologie,0,0,0,0,0,,V
Fixation,canvas.Screen,2_35_0_0,2022-07-04T16:10:01.941Z,,,0,V,2451.525999999838,timeout,,,1105735.1,1105733801,1103282275,1103289.4,1103298952,1105750478,,grey,EL27SE03,22,f,1,0,Psychologie,0,0,0,0,0,,V
Stimulus,canvas.Screen,2_35_0_1,2022-07-04T16:10:02.041Z,,,0,V,100.19000000017695,timeout,,,1105835.2000000002,1105833991,1105733801,1105735.2999999998,1105750478,1105850668,,grey,EL27SE03,22,f,1,0,Psychologie,0,0,0,0,0,,V
Reaction,canvas.Screen,2_35_0_2,2022-07-04T16:10:02.220Z,,,0,V,162.23199999984354,response,stim_detected,mousedown,1106014.4,1106012.9,1105833991,1105835.5,1105850668,1106034124,,grey,EL27SE03,22,f,1,0,Psychologie,0,0,0,0,0,,V
Trial,flow.Sequence,2_35_0,2022-07-04T16:10:02.221Z,,,0,V,2713.9479999998584,completion,,,1106014.7999999998,1106012.9,1103282275,1103289.2999999998,1103298952,1106034124,,grey,EL27SE03,22,f,1,0,Psychologie,0,0,0,0,0,,V
Frame,canvas.Frame,2_35,2022-07-04T16:10:02.221Z,,,0,V,2715.9479999998584,,,,1106015.1,1106014.9,1103282275,1103287.5,1103298952,1106034124,,grey,EL27SE03,22,f,1,0,Psychologie,0,0,0,0,0,,V
Fixation,canvas.Screen,2_36_0_0,2022-07-04T16:10:04.293Z,,,1,AV,2068.9209999998566,timeout,,,1108087.2999999998,1108086361,1106000.77,1106016.2000000002,1106034124,1108103045,,grey,EL27SE03,22,f,1,0,Psychologie,0,0,0,0,0,,V
Stimulus,canvas.Screen,2_36_0_1,2022-07-04T16:10:04.392Z,,,1,AV,99.20800000010058,timeout,,,1108186.2999999998,1108185503,1108086361,1108087.6,1108103045,1108202253,,grey,EL27SE03,22,f,1,0,Psychologie,0,0,0,0,0,,V
Reaction,canvas.Screen,2_36_0_2,2022-07-04T16:10:04.533Z,,,1,AV,123.74699999997392,response,stim_detected,mousedown,1108327.5,1108326,1108185503,1108186.5,1108202253,1108335669,,grey,EL27SE03,22,f,1,0,Psychologie,0,0,0,0,0,,V
Trial,flow.Sequence,2_36_0,2022-07-04T16:10:04.534Z,,,1,AV,2291.875999999931,completion,,,1108327.9,1108326,1106000.77,1106016.1,1106034124,1108335669,,grey,EL27SE03,22,f,1,0,Psychologie,0,0,0,0,0,,V
Frame,canvas.Frame,2_36,2022-07-04T16:10:04.534Z,,,1,AV,2293.875999999931,,,,1108328.2999999998,1108328,1106000.77,1106015.2999999998,1106034124,1108335669,,grey,EL27SE03,22,f,1,0,Psychologie,0,0,0,0,0,,V
Fixation,canvas.Screen,2_37_0_0,2022-07-04T16:10:06.627Z,,,1,AV,2100.8889999999665,timeout,,,1110421.4,1110419884,1108318992,1108329.6,1108335669,1110436558,,grey,EL27SE03,22,f,1,0,Psychologie,0,0,0,0,0,,AV
Stimulus,canvas.Screen,2_37_0_1,2022-07-04T16:10:06.727Z,,,1,AV,100.4660000000149,timeout,,,1110521.2999999998,1110520347,1110419884,1110421.7000000002,1110436558,1110537024,,grey,EL27SE03,22,f,1,0,Psychologie,0,0,0,0,0,,AV
Reaction,canvas.Screen,2_37_0_2,2022-07-04T16:10:06.879Z,,,1,AV,134.77599999983795,response,stim_detected,mousedown,1110673.2999999998,1110671.7999999998,1110520347,1110521.5,1110537024,1110687253,,grey,EL27SE03,22,f,1,0,Psychologie,0,0,0,0,0,,AV
Trial,flow.Sequence,2_37_0,2022-07-04T16:10:06.880Z,,,1,AV,2336.1309999998193,completion,,,1110673.7000000002,1110671.7999999998,1108318992,1108329.6,1108335669,1110687253,,grey,EL27SE03,22,f,1,0,Psychologie,0,0,0,0,0,,AV
Frame,canvas.Frame,2_37,2022-07-04T16:10:06.880Z,,,1,AV,2338.1309999998193,,,,1110674,1110673.7999999998,1108318992,1108328.4,1108335669,1110687253,,grey,EL27SE03,22,f,1,0,Psychologie,0,0,0,0,0,,AV
Fixation,canvas.Screen,2_38_0_0,2022-07-04T16:10:08.695Z,,,1,AV,1817.4320000000298,timeout,,,1112489.6,1112488011,1110670576,1110675.2000000002,1110687253,1112504685,,grey,EL27SE03,22,f,1,0,Psychologie,0,0,0,0,0,,AV
Stimulus,canvas.Screen,2_38_0_1,2022-07-04T16:10:08.795Z,,,1,AV,100.54099999996834,timeout,,,1112589.6,1112588548,1112488011,1112489.9,1112504685,1112605226,,grey,EL27SE03,22,f,1,0,Psychologie,0,0,0,0,0,,AV
Reaction,canvas.Screen,2_38_0_2,2022-07-04T16:10:08.917Z,,,1,AV,104.57399999978952,response,stim_detected,mousedown,1112711.2999999998,1112709.7999999998,1112588548,1112589.7999999998,1112605226,1112721.9,,grey,EL27SE03,22,f,1,0,Psychologie,0,0,0,0,0,,AV
Trial,flow.Sequence,2_38_0,2022-07-04T16:10:08.918Z,,,1,AV,2022.5469999997877,completion,,,1112711.6,1112709.7999999998,1110670576,1110675.1,1110687253,1112721.9,,grey,EL27SE03,22,f,1,0,Psychologie,0,0,0,0,0,,AV
Frame,canvas.Frame,2_38,2022-07-04T16:10:08.918Z,,,1,AV,2024.5469999997877,,,,1112712,1112711.7999999998,1110670576,1110674.2000000002,1110687253,1112721.9,,grey,EL27SE03,22,f,1,0,Psychologie,0,0,0,0,0,,AV
Fixation,canvas.Screen,2_39_0_0,2022-07-04T16:10:11.265Z,,,1,AV,2352.3700000001118,timeout,,,1115058.7999999998,1115057587,1112705223,1112713.1,1112721.9,1115074.27,,grey,EL27SE03,22,f,1,0,Psychologie,0,0,0,0,0,,AV
Stimulus,canvas.Screen,2_39_0_1,2022-07-04T16:10:11.365Z,,,1,AV,99.32000000006519,timeout,,,1115159.5,1115156913,1115057587,1115059.1,1115074.27,1115173.59,,grey,EL27SE03,22,f,1,0,Psychologie,0,0,0,0,0,,AV
Reaction,canvas.Screen,2_39_0_2,2022-07-04T16:10:11.499Z,,,1,AV,118.11000000010245,response,stim_detected,mousedown,1115293.1,1115291.7000000002,1115156913,1115159.7000000002,1115173.59,1115306984,,grey,EL27SE03,22,f,1,0,Psychologie,0,0,0,0,0,,AV
Trial,flow.Sequence,2_39_0,2022-07-04T16:10:11.500Z,,,1,AV,2569.8000000002794,completion,,,1115293.6,1115291.7000000002,1112705223,1112713,1112721.9,1115306984,,grey,EL27SE03,22,f,1,0,Psychologie,0,0,0,0,0,,AV
Frame,canvas.Frame,2_39,2022-07-04T16:10:11.500Z,,,1,AV,2571.8000000002794,,,,1115294,1115293.7000000002,1112705223,1112712.1,1112721.9,1115306984,,grey,EL27SE03,22,f,1,0,Psychologie,0,0,0,0,0,,AV
Fixation,canvas.Screen,2_40_0_0,2022-07-04T16:10:13.033Z,,,1,A,1534.7020000000484,timeout,,,1116826.7000000002,1116825005,1115290307,1115295.1,1115306984,1116841686,,black,EL27SE03,22,f,1,0,Psychologie,0,0,0,0,0,,AV
Stimulus,canvas.Screen,2_40_0_1,2022-07-04T16:10:13.132Z,,,1,A,99.46500000008382,timeout,,,1116925.7000000002,1116924476,1116825005,1116826.9,1116841686,1116941151,,black,EL27SE03,22,f,1,0,Psychologie,0,0,0,0,0,,AV
Reaction,canvas.Screen,2_40_0_2,2022-07-04T16:10:13.433Z,,,1,A,284.64899999974295,response,stim_detected,mousedown,1117227.2000000002,1117225.7999999998,1116924476,1116926,1116941151,1117241621,,black,EL27SE03,22,f,1,0,Psychologie,0,0,0,0,0,,AV
Trial,flow.Sequence,2_40_0,2022-07-04T16:10:13.434Z,,,1,A,1918.8159999998752,completion,,,1117227.6,1117225.7999999998,1115290307,1115295,1115306984,1117241621,,black,EL27SE03,22,f,1,0,Psychologie,0,0,0,0,0,,AV
Frame,canvas.Frame,2_40,2022-07-04T16:10:13.434Z,,,1,A,1920.7160000002477,,,,1117227.9,1117227.7000000002,1115290307,1115294.2000000002,1115306984,1117241621,,black,EL27SE03,22,f,1,0,Psychologie,0,0,0,0,0,,AV
Fixation,canvas.Screen,2_41_0_0,2022-07-04T16:10:15.367Z,,,1,A,1934.128000000026,timeout,,,1119160.9,1119159075,1117224944,1117229.1,1117241621,1119175749,,black,EL27SE03,22,f,1,0,Psychologie,0,0,0,0,0,,A
Stimulus,canvas.Screen,2_41_0_1,2022-07-04T16:10:15.467Z,,,1,A,100.58299999986775,timeout,,,1119260.7999999998,1119259655,1119159075,1119161.2999999998,1119175749,1119276332,,black,EL27SE03,22,f,1,0,Psychologie,0,0,0,0,0,,A
Reaction,canvas.Screen,2_41_0_2,2022-07-04T16:10:15.800Z,,,1,A,316.46799999987707,response,stim_detected,mousedown,1119594.5,1119592.7999999998,1119259655,1119261.2999999998,1119276332,1119609869,,black,EL27SE03,22,f,1,0,Psychologie,0,0,0,0,0,,A
Trial,flow.Sequence,2_41_0,2022-07-04T16:10:15.801Z,,,1,A,2351.178999999771,completion,,,1119594.9,1119592.7999999998,1117224944,1117228.9,1117241621,1119609869,,black,EL27SE03,22,f,1,0,Psychologie,0,0,0,0,0,,A
Frame,canvas.Frame,2_41,2022-07-04T16:10:15.801Z,,,1,A,2353.378999999957,,,,1119595.2999999998,1119595,1117224944,1117228,1117241621,1119609869,,black,EL27SE03,22,f,1,0,Psychologie,0,0,0,0,0,,A
Fixation,canvas.Screen,2_42_0_0,2022-07-04T16:10:17.886Z,,,0,V,2085.371000000043,timeout,,,1121679.9,1121678558,1119593192,1119596.4,1119609869,1121695.24,,grey,EL27SE03,22,f,1,0,Psychologie,0,0,0,0,0,,A
Stimulus,canvas.Screen,2_42_0_1,2022-07-04T16:10:17.985Z,,,0,V,99.20900000003166,timeout,,,1121779.2999999998,1121777773,1121678558,1121680.2000000002,1121695.24,1121794449,,grey,EL27SE03,22,f,1,0,Psychologie,0,0,0,0,0,,A
Reaction,canvas.Screen,2_42_0_2,2022-07-04T16:10:18.156Z,,,0,V,154.2510000001639,response,stim_detected,mousedown,1121950.2000000002,1121948.7000000002,1121777773,1121779.4,1121794449,1121961455,,grey,EL27SE03,22,f,1,0,Psychologie,0,0,0,0,0,,A
Trial,flow.Sequence,2_42_0,2022-07-04T16:10:18.156Z,,,0,V,2338.8310000002384,completion,,,1121950.5,1121948.7000000002,1119593192,1119596.2999999998,1119609869,1121961455,,grey,EL27SE03,22,f,1,0,Psychologie,0,0,0,0,0,,A
Frame,canvas.Frame,2_42,2022-07-04T16:10:18.157Z,,,0,V,2340.7310000001453,,,,1121950.7999999998,1121950.6,1119593192,1119595.4,1119609869,1121961455,,grey,EL27SE03,22,f,1,0,Psychologie,0,0,0,0,0,,A
Fixation,canvas.Screen,2_43_0_0,2022-07-04T16:10:20.403Z,,,0,V,2250.655000000028,timeout,,,1124197,1124195438,1121944778,1121952.1,1121961455,1124212.11,,grey,EL27SE03,22,f,1,0,Psychologie,0,0,0,0,0,,V
Stimulus,canvas.Screen,2_43_0_1,2022-07-04T16:10:20.504Z,,,0,V,100.93900000001304,timeout,,,1124298,1124296.37,1124195438,1124197.2000000002,1124212.11,1124313049,,grey,EL27SE03,22,f,1,0,Psychologie,0,0,0,0,0,,V
Reaction,canvas.Screen,2_43_0_2,2022-07-04T16:10:20.669Z,,,0,V,148.55099999997765,response,stim_detected,mousedown,1124463.1,1124461.6,1124296.37,1124298.2000000002,1124313049,1124479795,,grey,EL27SE03,22,f,1,0,Psychologie,0,0,0,0,0,,V
Trial,flow.Sequence,2_43_0,2022-07-04T16:10:20.669Z,,,0,V,2500.1450000000186,completion,,,1124463.5,1124461.6,1121944778,1121952,1121961455,1124479795,,grey,EL27SE03,22,f,1,0,Psychologie,0,0,0,0,0,,V
Frame,canvas.Frame,2_43,2022-07-04T16:10:20.670Z,,,0,V,2502.1450000000186,,,,1124463.7999999998,1124463.6,1121944778,1121951,1121961455,1124479795,,grey,EL27SE03,22,f,1,0,Psychologie,0,0,0,0,0,,V
Fixation,canvas.Screen,2_44_0_0,2022-07-04T16:10:22.421Z,,,1,A,1750.4960000000428,timeout,,,1126215.1,1126213619,1124463118,1124465,1124479795,1126230291,,black,EL27SE03,22,f,1,0,Psychologie,0,0,0,0,0,,V
Stimulus,canvas.Screen,2_44_0_1,2022-07-04T16:10:22.522Z,,,1,A,100.82499999995343,timeout,,,1126316.2000000002,1126314437,1126213619,1126215.2999999998,1126230291,1126331116,,black,EL27SE03,22,f,1,0,Psychologie,0,0,0,0,0,,V
Reaction,canvas.Screen,2_44_0_2,2022-07-04T16:10:22.971Z,,,1,A,432.5840000002645,response,stim_detected,mousedown,1126765.1,1126763.7000000002,1126314437,1126316.2999999998,1126331116,1126781332,,black,EL27SE03,22,f,1,0,Psychologie,0,0,0,0,0,,V
Trial,flow.Sequence,2_44_0,2022-07-04T16:10:22.971Z,,,1,A,2283.9050000002608,completion,,,1126765.6,1126763.7000000002,1124463118,1124464.7999999998,1124479795,1126781332,,black,EL27SE03,22,f,1,0,Psychologie,0,0,0,0,0,,V
Frame,canvas.Frame,2_44,2022-07-04T16:10:22.972Z,,,1,A,2285.9050000002608,,,,1126765.7999999998,1126765.7000000002,1124463118,1124464.1,1124479795,1126781332,,black,EL27SE03,22,f,1,0,Psychologie,0,0,0,0,0,,V
Fixation,canvas.Screen,2_45_0_0,2022-07-04T16:10:25.306Z,,,1,A,2334.440000000177,timeout,,,1129100.4,1129099097,1126764655,1126766.9,1126781332,1129115772,,black,EL27SE03,22,f,1,0,Psychologie,0,0,0,0,0,,A
Stimulus,canvas.Screen,2_45_0_1,2022-07-04T16:10:25.407Z,,,1,A,100.52599999983795,timeout,,,1129201.5,1129199621,1129099097,1129100.7000000002,1129115772,1129216298,,black,EL27SE03,22,f,1,0,Psychologie,0,0,0,0,0,,A
Reaction,canvas.Screen,2_45_0_2,2022-07-04T16:10:25.689Z,,,1,A,265.30200000014156,response,stim_detected,mousedown,1129483.1,1129481.6,1129199621,1129201.9,1129216298,1129499795,,black,EL27SE03,22,f,1,0,Psychologie,0,0,0,0,0,,A
Trial,flow.Sequence,2_45_0,2022-07-04T16:10:25.689Z,,,1,A,2700.2680000001565,completion,,,1129483.5,1129481.6,1126764655,1126766.9,1126781332,1129499795,,black,EL27SE03,22,f,1,0,Psychologie,0,0,0,0,0,,A
Frame,canvas.Frame,2_45,2022-07-04T16:10:25.690Z,,,1,A,2702.2680000001565,,,,1129483.9,1129483.6,1126764655,1126766,1126781332,1129499795,,black,EL27SE03,22,f,1,0,Psychologie,0,0,0,0,0,,A
Fixation,canvas.Screen,2_46_0_0,2022-07-04T16:10:27.475Z,,,1,A,1785.1720000000205,timeout,,,1131269.4,1131268284,1129483118,1129485.1,1129499795,1131284967,,black,EL27SE03,22,f,1,0,Psychologie,0,0,0,0,0,,A
Stimulus,canvas.Screen,2_46_0_1,2022-07-04T16:10:27.575Z,,,1,A,99.46500000008382,timeout,,,1131369.4,1131367713,1131268284,1131269.6,1131284967,1131384432,,black,EL27SE03,22,f,1,0,Psychologie,0,0,0,0,0,,A
Reaction,canvas.Screen,2_46_0_2,2022-07-04T16:10:27.926Z,,,1,A,334.16800000006333,response,stim_detected,mousedown,1131720.2000000002,1131718.6,1131367713,1131369.7000000002,1131384432,1131734649,,black,EL27SE03,22,f,1,0,Psychologie,0,0,0,0,0,,A
Trial,flow.Sequence,2_46_0,2022-07-04T16:10:27.926Z,,,1,A,2218.8050000001676,completion,,,1131720.5,1131718.6,1129483118,1129485,1129499795,1131734649,,black,EL27SE03,22,f,1,0,Psychologie,0,0,0,0,0,,A
Frame,canvas.Frame,2_46,2022-07-04T16:10:27.927Z,,,1,A,2220.9050000002608,,,,1131720.9,1131720.7000000002,1129483118,1129484,1129499795,1131734649,,black,EL27SE03,22,f,1,0,Psychologie,0,0,0,0,0,,A
Fixation,canvas.Screen,2_47_0_0,2022-07-04T16:10:30.327Z,,,0,V,2401.1699999999255,timeout,,,1134120.7000000002,1134119144,1131717972,1131722,1131734649,1134135819,,grey,EL27SE03,22,f,1,0,Psychologie,0,0,0,0,0,,A
Stimulus,canvas.Screen,2_47_0_1,2022-07-04T16:10:30.427Z,,,0,V,100.05500000016764,timeout,,,1134220.7999999998,1134219199,1134119144,1134121.1,1134135819,1134235874,,grey,EL27SE03,22,f,1,0,Psychologie,0,0,0,0,0,,A
Reaction,canvas.Screen,2_47_0_2,2022-07-04T16:10:30.613Z,,,0,V,169.82600000011735,response,stim_detected,mousedown,1134407.1,1134405.7000000002,1134219199,1134221.2999999998,1134235874,1134419777,,grey,EL27SE03,22,f,1,0,Psychologie,0,0,0,0,0,,A
Trial,flow.Sequence,2_47_0,2022-07-04T16:10:30.613Z,,,0,V,2671.0510000002105,completion,,,1134407.5,1134405.7000000002,1131717972,1131721.9,1131734649,1134419777,,grey,EL27SE03,22,f,1,0,Psychologie,0,0,0,0,0,,A
Frame,canvas.Frame,2_47,2022-07-04T16:10:30.614Z,,,0,V,2673.0510000002105,,,,1134407.7999999998,1134407.7000000002,1131717972,1131721,1131734649,1134419777,,grey,EL27SE03,22,f,1,0,Psychologie,0,0,0,0,0,,A
Fixation,canvas.Screen,2_48_0_0,2022-07-04T16:10:32.861Z,,,0,V,2250.65699999989,timeout,,,1136654.7000000002,1136653762,1134403.1,1134409,1134419777,1136670434,,grey,EL27SE03,22,f,1,0,Psychologie,0,0,0,0,0,,V
Stimulus,canvas.Screen,2_48_0_1,2022-07-04T16:10:32.962Z,,,0,V,100.34000000008382,timeout,,,1136755.6,1136754.1,1136653762,1136655,1136670434,1136770774,,grey,EL27SE03,22,f,1,0,Psychologie,0,0,0,0,0,,V
Reaction,canvas.Screen,2_48_0_2,2022-07-04T16:10:33.135Z,,,0,V,156.82600000011735,response,stim_detected,mousedown,1136929.5,1136927.6,1136754.1,1136755.7999999998,1136770774,1136938113,,grey,EL27SE03,22,f,1,0,Psychologie,0,0,0,0,0,,V
Trial,flow.Sequence,2_48_0,2022-07-04T16:10:33.136Z,,,0,V,2507.8230000000913,completion,,,1136929.9,1136927.6,1134403.1,1134408.9,1134419777,1136938113,,grey,EL27SE03,22,f,1,0,Psychologie,0,0,0,0,0,,V
Frame,canvas.Frame,2_48,2022-07-04T16:10:33.136Z,,,0,V,2510.222999999998,,,,1136930.2000000002,1136930,1134403.1,1134408,1134419777,1136938113,,grey,EL27SE03,22,f,1,0,Psychologie,0,0,0,0,0,,V
Fixation,canvas.Screen,2_49_0_0,2022-07-04T16:10:35.497Z,,,1,A,2368.131000000052,timeout,,,1139290.7000000002,1139289567,1136921436,1136931.5,1136938113,1139306244,,black,EL27SE03,22,f,1,0,Psychologie,0,0,0,0,0,,V
Stimulus,canvas.Screen,2_49_0_1,2022-07-04T16:10:35.597Z,,,1,A,99.7609999999404,timeout,,,1139390.7999999998,1139389.33,1139289567,1139291,1139306244,1139406005,,black,EL27SE03,22,f,1,0,Psychologie,0,0,0,0,0,,V
Reaction,canvas.Screen,2_49_0_2,2022-07-04T16:10:35.817Z,,,1,A,203.5950000002049,response,stim_detected,mousedown,1139611.1,1139609.6,1139389.33,1139391.1,1139406005,1139623246,,black,EL27SE03,22,f,1,0,Psychologie,0,0,0,0,0,,V
Trial,flow.Sequence,2_49_0,2022-07-04T16:10:35.817Z,,,1,A,2671.4870000001974,completion,,,1139611.4,1139609.6,1136921436,1136931.4,1136938113,1139623246,,black,EL27SE03,22,f,1,0,Psychologie,0,0,0,0,0,,V
Frame,canvas.Frame,2_49,2022-07-04T16:10:35.818Z,,,1,A,2673.3870000001043,,,,1139611.7000000002,1139611.5,1136921436,1136930.6,1136938113,1139623246,,black,EL27SE03,22,f,1,0,Psychologie,0,0,0,0,0,,V
Fixation,canvas.Screen,2_50_0_0,2022-07-04T16:10:37.398Z,,,1,A,1583.658000000054,timeout,,,1141191.7999999998,1141190233,1139606569,1139612.9,1139623246,1141206904,,black,EL27SE03,22,f,1,0,Psychologie,0,0,0,0,0,,A
Stimulus,canvas.Screen,2_50_0_1,2022-07-04T16:10:37.498Z,,,1,A,100.83599999989383,timeout,,,1141291.9,1141291061,1141190233,1141192,1141206904,1141307.74,,black,EL27SE03,22,f,1,0,Psychologie,0,0,0,0,0,,A
Reaction,canvas.Screen,2_50_0_2,2022-07-04T16:10:37.839Z,,,1,A,323.7600000000093,response,stim_detected,mousedown,1141633,1141631.5,1141291061,1141292.1,1141307.74,1141641255,,black,EL27SE03,22,f,1,0,Psychologie,0,0,0,0,0,,A
Trial,flow.Sequence,2_50_0,2022-07-04T16:10:37.839Z,,,1,A,2008.2539999999572,completion,,,1141633.4,1141631.5,1139606569,1139612.7999999998,1139623246,1141641255,,black,EL27SE03,22,f,1,0,Psychologie,0,0,0,0,0,,A
Frame,canvas.Frame,2_50,2022-07-04T16:10:37.840Z,,,1,A,2010.2539999999572,,,,1141633.7000000002,1141633.5,1139606569,1139611.9,1139623246,1141641255,,black,EL27SE03,22,f,1,0,Psychologie,0,0,0,0,0,,A
Fixation,canvas.Screen,2_51_0_0,2022-07-04T16:10:39.917Z,,,1,A,2085.0450000001583,timeout,,,1143711.1,1143709.62,1141624578,1141635,1141641255,1143726.3,,black,EL27SE03,22,f,1,0,Psychologie,0,0,0,0,0,,A
Stimulus,canvas.Screen,2_51_0_1,2022-07-04T16:10:40.017Z,,,1,A,99.67099999985658,timeout,,,1143811,1143809294,1143709.62,1143711.4,1143726.3,1143825971,,black,EL27SE03,22,f,1,0,Psychologie,0,0,0,0,0,,A
Reaction,canvas.Screen,2_51_0_2,2022-07-04T16:10:40.171Z,,,1,A,137.62900000019,response,stim_detected,mousedown,1143965,1143963.6,1143809294,1143811.2000000002,1143825971,1143976147,,black,EL27SE03,22,f,1,0,Psychologie,0,0,0,0,0,,A
Trial,flow.Sequence,2_51_0,2022-07-04T16:10:40.171Z,,,1,A,2322.345000000205,completion,,,1143965.4,1143963.6,1141624578,1141634.7999999998,1141641255,1143976147,,black,EL27SE03,22,f,1,0,Psychologie,0,0,0,0,0,,A
Frame,canvas.Frame,2_51,2022-07-04T16:10:40.172Z,,,1,A,2324.2450000001118,,,,1143965.7000000002,1143965.5,1141624578,1141634,1141641255,1143976147,,black,EL27SE03,22,f,1,0,Psychologie,0,0,0,0,0,,A
Fixation,canvas.Screen,2_52_0_0,2022-07-04T16:10:42.168Z,,,1,AV,2001.6520000000019,timeout,,,1145962,1145961119,1143959.47,1143966.7999999998,1143976147,1145977799,,grey,EL27SE03,22,f,1,0,Psychologie,0,0,0,0,0,,A
Stimulus,canvas.Screen,2_52_0_1,2022-07-04T16:10:42.268Z,,,1,AV,99.84499999997206,timeout,,,1146062.2000000002,1146060965,1145961119,1145962.2000000002,1145977799,1146077644,,grey,EL27SE03,22,f,1,0,Psychologie,0,0,0,0,0,,A
Reaction,canvas.Screen,2_52_0_2,2022-07-04T16:10:42.420Z,,,1,AV,134.85599999991246,response,stim_detected,mousedown,1146213.9,1146212.5,1146060965,1146062.4,1146077644,1146227667,,grey,EL27SE03,22,f,1,0,Psychologie,0,0,0,0,0,,A
Trial,flow.Sequence,2_52_0,2022-07-04T16:10:42.420Z,,,1,AV,2236.3529999998864,completion,,,1146214.4,1146212.5,1143959.47,1143966.7000000002,1143976147,1146227667,,grey,EL27SE03,22,f,1,0,Psychologie,0,0,0,0,0,,A
Frame,canvas.Frame,2_52,2022-07-04T16:10:42.420Z,,,1,AV,2238.3529999998864,,,,1146214.7000000002,1146214.5,1143959.47,1143965.9,1143976147,1146227667,,grey,EL27SE03,22,f,1,0,Psychologie,0,0,0,0,0,,A
Fixation,canvas.Screen,2_53_0_0,2022-07-04T16:10:44.870Z,,,1,AV,2452.4810000001453,timeout,,,1148664.4,1148663465,1146210.99,1146215.9,1146227667,1148680148,,grey,EL27SE03,22,f,1,0,Psychologie,0,0,0,0,0,,AV
Stimulus,canvas.Screen,2_53_0_1,2022-07-04T16:10:44.970Z,,,1,AV,99.23999999999069,timeout,,,1148764.4,1148762711,1148663465,1148664.6,1148680148,1148779388,,grey,EL27SE03,22,f,1,0,Psychologie,0,0,0,0,0,,AV
Reaction,canvas.Screen,2_53_0_2,2022-07-04T16:10:45.137Z,,,1,AV,150.1119999999646,response,stim_detected,mousedown,1148931.2999999998,1148929.5,1148762711,1148764.6,1148779388,1148946136,,grey,EL27SE03,22,f,1,0,Psychologie,0,0,0,0,0,,AV
Trial,flow.Sequence,2_53_0,2022-07-04T16:10:45.137Z,,,1,AV,2701.8330000001006,completion,,,1148931.7000000002,1148929.5,1146210.99,1146215.7999999998,1146227667,1148946136,,grey,EL27SE03,22,f,1,0,Psychologie,0,0,0,0,0,,AV
Frame,canvas.Frame,2_53,2022-07-04T16:10:45.138Z,,,1,AV,2704.1329999999143,,,,1148931.9,1148931.7999999998,1146210.99,1146214.7999999998,1146227667,1148946136,,grey,EL27SE03,22,f,1,0,Psychologie,0,0,0,0,0,,AV
Fixation,canvas.Screen,2_54_0_0,2022-07-04T16:10:47.588Z,,,1,AV,2451.694000000134,timeout,,,1151382.5,1151381152,1148929.46,1148933,1148946136,1151397.83,,grey,EL27SE03,22,f,1,0,Psychologie,0,0,0,0,0,,AV
Stimulus,canvas.Screen,2_54_0_1,2022-07-04T16:10:47.688Z,,,1,AV,99.84899999992922,timeout,,,1151482.5,1151481003,1151381152,1151382.7999999998,1151397.83,1151497679,,grey,EL27SE03,22,f,1,0,Psychologie,0,0,0,0,0,,AV
Reaction,canvas.Screen,2_54_0_2,2022-07-04T16:10:47.828Z,,,1,AV,122.82099999999627,response,stim_detected,mousedown,1151622.1,1151620.5,1151481003,1151482.7999999998,1151497679,1151631276,,grey,EL27SE03,22,f,1,0,Psychologie,0,0,0,0,0,,AV
Trial,flow.Sequence,2_54_0,2022-07-04T16:10:47.828Z,,,1,AV,2674.3640000000596,completion,,,1151622.4,1151620.5,1148929.46,1148932.9,1148946136,1151631276,,grey,EL27SE03,22,f,1,0,Psychologie,0,0,0,0,0,,AV
Frame,canvas.Frame,2_54,2022-07-04T16:10:47.829Z,,,1,AV,2676.4640000001527,,,,1151622.7999999998,1151622.6,1148929.46,1148932.1,1148946136,1151631276,,grey,EL27SE03,22,f,1,0,Psychologie,0,0,0,0,0,,AV
Fixation,canvas.Screen,2_55_0_0,2022-07-04T16:10:50.074Z,,,0,V,2252.086999999825,timeout,,,1153868.4,1153866681,1151614599,1151623.9,1151631276,1153883363,,grey,EL27SE03,22,f,1,0,Psychologie,0,0,0,0,0,,AV
Stimulus,canvas.Screen,2_55_0_1,2022-07-04T16:10:50.173Z,,,0,V,99.28300000005402,timeout,,,1153967.6,1153965.97,1153866681,1153868.7000000002,1153883363,1153982646,,grey,EL27SE03,22,f,1,0,Psychologie,0,0,0,0,0,,AV
Reaction,canvas.Screen,2_55_0_2,2022-07-04T16:10:50.404Z,,,0,V,213.75399999995716,response,stim_detected,mousedown,1154197.9,1154196.4,1153965.97,1153967.7999999998,1153982646,1154199661,,grey,EL27SE03,22,f,1,0,Psychologie,0,0,0,0,0,,AV
Trial,flow.Sequence,2_55_0,2022-07-04T16:10:50.404Z,,,0,V,2565.123999999836,completion,,,1154198.2999999998,1154196.4,1151614599,1151623.7999999998,1151631276,1154199661,,grey,EL27SE03,22,f,1,0,Psychologie,0,0,0,0,0,,AV
Frame,canvas.Frame,2_55,2022-07-04T16:10:50.404Z,,,0,V,2567.123999999836,,,,1154198.6,1154198.4,1151614599,1151623,1151631276,1154199661,,grey,EL27SE03,22,f,1,0,Psychologie,0,0,0,0,0,,AV
Fixation,canvas.Screen,2_56_0_0,2022-07-04T16:10:52.058Z,,,1,A,1667.936999999918,timeout,,,1155852.5,1155850919,1154182984,1154200,1154199661,1155867598,,black,EL27SE03,22,f,1,0,Psychologie,0,0,0,0,0,,V
Stimulus,canvas.Screen,2_56_0_1,2022-07-04T16:10:52.157Z,,,1,A,99.90200000000186,timeout,,,1155951.5,1155950.77,1155850919,1155852.7000000002,1155867598,1155967.5,,black,EL27SE03,22,f,1,0,Psychologie,0,0,0,0,0,,V
Reaction,canvas.Screen,2_56_0_2,2022-07-04T16:10:52.568Z,,,1,A,392.89999999990687,response,stim_detected,mousedown,1156361.9,1156360.4,1155950.77,1155951.7000000002,1155967.5,1156367748,,black,EL27SE03,22,f,1,0,Psychologie,0,0,0,0,0,,V
Trial,flow.Sequence,2_56_0,2022-07-04T16:10:52.568Z,,,1,A,2160.738999999827,completion,,,1156362.2999999998,1156360.4,1154182984,1154199.7999999998,1154199661,1156367748,,black,EL27SE03,22,f,1,0,Psychologie,0,0,0,0,0,,V
Frame,canvas.Frame,2_56,2022-07-04T16:10:52.568Z,,,1,A,2162.83899999992,,,,1156362.6,1156362.5,1154182984,1154198.7999999998,1154199661,1156367748,,black,EL27SE03,22,f,1,0,Psychologie,0,0,0,0,0,,V
Fixation,canvas.Screen,2_57_0_0,2022-07-04T16:10:54.644Z,,,1,AV,2085.228000000119,timeout,,,1158437.9,1158436295,1156351071,1156363.7999999998,1156367748,1158452976,,grey,EL27SE03,22,f,1,0,Psychologie,0,0,0,0,0,,A
Stimulus,canvas.Screen,2_57_0_1,2022-07-04T16:10:54.743Z,,,1,AV,99.49600000004284,timeout,,,1158536.7999999998,1158535795,1158436295,1158438.2000000002,1158452976,1158552472,,grey,EL27SE03,22,f,1,0,Psychologie,0,0,0,0,0,,A
Reaction,canvas.Screen,2_57_0_2,2022-07-04T16:10:54.922Z,,,1,AV,161.9279999998398,response,stim_detected,mousedown,1158715.7999999998,1158714.4,1158535795,1158537.1,1158552472,1158719.36,,grey,EL27SE03,22,f,1,0,Psychologie,0,0,0,0,0,,A
Trial,flow.Sequence,2_57_0,2022-07-04T16:10:54.922Z,,,1,AV,2346.652000000002,completion,,,1158716.1,1158714.4,1156351071,1156363.6,1156367748,1158719.36,,grey,EL27SE03,22,f,1,0,Psychologie,0,0,0,0,0,,A
Frame,canvas.Frame,2_57,2022-07-04T16:10:54.922Z,,,1,AV,2348.5519999999087,,,,1158716.5,1158716.2999999998,1156351071,1156362.7999999998,1156367748,1158719.36,,grey,EL27SE03,22,f,1,0,Psychologie,0,0,0,0,0,,A
Fixation,canvas.Screen,2_58_0_0,2022-07-04T16:10:57.311Z,,,1,A,2401.335999999894,timeout,,,1161105,1161104.02,1158702683,1158717.9,1158719.36,1161120696,,black,EL27SE03,22,f,1,0,Psychologie,0,0,0,0,0,,AV
Stimulus,canvas.Screen,2_58_0_1,2022-07-04T16:10:57.412Z,,,1,A,100.35400000005029,timeout,,,1161205.9,1161204373,1161104.02,1161105.1,1161120696,1161221.05,,black,EL27SE03,22,f,1,0,Psychologie,0,0,0,0,0,,AV
Reaction,canvas.Screen,2_58_0_2,2022-07-04T16:10:57.579Z,,,1,A,150.3499999998603,response,stim_detected,mousedown,1161372.9,1161371.4,1161204373,1161206.1,1161221.05,1161387787,,black,EL27SE03,22,f,1,0,Psychologie,0,0,0,0,0,,AV
Trial,flow.Sequence,2_58_0,2022-07-04T16:10:57.579Z,,,1,A,2652.0399999998044,completion,,,1161373.2000000002,1161371.4,1158702683,1158717.7999999998,1158719.36,1161387787,,black,EL27SE03,22,f,1,0,Psychologie,0,0,0,0,0,,AV
Frame,canvas.Frame,2_58,2022-07-04T16:10:57.579Z,,,1,A,2654.0399999998044,,,,1161373.6,1161373.4,1158702683,1158716.7000000002,1158719.36,1161387787,,black,EL27SE03,22,f,1,0,Psychologie,0,0,0,0,0,,AV
Fixation,canvas.Screen,2_59_0_0,2022-07-04T16:10:59.580Z,,,0,V,2001.8540000000503,timeout,,,1163374,1163372959,1161371.11,1161374.7000000002,1161387787,1163389641,,grey,EL27SE03,22,f,1,0,Psychologie,0,0,0,0,0,,A
Stimulus,canvas.Screen,2_59_0_1,2022-07-04T16:10:59.680Z,,,0,V,99.54000000003725,timeout,,,1163473.9,1163472504,1163372959,1163374.2000000002,1163389641,1163489181,,grey,EL27SE03,22,f,1,0,Psychologie,0,0,0,0,0,,A
Reaction,canvas.Screen,2_59_0_2,2022-07-04T16:10:59.900Z,,,0,V,203.21899999980815,response,stim_detected,mousedown,1163693.7999999998,1163692.4,1163472504,1163474.1,1163489181,1163706007,,grey,EL27SE03,22,f,1,0,Psychologie,0,0,0,0,0,,A
Trial,flow.Sequence,2_59_0,2022-07-04T16:10:59.900Z,,,0,V,2304.6129999998957,completion,,,1163694.4,1163692.4,1161371.11,1161374.6,1161387787,1163706007,,grey,EL27SE03,22,f,1,0,Psychologie,0,0,0,0,0,,A
Frame,canvas.Frame,2_59,2022-07-04T16:10:59.900Z,,,0,V,2306.712999999989,,,,1163694.6,1163694.5,1161371.11,1161373.7000000002,1161387787,1163706007,,grey,EL27SE03,22,f,1,0,Psychologie,0,0,0,0,0,,A
Fixation,canvas.Screen,2_60_0_0,2022-07-04T16:11:02.331Z,,,1,AV,2434.2020000000484,timeout,,,1166124.9,1166123536,1163689.33,1163695.7999999998,1163706007,1166140209,,grey,EL27SE03,22,f,1,0,Psychologie,0,0,0,0,0,,V
Stimulus,canvas.Screen,2_60_0_1,2022-07-04T16:11:02.432Z,,,1,AV,100.83700000005774,timeout,,,1166226,1166224369,1166123536,1166125.2000000002,1166140209,1166241046,,grey,EL27SE03,22,f,1,0,Psychologie,0,0,0,0,0,,V
Reaction,canvas.Screen,2_60_0_2,2022-07-04T16:11:02.643Z,,,1,AV,194.35399999981746,response,stim_detected,mousedown,1166436.7999999998,1166435.4,1166224369,1166226.2999999998,1166241046,1166441148,,grey,EL27SE03,22,f,1,0,Psychologie,0,0,0,0,0,,V
Trial,flow.Sequence,2_60_0,2022-07-04T16:11:02.643Z,,,1,AV,2729.3929999999236,completion,,,1166437.2000000002,1166435.4,1163689.33,1163695.7999999998,1163706007,1166441148,,grey,EL27SE03,22,f,1,0,Psychologie,0,0,0,0,0,,V
Frame,canvas.Frame,2_60,2022-07-04T16:11:02.643Z,,,1,AV,2731.3929999999236,,,,1166437.5,1166437.4,1163689.33,1163694.9,1163706007,1166441148,,grey,EL27SE03,22,f,1,0,Psychologie,0,0,0,0,0,,V
Fixation,canvas.Screen,2_61_0_0,2022-07-04T16:11:04.985Z,,,1,A,2352.716999999946,timeout,,,1168779.1,1168777.18,1166424471,1166438.7999999998,1166441148,1168793865,,black,EL27SE03,22,f,1,0,Psychologie,0,0,0,0,0,,AV
Stimulus,canvas.Screen,2_61_0_1,2022-07-04T16:11:05.083Z,,,1,A,98.98799999989569,timeout,,,1168877.2000000002,1168876176,1168777.18,1168779.2999999998,1168793865,1168892853,,black,EL27SE03,22,f,1,0,Psychologie,0,0,0,0,0,,AV
Reaction,canvas.Screen,2_61_0_2,2022-07-04T16:11:05.265Z,,,1,A,164.44699999992736,response,stim_detected,mousedown,1169059.1,1169057.2999999998,1168876176,1168877.5,1168892853,1169076267,,black,EL27SE03,22,f,1,0,Psychologie,0,0,0,0,0,,AV
Trial,flow.Sequence,2_61_0,2022-07-04T16:11:05.265Z,,,1,A,2616.151999999769,completion,,,1169059.4,1169057.2999999998,1166424471,1166438.7999999998,1166441148,1169076267,,black,EL27SE03,22,f,1,0,Psychologie,0,0,0,0,0,,AV
Frame,canvas.Frame,2_61,2022-07-04T16:11:05.266Z,,,1,A,2618.4520000000484,,,,1169059.7999999998,1169059.6,1166424471,1166437.7000000002,1166441148,1169076267,,black,EL27SE03,22,f,1,0,Psychologie,0,0,0,0,0,,AV
Fixation,canvas.Screen,2_62_0_0,2022-07-04T16:11:06.851Z,,,1,A,1584.3209999999963,timeout,,,1170645.1,1170643911,1169059.59,1169061,1169076267,1170660588,,black,EL27SE03,22,f,1,0,Psychologie,0,0,0,0,0,,A
Stimulus,canvas.Screen,2_62_0_1,2022-07-04T16:11:06.951Z,,,1,A,100.1820000000298,timeout,,,1170745.2999999998,1170744092,1170643911,1170645.4,1170660588,1170760.77,,black,EL27SE03,22,f,1,0,Psychologie,0,0,0,0,0,,A
Reaction,canvas.Screen,2_62_0_2,2022-07-04T16:11:07.238Z,,,1,A,269.5299999997951,response,stim_detected,mousedown,1171031.7999999998,1171030.2999999998,1170744092,1170745.4,1170760.77,1171044255,,black,EL27SE03,22,f,1,0,Psychologie,0,0,0,0,0,,A
Trial,flow.Sequence,2_62_0,2022-07-04T16:11:07.238Z,,,1,A,1954.0329999998212,completion,,,1171032.1,1171030.2999999998,1169059.59,1169060.9,1169076267,1171044255,,black,EL27SE03,22,f,1,0,Psychologie,0,0,0,0,0,,A
Frame,canvas.Frame,2_62,2022-07-04T16:11:07.238Z,,,1,A,1956.0329999998212,,,,1171032.5,1171032.2999999998,1169059.59,1169059.9,1169076267,1171044255,,black,EL27SE03,22,f,1,0,Psychologie,0,0,0,0,0,,A
Fixation,canvas.Screen,2_63_0_0,2022-07-04T16:11:09.036Z,,,0,V,1801.6560000001919,timeout,,,1172830.2999999998,1172829229,1171027578,1171033.5,1171044255,1172845911,,grey,EL27SE03,22,f,1,0,Psychologie,0,0,0,0,0,,A
Stimulus,canvas.Screen,2_63_0_1,2022-07-04T16:11:09.135Z,,,0,V,99.15799999982119,timeout,,,1172929.4,1172928395,1172829229,1172830.5,1172845911,1172945069,,grey,EL27SE03,22,f,1,0,Psychologie,0,0,0,0,0,,A
Reaction,canvas.Screen,2_63_0_2,2022-07-04T16:11:09.336Z,,,0,V,183.23099999991246,response,stim_detected,mousedown,1173129.7999999998,1173128.2999999998,1172928395,1172929.6,1172945069,1173145669,,grey,EL27SE03,22,f,1,0,Psychologie,0,0,0,0,0,,A
Trial,flow.Sequence,2_63_0,2022-07-04T16:11:09.336Z,,,0,V,2084.0449999999255,completion,,,1173130.2000000002,1173128.2999999998,1171027578,1171033.5,1171044255,1173145669,,grey,EL27SE03,22,f,1,0,Psychologie,0,0,0,0,0,,A
Frame,canvas.Frame,2_63,2022-07-04T16:11:09.336Z,,,0,V,2086.1450000000186,,,,1173130.6,1173130.4,1171027578,1171032.6,1171044255,1173145669,,grey,EL27SE03,22,f,1,0,Psychologie,0,0,0,0,0,,A
Fixation,canvas.Screen,2_64_0_0,2022-07-04T16:11:11.037Z,,,1,AV,1701.0530000000726,timeout,,,1174831.5,1174830045,1173128992,1173131.7000000002,1173145669,1174846722,,grey,EL27SE03,22,f,1,0,Psychologie,0,0,0,0,0,,V
Stimulus,canvas.Screen,2_64_0_1,2022-07-04T16:11:11.137Z,,,1,AV,99.9199999999255,timeout,,,1174931.5,1174929967,1174830045,1174831.7000000002,1174846722,1174946642,,grey,EL27SE03,22,f,1,0,Psychologie,0,0,0,0,0,,V
Reaction,canvas.Screen,2_64_0_2,2022-07-04T16:11:11.366Z,,,1,AV,212.6579999998212,response,stim_detected,mousedown,1175160.7000000002,1175159.2999999998,1174929967,1174931.7000000002,1174946642,1175180345,,grey,EL27SE03,22,f,1,0,Psychologie,0,0,0,0,0,,V
Trial,flow.Sequence,2_64_0,2022-07-04T16:11:11.367Z,,,1,AV,2013.6309999998193,completion,,,1175161.1,1175159.2999999998,1173128992,1173131.6,1173145669,1175180345,,grey,EL27SE03,22,f,1,0,Psychologie,0,0,0,0,0,,V
Frame,canvas.Frame,2_64,2022-07-04T16:11:11.367Z,,,1,AV,2015.5310000001919,,,,1175161.4,1175161.2000000002,1173128992,1173130.7000000002,1173145669,1175180345,,grey,EL27SE03,22,f,1,0,Psychologie,0,0,0,0,0,,V
Fixation,canvas.Screen,2_65_0_0,2022-07-04T16:11:13.740Z,,,0,V,2368.5460000000894,timeout,,,1177533.7000000002,1177532211,1175146991,1175162.6,1175180345,1177548891,,grey,EL27SE03,22,f,1,0,Psychologie,0,0,0,0,0,,AV
Stimulus,canvas.Screen,2_65_0_1,2022-07-04T16:11:13.838Z,,,0,V,99.18999999994412,timeout,,,1177632.7000000002,1177631407,1177532211,1177534.2000000002,1177548891,1177648081,,grey,EL27SE03,22,f,1,0,Psychologie,0,0,0,0,0,,AV
Reaction,canvas.Screen,2_65_0_2,2022-07-04T16:11:14.155Z,,,0,V,300.1190000001807,response,stim_detected,mousedown,1177949.7999999998,1177948.2000000002,1177631407,1177632.9,1177648081,1177965533,,grey,EL27SE03,22,f,1,0,Psychologie,0,0,0,0,0,,AV
Trial,flow.Sequence,2_65_0,2022-07-04T16:11:14.156Z,,,0,V,2767.855000000214,completion,,,1177950.2000000002,1177948.2000000002,1175146991,1175162.5,1175180345,1177965533,,grey,EL27SE03,22,f,1,0,Psychologie,0,0,0,0,0,,AV
Frame,canvas.Frame,2_65,2022-07-04T16:11:14.156Z,,,0,V,2769.9549999998417,,,,1177950.6,1177950.2999999998,1175146991,1175161.5,1175180345,1177965533,,grey,EL27SE03,22,f,1,0,Psychologie,0,0,0,0,0,,AV
Fixation,canvas.Screen,2_66_0_0,2022-07-04T16:11:16.423Z,,,0,V,2267.7630000000354,timeout,,,1180217.7000000002,1180216621,1177948856,1177951.7000000002,1177965533,1180233296,,grey,EL27SE03,22,f,1,0,Psychologie,0,0,0,0,0,,V
Stimulus,canvas.Screen,2_66_0_1,2022-07-04T16:11:16.524Z,,,0,V,100.51499999989755,timeout,,,1180318.7000000002,1180317133,1180216621,1180217.7999999998,1180233296,1180333811,,grey,EL27SE03,22,f,1,0,Psychologie,0,0,0,0,0,,V
Reaction,canvas.Screen,2_66_0_2,2022-07-04T16:11:16.702Z,,,0,V,161.3890000001993,response,stim_detected,mousedown,1180496.7000000002,1180495.2000000002,1180317133,1180319,1180333811,1180500591,,grey,EL27SE03,22,f,1,0,Psychologie,0,0,0,0,0,,V
Trial,flow.Sequence,2_66_0,2022-07-04T16:11:16.703Z,,,0,V,2529.6670000001322,completion,,,1180497.1,1180495.2000000002,1177948856,1177951.7000000002,1177965533,1180500591,,grey,EL27SE03,22,f,1,0,Psychologie,0,0,0,0,0,,V
Frame,canvas.Frame,2_66,2022-07-04T16:11:16.703Z,,,0,V,2531.6670000001322,,,,1180497.4,1180497.2000000002,1177948856,1177950.7999999998,1177965533,1180500591,,grey,EL27SE03,22,f,1,0,Psychologie,0,0,0,0,0,,V
Fixation,canvas.Screen,2_67_0_0,2022-07-04T16:11:18.943Z,,,1,A,2251.249000000069,timeout,,,1182736.7999999998,1182735164,1180483914,1180498.4,1180500591,1182751.84,,black,EL27SE03,22,f,1,0,Psychologie,0,0,0,0,0,,V
Stimulus,canvas.Screen,2_67_0_1,2022-07-04T16:11:19.043Z,,,1,A,100.20900000003166,timeout,,,1182836.7999999998,1182835372,1182735164,1182737.1,1182751.84,1182852049,,black,EL27SE03,22,f,1,0,Psychologie,0,0,0,0,0,,V
Reaction,canvas.Screen,2_67_0_2,2022-07-04T16:11:19.538Z,,,1,A,479.05099999997765,response,stim_detected,mousedown,1183332.6,1183331.1,1182835372,1182837.1,1182852049,1183335764,,black,EL27SE03,22,f,1,0,Psychologie,0,0,0,0,0,,V
Trial,flow.Sequence,2_67_0,2022-07-04T16:11:19.539Z,,,1,A,2830.5090000000782,completion,,,1183333,1183331.1,1180483914,1180498.2000000002,1180500591,1183335764,,black,EL27SE03,22,f,1,0,Psychologie,0,0,0,0,0,,V
Frame,canvas.Frame,2_67,2022-07-04T16:11:19.539Z,,,1,A,2832.6090000001714,,,,1183333.2999999998,1183333.2000000002,1180483914,1180497.5,1180500591,1183335764,,black,EL27SE03,22,f,1,0,Psychologie,0,0,0,0,0,,V
Fixation,canvas.Screen,2_68_0_0,2022-07-04T16:11:21.261Z,,,1,AV,1734.8340000000317,timeout,,,1185054.7999999998,1185053918,1183319087,1183334.5,1183335764,1185070598,,grey,EL27SE03,22,f,1,0,Psychologie,0,0,0,0,0,,A
Stimulus,canvas.Screen,2_68_0_1,2022-07-04T16:11:21.361Z,,,1,AV,99.83700000005774,timeout,,,1185154.9,1185153757,1185053918,1185055.1,1185070598,1185170435,,grey,EL27SE03,22,f,1,0,Psychologie,0,0,0,0,0,,A
Reaction,canvas.Screen,2_68_0_2,2022-07-04T16:11:21.562Z,,,1,AV,184.76500000013039,response,stim_detected,mousedown,1185356.6,1185355.2000000002,1185153757,1185155.1,1185170435,1185370485,,grey,EL27SE03,22,f,1,0,Psychologie,0,0,0,0,0,,A
Trial,flow.Sequence,2_68_0,2022-07-04T16:11:21.563Z,,,1,AV,2019.4360000002198,completion,,,1185356.9,1185355.2000000002,1183319087,1183334.2999999998,1183335764,1185370485,,grey,EL27SE03,22,f,1,0,Psychologie,0,0,0,0,0,,A
Frame,canvas.Frame,2_68,2022-07-04T16:11:21.563Z,,,1,AV,2021.3360000001267,,,,1185357.2000000002,1185357.1,1183319087,1183333.4,1183335764,1185370485,,grey,EL27SE03,22,f,1,0,Psychologie,0,0,0,0,0,,A
Fixation,canvas.Screen,2_69_0_0,2022-07-04T16:11:23.963Z,,,0,V,2402.44299999997,timeout,,,1187757.2000000002,1187756245,1185353808,1185358.6,1185370485,1187772928,,grey,EL27SE03,22,f,1,0,Psychologie,0,0,0,0,0,,AV
Stimulus,canvas.Screen,2_69_0_1,2022-07-04T16:11:24.062Z,,,0,V,98.98499999986961,timeout,,,1187856.6,1187855237,1187756245,1187757.4,1187772928,1187871913,,grey,EL27SE03,22,f,1,0,Psychologie,0,0,0,0,0,,AV
Reaction,canvas.Screen,2_69_0_2,2022-07-04T16:11:24.285Z,,,0,V,205.18700000015087,response,stim_detected,mousedown,1188078.9,1188077.1,1187855237,1187856.7999999998,1187871913,1188088982,,grey,EL27SE03,22,f,1,0,Psychologie,0,0,0,0,0,,AV
Trial,flow.Sequence,2_69_0,2022-07-04T16:11:24.285Z,,,0,V,2706.6149999999907,completion,,,1188079.2999999998,1188077.1,1185353808,1185358.5,1185370485,1188088982,,grey,EL27SE03,22,f,1,0,Psychologie,0,0,0,0,0,,AV
Frame,canvas.Frame,2_69,2022-07-04T16:11:24.285Z,,,0,V,2708.9149999998044,,,,1188079.6,1188079.4,1185353808,1185357.5,1185370485,1188088982,,grey,EL27SE03,22,f,1,0,Psychologie,0,0,0,0,0,,AV
Fixation,canvas.Screen,2_70_0_0,2022-07-04T16:11:26.631Z,,,1,AV,2351.8850000000093,timeout,,,1190425.2000000002,1190424187,1188072305,1188080.7000000002,1188088982,1190440867,,grey,EL27SE03,22,f,1,0,Psychologie,0,0,0,0,0,,V
Stimulus,canvas.Screen,2_70_0_1,2022-07-04T16:11:26.731Z,,,1,AV,99.59499999997206,timeout,,,1190525.1,1190523786,1190424187,1190425.4,1190440867,1190540462,,grey,EL27SE03,22,f,1,0,Psychologie,0,0,0,0,0,,V
Reaction,canvas.Screen,2_70_0_2,2022-07-04T16:11:26.892Z,,,1,AV,144.6380000000354,response,stim_detected,mousedown,1190686.7000000002,1190685.1,1190523786,1190525.4,1190540462,1190707392,,grey,EL27SE03,22,f,1,0,Psychologie,0,0,0,0,0,,V
Trial,flow.Sequence,2_70_0,2022-07-04T16:11:26.893Z,,,1,AV,2596.1180000000168,completion,,,1190687.1,1190685.1,1188072305,1188080.7000000002,1188088982,1190707392,,grey,EL27SE03,22,f,1,0,Psychologie,0,0,0,0,0,,V
Frame,canvas.Frame,2_70,2022-07-04T16:11:26.893Z,,,1,AV,2598.21800000011,,,,1190687.2999999998,1190687.2000000002,1188072305,1188079.7000000002,1188088982,1190707392,,grey,EL27SE03,22,f,1,0,Psychologie,0,0,0,0,0,,V
Fixation,canvas.Screen,2_71_0_0,2022-07-04T16:11:29.100Z,,,0,V,2202.0230000000447,timeout,,,1192894.4,1192892733,1190674038,1190688.6,1190707392,1192909415,,grey,EL27SE03,22,f,1,0,Psychologie,0,0,0,0,0,,AV
Stimulus,canvas.Screen,2_71_0_1,2022-07-04T16:11:29.199Z,,,0,V,99.06199999991804,timeout,,,1192993.4,1192991803,1192892733,1192894.7000000002,1192909415,1193008477,,grey,EL27SE03,22,f,1,0,Psychologie,0,0,0,0,0,,AV
Reaction,canvas.Screen,2_71_0_2,2022-07-04T16:11:29.387Z,,,0,V,171.62300000013784,response,stim_detected,mousedown,1193181.6,1193180.1,1192991803,1192993.7000000002,1193008477,1193192363,,grey,EL27SE03,22,f,1,0,Psychologie,0,0,0,0,0,,AV
Trial,flow.Sequence,2_71_0,2022-07-04T16:11:29.388Z,,,0,V,2472.7080000001006,completion,,,1193181.9,1193180.1,1190674038,1190688.4,1190707392,1193192363,,grey,EL27SE03,22,f,1,0,Psychologie,0,0,0,0,0,,AV
Frame,canvas.Frame,2_71,2022-07-04T16:11:29.388Z,,,0,V,2474.6080000000075,,,,1193182.2999999998,1193182,1190674038,1190687.5,1190707392,1193192363,,grey,EL27SE03,22,f,1,0,Psychologie,0,0,0,0,0,,AV
Fixation,canvas.Screen,2_72_0_0,2022-07-04T16:11:31.768Z,,,1,AV,2385.882000000216,timeout,,,1195562.5,1195561561,1193175686,1193183.4,1193192363,1195578245,,grey,EL27SE03,22,f,1,0,Psychologie,0,0,0,0,0,,V
Stimulus,canvas.Screen,2_72_0_1,2022-07-04T16:11:31.867Z,,,1,AV,99.15799999982119,timeout,,,1195661.4,1195660.6,1195561561,1195562.6,1195578245,1195677403,,grey,EL27SE03,22,f,1,0,Psychologie,0,0,0,0,0,,V
Reaction,canvas.Screen,2_72_0_2,2022-07-04T16:11:32.034Z,,,1,AV,149.59700000006706,response,stim_detected,mousedown,1195828.7000000002,1195827,1195660.6,1195661.6,1195677403,1195844173,,grey,EL27SE03,22,f,1,0,Psychologie,0,0,0,0,0,,V
Trial,flow.Sequence,2_72_0,2022-07-04T16:11:32.035Z,,,1,AV,2634.6370000001043,completion,,,1195829.1,1195827,1193175686,1193183.2000000002,1193192363,1195844173,,grey,EL27SE03,22,f,1,0,Psychologie,0,0,0,0,0,,V
Frame,canvas.Frame,2_72,2022-07-04T16:11:32.035Z,,,1,AV,2636.8370000002906,,,,1195829.4,1195829.2000000002,1193175686,1193182.5,1193192363,1195844173,,grey,EL27SE03,22,f,1,0,Psychologie,0,0,0,0,0,,V
Fixation,canvas.Screen,2_73_0_0,2022-07-04T16:11:33.886Z,,,1,A,1851.282000000123,timeout,,,1197680.5,1197678777,1195827496,1195830.5,1195844173,1197695455,,black,EL27SE03,22,f,1,0,Psychologie,0,0,0,0,0,,AV
Stimulus,canvas.Screen,2_73_0_1,2022-07-04T16:11:33.986Z,,,1,A,100,timeout,,,1197780.5,1197778778,1197678777,1197680.7000000002,1197695455,1197795455,,black,EL27SE03,22,f,1,0,Psychologie,0,0,0,0,0,,AV
Reaction,canvas.Screen,2_73_0_2,2022-07-04T16:11:34.351Z,,,1,A,348.6450000000186,response,stim_detected,mousedown,1198145.4,1198144.1,1197778778,1197780.7999999998,1197795455,1198162369,,black,EL27SE03,22,f,1,0,Psychologie,0,0,0,0,0,,AV
Trial,flow.Sequence,2_73_0,2022-07-04T16:11:34.352Z,,,1,A,2299.9270000001416,completion,,,1198145.7999999998,1198144.1,1195827496,1195830.4,1195844173,1198162369,,black,EL27SE03,22,f,1,0,Psychologie,0,0,0,0,0,,AV
Frame,canvas.Frame,2_73,2022-07-04T16:11:34.352Z,,,1,A,2301.7269999999553,,,,1198146.1,1198145.9,1195827496,1195829.6,1195844173,1198162369,,black,EL27SE03,22,f,1,0,Psychologie,0,0,0,0,0,,AV
Fixation,canvas.Screen,2_74_0_0,2022-07-04T16:11:36.171Z,,,1,AV,1818.3959999999497,timeout,,,1199965.6,1199964083,1198145692,1198147.2999999998,1198162369,1199980765,,grey,EL27SE03,22,f,1,0,Psychologie,0,0,0,0,0,,A
Stimulus,canvas.Screen,2_74_0_1,2022-07-04T16:11:36.270Z,,,1,AV,99.43800000008196,timeout,,,1200064.6,1200063527,1199964083,1199965.7999999998,1199980765,1200080203,,grey,EL27SE03,22,f,1,0,Psychologie,0,0,0,0,0,,A
Reaction,canvas.Screen,2_74_0_2,2022-07-04T16:11:36.501Z,,,1,AV,213.19699999992736,response,stim_detected,mousedown,1200295,1200293.4,1200063527,1200064.9,1200080203,1200297138,,grey,EL27SE03,22,f,1,0,Psychologie,0,0,0,0,0,,A
Trial,flow.Sequence,2_74_0,2022-07-04T16:11:36.501Z,,,1,AV,2131.030999999959,completion,,,1200295.4,1200293.4,1198145692,1198147.2000000002,1198162369,1200297138,,grey,EL27SE03,22,f,1,0,Psychologie,0,0,0,0,0,,A
Frame,canvas.Frame,2_74,2022-07-04T16:11:36.501Z,,,1,AV,2133.131000000052,,,,1200295.6,1200295.5,1198145692,1198146.2999999998,1198162369,1200297138,,grey,EL27SE03,22,f,1,0,Psychologie,0,0,0,0,0,,A
Fixation,canvas.Screen,2_75_0_0,2022-07-04T16:11:38.638Z,,,0,V,2151.341999999946,timeout,,,1202432.6,1202431803,1200280461,1200296.7999999998,1200297138,1202448.48,,grey,EL27SE03,22,f,1,0,Psychologie,0,0,0,0,0,,AV
Stimulus,canvas.Screen,2_75_0_1,2022-07-04T16:11:38.740Z,,,0,V,100.25399999995716,timeout,,,1202533.9,1202532055,1202431803,1202432.9,1202448.48,1202548734,,grey,EL27SE03,22,f,1,0,Psychologie,0,0,0,0,0,,AV
Reaction,canvas.Screen,2_75_0_2,2022-07-04T16:11:38.958Z,,,0,V,179.26600000006147,response,stim_detected,mousedown,1202752.2999999998,1202728,1202532055,1202534.1,1202548734,1202765425,,grey,EL27SE03,22,f,1,0,Psychologie,0,0,0,0,0,,AV
Trial,flow.Sequence,2_75_0,2022-07-04T16:11:38.958Z,,,0,V,2430.8619999999646,completion,,,1202752.6,1202728,1200280461,1200296.6,1200297138,1202765425,,grey,EL27SE03,22,f,1,0,Psychologie,0,0,0,0,0,,AV
Frame,canvas.Frame,2_75,2022-07-04T16:11:38.959Z,,,0,V,2455.562000000151,,,,1202752.7999999998,1202752.7000000002,1200280461,1200295.7999999998,1200297138,1202765425,,grey,EL27SE03,22,f,1,0,Psychologie,0,0,0,0,0,,AV
Fixation,canvas.Screen,2_76_0_0,2022-07-04T16:11:40.558Z,,,1,A,1601.8889999999665,timeout,,,1204351.7999999998,1204350629,1202748748,1202753.7999999998,1202765425,1204367314,,black,EL27SE03,22,f,1,0,Psychologie,0,0,0,0,0,,V
Stimulus,canvas.Screen,2_76_0_1,2022-07-04T16:11:40.657Z,,,1,A,99.32700000004843,timeout,,,1204450.7000000002,1204449963,1204350629,1204352,1204367314,1204466641,,black,EL27SE03,22,f,1,0,Psychologie,0,0,0,0,0,,V
Reaction,canvas.Screen,2_76_0_2,2022-07-04T16:11:40.997Z,,,1,A,323.35899999993853,response,stim_detected,mousedown,1204791.4,1204790,1204449963,1204451,1204466641,1204800148,,black,EL27SE03,22,f,1,0,Psychologie,0,0,0,0,0,,V
Trial,flow.Sequence,2_76_0,2022-07-04T16:11:40.998Z,,,1,A,2024.5749999999534,completion,,,1204791.7999999998,1204790,1202748748,1202753.7999999998,1202765425,1204800148,,black,EL27SE03,22,f,1,0,Psychologie,0,0,0,0,0,,V
Frame,canvas.Frame,2_76,2022-07-04T16:11:40.998Z,,,1,A,2026.4749999998603,,,,1204792.1,1204791.9,1202748748,1202752.9,1202765425,1204800148,,black,EL27SE03,22,f,1,0,Psychologie,0,0,0,0,0,,V
Fixation,canvas.Screen,2_77_0_0,2022-07-04T16:11:42.608Z,,,1,AV,1617.6699999999255,timeout,,,1206402,1206401141,1204783471,1204793.2999999998,1204800148,1206417818,,grey,EL27SE03,22,f,1,0,Psychologie,0,0,0,0,0,,A
Stimulus,canvas.Screen,2_77_0_1,2022-07-04T16:11:42.709Z,,,1,AV,100.16500000003725,timeout,,,1206502.7999999998,1206501212,1206401141,1206402.2000000002,1206417818,1206517983,,grey,EL27SE03,22,f,1,0,Psychologie,0,0,0,0,0,,A
Reaction,canvas.Screen,2_77_0_2,2022-07-04T16:11:42.870Z,,,1,AV,144.01699999999255,response,stim_detected,mousedown,1206663.4,1206662,1206501212,1206503.1,1206517983,1206668076,,grey,EL27SE03,22,f,1,0,Psychologie,0,0,0,0,0,,A
Trial,flow.Sequence,2_77_0,2022-07-04T16:11:42.870Z,,,1,AV,1861.8519999999553,completion,,,1206663.7999999998,1206662,1204783471,1204793.2999999998,1204800148,1206668076,,grey,EL27SE03,22,f,1,0,Psychologie,0,0,0,0,0,,A
Frame,canvas.Frame,2_77,2022-07-04T16:11:42.870Z,,,1,AV,1863.7519999998622,,,,1206664,1206663.9,1204783471,1204792.2999999998,1204800148,1206668076,,grey,EL27SE03,22,f,1,0,Psychologie,0,0,0,0,0,,A
Fixation,canvas.Screen,2_78_0_0,2022-07-04T16:11:45.093Z,,,1,A,2234.724000000162,timeout,,,1208887,1208886123,1206651399,1206665.2999999998,1206668076,1208902.8,,black,EL27SE03,22,f,1,0,Psychologie,0,0,0,0,0,,AV
Stimulus,canvas.Screen,2_78_0_1,2022-07-04T16:11:45.194Z,,,1,A,100.13199999998324,timeout,,,1208987.2000000002,1208986255,1208886123,1208887.2999999998,1208902.8,1209002932,,black,EL27SE03,22,f,1,0,Psychologie,0,0,0,0,0,,AV
Reaction,canvas.Screen,2_78_0_2,2022-07-04T16:11:45.551Z,,,1,A,339.96799999987707,response,stim_detected,mousedown,1209344.4,1209342.9,1208986255,1208987.4,1209002932,1209353192,,black,EL27SE03,22,f,1,0,Psychologie,0,0,0,0,0,,AV
Trial,flow.Sequence,2_78_0,2022-07-04T16:11:45.551Z,,,1,A,2674.8240000000224,completion,,,1209344.7999999998,1209342.9,1206651399,1206665.2000000002,1206668076,1209353192,,black,EL27SE03,22,f,1,0,Psychologie,0,0,0,0,0,,AV
Frame,canvas.Frame,2_78,2022-07-04T16:11:45.551Z,,,1,A,2676.8240000000224,,,,1209345.1,1209344.9,1206651399,1206664.2000000002,1206668076,1209353192,,black,EL27SE03,22,f,1,0,Psychologie,0,0,0,0,0,,AV
Fixation,canvas.Screen,2_79_0_0,2022-07-04T16:11:47.595Z,,,1,AV,2051.565999999875,timeout,,,1211389.1,1211388079,1209336515,1209346.2000000002,1209353192,1211404758,,grey,EL27SE03,22,f,1,0,Psychologie,0,0,0,0,0,,A
Stimulus,canvas.Screen,2_79_0_1,2022-07-04T16:11:47.696Z,,,1,AV,99.79000000003725,timeout,,,1211489.2000000002,1211487871,1211388079,1211389.4,1211404758,1211504548,,grey,EL27SE03,22,f,1,0,Psychologie,0,0,0,0,0,,A
Reaction,canvas.Screen,2_79_0_2,2022-07-04T16:11:47.835Z,,,1,AV,122.3519999999553,response,stim_detected,mousedown,1211628.5,1211626.9,1211487871,1211489.4,1211504548,1211638045,,grey,EL27SE03,22,f,1,0,Psychologie,0,0,0,0,0,,A
Trial,flow.Sequence,2_79_0,2022-07-04T16:11:47.835Z,,,1,AV,2273.7079999998678,completion,,,1211628.9,1211626.9,1209336515,1209346.1,1209353192,1211638045,,grey,EL27SE03,22,f,1,0,Psychologie,0,0,0,0,0,,A
Frame,canvas.Frame,2_79,2022-07-04T16:11:47.835Z,,,1,AV,2275.807999999961,,,,1211629.2000000002,1211629,1209336515,1209345.2000000002,1209353192,1211638045,,grey,EL27SE03,22,f,1,0,Psychologie,0,0,0,0,0,,A
Fixation,canvas.Screen,2_80_0_0,2022-07-04T16:11:49.630Z,,,1,A,1802.099000000162,timeout,,,1213424.2000000002,1213423458,1211621368,1211630.5,1211638045,1213440144,,black,EL27SE03,22,f,1,0,Psychologie,0,0,0,0,0,,AV
Stimulus,canvas.Screen,2_80_0_1,2022-07-04T16:11:49.730Z,,,1,A,98.51399999996647,timeout,,,1213523.2999999998,1213521986,1213423458,1213424.5,1213440144,1213538658,,black,EL27SE03,22,f,1,0,Psychologie,0,0,0,0,0,,AV
Reaction,canvas.Screen,2_80_0_2,2022-07-04T16:11:49.932Z,,,1,A,185.24199999985285,response,stim_detected,mousedown,1213725.2999999998,1213723.9,1213521986,1213523.5,1213538658,1213739482,,black,EL27SE03,22,f,1,0,Psychologie,0,0,0,0,0,,AV
Trial,flow.Sequence,2_80_0,2022-07-04T16:11:49.932Z,,,1,A,2085.8549999999814,completion,,,1213725.7000000002,1213723.9,1211621368,1211630.4,1211638045,1213739482,,black,EL27SE03,22,f,1,0,Psychologie,0,0,0,0,0,,AV
Frame,canvas.Frame,2_80,2022-07-04T16:11:49.932Z,,,1,A,2087.7549999998882,,,,1213726,1213725.7999999998,1211621368,1211629.4,1211638045,1213739482,,black,EL27SE03,22,f,1,0,Psychologie,0,0,0,0,0,,AV
Fixation,canvas.Screen,2_81_0_0,2022-07-04T16:11:52.115Z,,,1,A,2183.9569999999367,timeout,,,1215908.5,1215906767,1213722805,1213727.1,1213739482,1215923439,,black,EL27SE03,22,f,1,0,Psychologie,0,0,0,0,0,,A
Stimulus,canvas.Screen,2_81_0_1,2022-07-04T16:11:52.216Z,,,1,A,100.90999999991618,timeout,,,1216009.4,1216007672,1215906767,1215908.7999999998,1215923439,1216024349,,black,EL27SE03,22,f,1,0,Psychologie,0,0,0,0,0,,A
Reaction,canvas.Screen,2_81_0_2,2022-07-04T16:11:52.640Z,,,1,A,407.55099999997765,response,stim_detected,mousedown,1216433.5,1216431.9,1216007672,1216009.7000000002,1216024349,1216441245,,black,EL27SE03,22,f,1,0,Psychologie,0,0,0,0,0,,A
Trial,flow.Sequence,2_81_0,2022-07-04T16:11:52.640Z,,,1,A,2692.4179999998305,completion,,,1216433.7999999998,1216431.9,1213722805,1213726.9,1213739482,1216441245,,black,EL27SE03,22,f,1,0,Psychologie,0,0,0,0,0,,A
Frame,canvas.Frame,2_81,2022-07-04T16:11:52.640Z,,,1,A,2694.5179999999236,,,,1216434.1,1216434,1213722805,1213726.2000000002,1213739482,1216441245,,black,EL27SE03,22,f,1,0,Psychologie,0,0,0,0,0,,A
Fixation,canvas.Screen,2_82_0_0,2022-07-04T16:11:54.968Z,,,1,A,2335.4169999998994,timeout,,,1218761.7000000002,1218759981,1216424568,1216435.2999999998,1216441245,1218776662,,black,EL27SE03,22,f,1,0,Psychologie,0,0,0,0,0,,A
Stimulus,canvas.Screen,2_82_0_1,2022-07-04T16:11:55.067Z,,,1,A,99.5319999998901,timeout,,,1218860.7999999998,1218859517,1218759981,1218761.9,1218776662,1218876194,,black,EL27SE03,22,f,1,0,Psychologie,0,0,0,0,0,,A
Reaction,canvas.Screen,2_82_0_2,2022-07-04T16:11:55.451Z,,,1,A,366.60599999991246,response,stim_detected,mousedown,1219244.5,1219242.7999999998,1218859517,1218861,1218876194,1219259816,,black,EL27SE03,22,f,1,0,Psychologie,0,0,0,0,0,,A
Trial,flow.Sequence,2_82_0,2022-07-04T16:11:55.451Z,,,1,A,2801.554999999702,completion,,,1219244.9,1219242.7999999998,1216424568,1216435.2000000002,1216441245,1219259816,,black,EL27SE03,22,f,1,0,Psychologie,0,0,0,0,0,,A
Frame,canvas.Frame,2_82,2022-07-04T16:11:55.451Z,,,1,A,2803.8549999999814,,,,1219245.2000000002,1219245.1,1216424568,1216434.2999999998,1216441245,1219259816,,black,EL27SE03,22,f,1,0,Psychologie,0,0,0,0,0,,A
Fixation,canvas.Screen,2_83_0_0,2022-07-04T16:11:57.084Z,,,0,V,1633.6279999997932,timeout,,,1220877.6,1220876773,1219243139,1219246.2999999998,1219259816,1220893444,,grey,EL27SE03,22,f,1,0,Psychologie,0,0,0,0,0,,A
Stimulus,canvas.Screen,2_83_0_1,2022-07-04T16:11:57.185Z,,,0,V,100.77800000016578,timeout,,,1220978.7000000002,1220977545,1220876773,1220877.7999999998,1220893444,1220994222,,grey,EL27SE03,22,f,1,0,Psychologie,0,0,0,0,0,,A
Reaction,canvas.Screen,2_83_0_2,2022-07-04T16:11:57.483Z,,,0,V,280.6779999998398,response,stim_detected,mousedown,1221276.6,1221274.9,1220977545,1220978.9,1220994222,1221294506,,grey,EL27SE03,22,f,1,0,Psychologie,0,0,0,0,0,,A
Trial,flow.Sequence,2_83_0,2022-07-04T16:11:57.483Z,,,0,V,2015.0839999997988,completion,,,1221277,1221274.9,1219243139,1219246.2000000002,1219259816,1221294506,,grey,EL27SE03,22,f,1,0,Psychologie,0,0,0,0,0,,A
Frame,canvas.Frame,2_83,2022-07-04T16:11:57.484Z,,,0,V,2017.283999999985,,,,1221277.2999999998,1221277.1,1219243139,1219245.2999999998,1219259816,1221294506,,grey,EL27SE03,22,f,1,0,Psychologie,0,0,0,0,0,,A
Fixation,canvas.Screen,2_84_0_0,2022-07-04T16:11:59.453Z,,,0,V,1967.467999999877,timeout,,,1223246.6,1223245.3,1221277829,1221279.4,1221294506,1223261974,,grey,EL27SE03,22,f,1,0,Psychologie,0,0,0,0,0,,V
Stimulus,canvas.Screen,2_84_0_1,2022-07-04T16:11:59.554Z,,,0,V,100.64300000015646,timeout,,,1223347.7000000002,1223345939,1223245.3,1223246.9,1223261974,1223362617,,grey,EL27SE03,22,f,1,0,Psychologie,0,0,0,0,0,,V
Reaction,canvas.Screen,2_84_0_2,2022-07-04T16:11:59.815Z,,,0,V,244.18299999972805,response,stim_detected,mousedown,1223608.6,1223606.7999999998,1223345939,1223348,1223362617,1223612718,,grey,EL27SE03,22,f,1,0,Psychologie,0,0,0,0,0,,V
Trial,flow.Sequence,2_84_0,2022-07-04T16:11:59.815Z,,,0,V,2312.2939999997616,completion,,,1223609.1,1223606.7999999998,1221277829,1221279.2999999998,1221294506,1223612718,,grey,EL27SE03,22,f,1,0,Psychologie,0,0,0,0,0,,V
Frame,canvas.Frame,2_84,2022-07-04T16:11:59.816Z,,,0,V,2314.694000000134,,,,1223609.2999999998,1223609.2000000002,1221277829,1221277.4,1221294506,1223612718,,grey,EL27SE03,22,f,1,0,Psychologie,0,0,0,0,0,,V
Fixation,canvas.Screen,2_85_0_0,2022-07-04T16:12:02.255Z,,,0,V,2451.528999999864,timeout,,,1226048.7999999998,1226047.57,1223596041,1223610.5,1223612718,1226064247,,grey,EL27SE03,22,f,1,0,Psychologie,0,0,0,0,0,,V
Stimulus,canvas.Screen,2_85_0_1,2022-07-04T16:12:02.355Z,,,0,V,100.13899999996647,timeout,,,1226148.7999999998,1226147709,1226047.57,1226049.1,1226064247,1226164386,,grey,EL27SE03,22,f,1,0,Psychologie,0,0,0,0,0,,V
Reaction,canvas.Screen,2_85_0_2,2022-07-04T16:12:02.597Z,,,0,V,224.41399999987334,response,stim_detected,mousedown,1226390.2999999998,1226388.7999999998,1226147709,1226149.1,1226164386,1226397869,,grey,EL27SE03,22,f,1,0,Psychologie,0,0,0,0,0,,V
Trial,flow.Sequence,2_85_0,2022-07-04T16:12:02.597Z,,,0,V,2776.081999999704,completion,,,1226390.7000000002,1226388.7999999998,1223596041,1223610.4,1223612718,1226397869,,grey,EL27SE03,22,f,1,0,Psychologie,0,0,0,0,0,,V
Frame,canvas.Frame,2_85,2022-07-04T16:12:02.597Z,,,0,V,2777.9820000000764,,,,1226391,1226390.7000000002,1223596041,1223609.6,1223612718,1226397869,,grey,EL27SE03,22,f,1,0,Psychologie,0,0,0,0,0,,V
Fixation,canvas.Screen,2_86_0_0,2022-07-04T16:12:04.808Z,,,1,AV,2219.5770000000484,timeout,,,1228602,1228600758,1226381192,1226392,1226397869,1228617446,,grey,EL27SE03,22,f,1,0,Psychologie,0,0,0,0,0,,V
Stimulus,canvas.Screen,2_86_0_1,2022-07-04T16:12:04.906Z,,,1,AV,98.42500000004657,timeout,,,1228700,1228699195,1228600758,1228602.4,1228617446,1228715871,,grey,EL27SE03,22,f,1,0,Psychologie,0,0,0,0,0,,V
Reaction,canvas.Screen,2_86_0_2,2022-07-04T16:12:05.121Z,,,1,AV,196.9289999997709,response,stim_detected,mousedown,1228914.2999999998,1228912.7999999998,1228699195,1228700.2000000002,1228715871,1228916279,,grey,EL27SE03,22,f,1,0,Psychologie,0,0,0,0,0,,V
Trial,flow.Sequence,2_86_0,2022-07-04T16:12:05.121Z,,,1,AV,2514.930999999866,completion,,,1228914.7999999998,1228912.7999999998,1226381192,1226392,1226397869,1228916279,,grey,EL27SE03,22,f,1,0,Psychologie,0,0,0,0,0,,V
Frame,canvas.Frame,2_86,2022-07-04T16:12:05.121Z,,,1,AV,2517.030999999959,,,,1228915.1,1228914.9,1226381192,1226391.1,1226397869,1228916279,,grey,EL27SE03,22,f,1,0,Psychologie,0,0,0,0,0,,V
Fixation,canvas.Screen,2_87_0_0,2022-07-04T16:12:07.408Z,,,1,A,2300.3549999999814,timeout,,,1231201.2999999998,1231199964,1228899602,1228916.4,1228916279,1231216634,,black,EL27SE03,22,f,1,0,Psychologie,0,0,0,0,0,,AV
Stimulus,canvas.Screen,2_87_0_1,2022-07-04T16:12:07.510Z,,,1,A,101.42099999985658,timeout,,,1231303.2999999998,1231301376,1231199964,1231201.5,1231216634,1231318055,,black,EL27SE03,22,f,1,0,Psychologie,0,0,0,0,0,,AV
Reaction,canvas.Screen,2_87_0_2,2022-07-04T16:12:07.917Z,,,1,A,391.64500000025146,response,stim_detected,mousedown,1231711.2000000002,1231709.7000000002,1231301376,1231303.4,1231318055,1231718148,,black,EL27SE03,22,f,1,0,Psychologie,0,0,0,0,0,,AV
Trial,flow.Sequence,2_87_0,2022-07-04T16:12:07.918Z,,,1,A,2793.4210000000894,completion,,,1231711.5,1231709.7000000002,1228899602,1228916.2000000002,1228916279,1231718148,,black,EL27SE03,22,f,1,0,Psychologie,0,0,0,0,0,,AV
Frame,canvas.Frame,2_87,2022-07-04T16:12:07.918Z,,,1,A,2795.3209999999963,,,,1231711.9,1231711.6,1228899602,1228915.2999999998,1228916279,1231718148,,black,EL27SE03,22,f,1,0,Psychologie,0,0,0,0,0,,AV
Fixation,canvas.Screen,2_88_0_0,2022-07-04T16:12:09.410Z,,,1,AV,1500.2269999999553,timeout,,,1233203.4,1233201704,1231701471,1231713,1231718148,1233218375,,grey,EL27SE03,22,f,1,0,Psychologie,0,0,0,0,0,,A
Stimulus,canvas.Screen,2_88_0_1,2022-07-04T16:12:09.510Z,,,1,AV,100.8519999999553,timeout,,,1233304.2000000002,1233302473,1233201704,1233203.7000000002,1233218375,1233319227,,grey,EL27SE03,22,f,1,0,Psychologie,0,0,0,0,0,,A
Reaction,canvas.Screen,2_88_0_2,2022-07-04T16:12:09.707Z,,,1,AV,180.57299999985844,response,stim_detected,mousedown,1233501.2000000002,1233499.7999999998,1233302473,1233304.4,1233319227,1233502674,,grey,EL27SE03,22,f,1,0,Psychologie,0,0,0,0,0,,A
Trial,flow.Sequence,2_88_0,2022-07-04T16:12:09.708Z,,,1,AV,1781.651999999769,completion,,,1233501.6,1233499.7999999998,1231701471,1231712.9,1231718148,1233502674,,grey,EL27SE03,22,f,1,0,Psychologie,0,0,0,0,0,,A
Frame,canvas.Frame,2_88,2022-07-04T16:12:09.708Z,,,1,AV,1783.5520000001416,,,,1233501.9,1233501.7000000002,1231701471,1231712,1231718148,1233502674,,grey,EL27SE03,22,f,1,0,Psychologie,0,0,0,0,0,,A
Fixation,canvas.Screen,2_89_0_0,2022-07-04T16:12:12.179Z,,,1,AV,2485.528999999864,timeout,,,1235972.4,1235971522,1233485997,1233503,1233502674,1235988203,,grey,EL27SE03,22,f,1,0,Psychologie,0,0,0,0,0,,AV
Stimulus,canvas.Screen,2_89_0_1,2022-07-04T16:12:12.279Z,,,1,AV,99.57400000002235,timeout,,,1236072.9,1236071.1,1235971522,1235972.6,1235988203,1236087777,,grey,EL27SE03,22,f,1,0,Psychologie,0,0,0,0,0,,AV
Reaction,canvas.Screen,2_89_0_2,2022-07-04T16:12:12.435Z,,,1,AV,138.9230000001844,response,stim_detected,mousedown,1236228.4,1236226.7000000002,1236071.1,1236073.1,1236087777,1236237801,,grey,EL27SE03,22,f,1,0,Psychologie,0,0,0,0,0,,AV
Trial,flow.Sequence,2_89_0,2022-07-04T16:12:12.435Z,,,1,AV,2724.026000000071,completion,,,1236228.7999999998,1236226.7000000002,1233485997,1233502.9,1233502674,1236237801,,grey,EL27SE03,22,f,1,0,Psychologie,0,0,0,0,0,,AV
Frame,canvas.Frame,2_89,2022-07-04T16:12:12.435Z,,,1,AV,2726.3259999998845,,,,1236229.1,1236229,1233485997,1233502.1,1233502674,1236237801,,grey,EL27SE03,22,f,1,0,Psychologie,0,0,0,0,0,,AV
Fixation,canvas.Screen,2_90_0_0,2022-07-04T16:12:14.148Z,,,0,V,1719.027999999933,timeout,,,1237941.4,1237940.14,1236221124,1236230.2999999998,1236237801,1237956829,,grey,EL27SE03,22,f,1,0,Psychologie,0,0,0,0,0,,AV
Stimulus,canvas.Screen,2_90_0_1,2022-07-04T16:12:14.246Z,,,0,V,98.35499999998137,timeout,,,1238039.5,1238038511,1237940.14,1237941.6,1237956829,1238055184,,grey,EL27SE03,22,f,1,0,Psychologie,0,0,0,0,0,,AV
Reaction,canvas.Screen,2_90_0_2,2022-07-04T16:12:14.466Z,,,0,V,203.41600000020117,response,stim_detected,mousedown,1238260.2000000002,1238258.6,1238038511,1238039.6,1238055184,1238305848,,grey,EL27SE03,22,f,1,0,Psychologie,0,0,0,0,0,,AV
Trial,flow.Sequence,2_90_0,2022-07-04T16:12:14.490Z,,,0,V,2020.7990000001155,completion,,,1238283.5,1238258.6,1236221124,1236230.2000000002,1236237801,1238305848,,grey,EL27SE03,22,f,1,0,Psychologie,0,0,0,0,0,,AV
Frame,canvas.Frame,2_90,2022-07-04T16:12:14.490Z,,,0,V,2045.998999999836,,,,1238284,1238283.7999999998,1236221124,1236229.2999999998,1236237801,1238305848,,grey,EL27SE03,22,f,1,0,Psychologie,0,0,0,0,0,,AV
Loop,flow.Loop,2,2022-07-04T16:12:14.491Z,,,,,215221.53299999982,completion,,,1238284.5,1238283.7999999998,1023045587,1023048.1000000001,1023062267,1238305848,,,EL27SE03,22,f,1,0,Psychologie,0,0,0,0,0,,V
end,html.Page,3,2022-07-04T16:12:20.460Z,,,,,5947.652000000002,form,submission,,,1244254.1,1244253.5,1238289171,1238284.6,1238305848,1244275.71,,,EL27SE03,22,f,1,0,Psychologie,0,0,0,0,0,V
root,flow.Sequence,,2022-07-04T16:12:20.461Z,,,,,1240144984,completion,,,1244255.2000000002,1244253.5,4091833,4091.5,4108516,1244275.71,,,EL27SE03,22,f,1,0,Psychologie,0,0,0,0,0,,V
