sender,sender_type,sender_id,timestamp,meta,,aud,condition,duration,ended_on,response,response_action,time_commit,time_end,time_render,time_run,time_show,time_switch,url,vis,id,age,sex,edu,occ,ela,pat,ill,prt,pcr,pab,,pre_stim
Instructions,html.Page,0,2022-07-18T15:13:02.684Z,"{""labjs_version"":""20.2.4"",""labjs_build"":{""flavor"":""production"",""commit"":""f5b4a49f956347addd546a832a3327688c2c0fef""},""location"":""file:///C:/Users/Proband%207/Desktop/RTE/index.html"",""userAgent"":""Mozilla/5.0 (Windows NT 6.1; Win64; x64) AppleWebKit/537.36 (KHTML, like Gecko) Chrome/103.0.0.0 Safari/537.36"",""platform"":""Win32"",""language"":""de-DE"",""locale"":""de"",""timeZone"":""Europe/Berlin"",""timezoneOffset"":-120,""screen_width"":1366,""screen_height"":768,""scroll_width"":1366,""scroll_height"":609,""window_innerWidth"":1366,""window_innerHeight"":657,""devicePixelRatio"":1}",,,,878665692,form,submission,,,886000.1,885993.7000000001,7294645,7308.3000000000175,7328008,887512537,{},,HA25HA07,36,f,5,0,Psychologie,0,0,0,0,0,
Change,Background,canvas.Screen,1,2022-07-18T15:13:07.343Z,,,,,3172.6230000000214,timeout,,,890658.9,890501427,885294496,886000.7000000001,887512537,890685.16,,,HA25HA07,36,f,5,0,Psychologie,0,0,0,0,0,
Fixation,canvas.Screen,2_0_0_0,2022-07-18T15:13:09.479Z,,,1,AV,2224.777000000002,timeout,,,892795.2999999999,892793352,890501427,890686.6,890685.16,892909937,,grey,HA25HA07,36,f,5,0,Psychologie,0,0,0,0,0,,
Stimulus,canvas.Screen,2_0_0_1,2022-07-18T15:13:09.685Z,,,1,AV,106.44900000002235,timeout,,,893001.1,892999709,892793352,892795.6,892909937,893016386,,grey,HA25HA07,36,f,5,0,Psychologie,0,0,0,0,0,,
Reaction,canvas.Screen,2_0_0_2,2022-07-18T15:13:10.050Z,,,1,AV,348.31400000001304,response,stim_detected,mousedown,893366.6,893364.7000000001,892999709,893001.4,893016386,893383269,,grey,HA25HA07,36,f,5,0,Psychologie,0,0,0,0,0,,0
Trial,flow.Sequence,2_0_0,2022-07-18T15:13:10.051Z,,,1,AV,2679.5400000000373,completion,,,893367.1,893364.7000000001,890501427,890686.4,890685.16,893383269,,grey,HA25HA07,36,f,5,0,Psychologie,0,0,0,0,0,,
Frame,canvas.Frame,2_0,2022-07-18T15:13:10.051Z,,,1,AV,2682.1399999998976,,,,893367.7000000001,893367.2999999999,890501427,890659.4,890685.16,893383269,,grey,HA25HA07,36,f,5,0,Psychologie,0,0,0,0,0,,
Fixation,canvas.Screen,2_1_0_0,2022-07-18T15:13:12.234Z,,,1,A,2182.2110000000102,timeout,,,895549.7999999999,895548819,893366592,893368.9,893383269,895565.48,,black,HA25HA07,36,f,5,0,Psychologie,0,0,0,0,0,,
Stimulus,canvas.Screen,2_1_0_1,2022-07-18T15:13:12.336Z,,,1,A,102.5570000000298,timeout,,,895652.4999999999,895651.36,895548819,895549.9999999999,895565.48,895668037,,black,HA25HA07,36,f,5,0,Psychologie,0,0,0,0,0,,
Reaction,canvas.Screen,2_1_0_2,2022-07-18T15:13:13.015Z,,,1,A,661.6630000000587,response,stim_detected,mousedown,896331.4,896329.7000000001,895651.36,895652.9,895668037,896401913,,black,HA25HA07,36,f,5,0,Psychologie,0,0,0,0,0,,AV
Trial,flow.Sequence,2_1_0,2022-07-18T15:13:13.016Z,,,1,A,2946.4310000000987,completion,,,896332.2000000001,896329.7000000001,893366592,893368.7999999999,893383269,896401913,,black,HA25HA07,36,f,5,0,Psychologie,0,0,0,0,0,,AV
Frame,canvas.Frame,2_1,2022-07-18T15:13:13.016Z,,,1,A,2949.131000000052,,,,896332.7000000001,896332.4,893366592,893367.7999999999,893383269,896401913,,black,HA25HA07,36,f,5,0,Psychologie,0,0,0,0,0,,AV
Fixation,canvas.Screen,2_2_0_0,2022-07-18T15:13:15.404Z,,,1,A,2333.100000000093,timeout,,,898719.7000000001,898718345,896318528,896333.9999999999,896401913,898735013,,black,HA25HA07,36,f,5,0,Psychologie,0,0,0,0,0,,A
Stimulus,canvas.Screen,2_2_0_1,2022-07-18T15:13:15.506Z,,,1,A,101.89199999999255,timeout,,,898821.7999999999,898820227,898718345,898720.2000000001,898735013,898836905,,black,HA25HA07,36,f,5,0,Psychologie,0,0,0,0,0,,A
Reaction,canvas.Screen,2_2_0_2,2022-07-18T15:13:15.872Z,,,1,A,348.59499999985565,response,stim_detected,mousedown,899187.9,899185.4999999999,898820227,898822.2000000001,898836905,899203748,,black,HA25HA07,36,f,5,0,Psychologie,0,0,0,0,0,,A
Trial,flow.Sequence,2_2_0,2022-07-18T15:13:15.872Z,,,1,A,2783.5869999999413,completion,,,899188.6,899185.4999999999,896318528,896333.9,896401913,899203748,,black,HA25HA07,36,f,5,0,Psychologie,0,0,0,0,0,,A
Frame,canvas.Frame,2_2,2022-07-18T15:13:15.873Z,,,1,A,2786.886999999988,,,,899189.1,899188.7999999999,896318528,896332.9999999999,896401913,899203748,,black,HA25HA07,36,f,5,0,Psychologie,0,0,0,0,0,,A
Fixation,canvas.Screen,2_3_0_0,2022-07-18T15:13:17.423Z,,,0,V,1550.9710000000196,timeout,,,900739.4999999999,900738042,899187071,899190.4999999999,899203748,900754719,,grey,HA25HA07,36,f,5,0,Psychologie,0,0,0,0,0,,A
Stimulus,canvas.Screen,2_3_0_1,2022-07-18T15:13:17.523Z,,,0,V,100.29099999996834,timeout,,,900839.4999999999,900838.33,900738042,900739.7999999999,900754719,900855.01,,grey,HA25HA07,36,f,5,0,Psychologie,0,0,0,0,0,,A
Reaction,canvas.Screen,2_3_0_2,2022-07-18T15:13:17.864Z,,,0,V,323.5899999999674,response,stim_detected,mousedown,901180.1,901178.6,900838.33,900839.7000000001,900855.01,901188447,,grey,HA25HA07,36,f,5,0,Psychologie,0,0,0,0,0,,A
Trial,flow.Sequence,2_3_0,2022-07-18T15:13:17.864Z,,,0,V,1974.8519999999553,completion,,,901180.4999999999,901178.6,899187071,899190.2999999999,899203748,901188447,,grey,HA25HA07,36,f,5,0,Psychologie,0,0,0,0,0,,A
Frame,canvas.Frame,2_3,2022-07-18T15:13:17.865Z,,,0,V,1976.8519999999553,,,,901180.7999999999,901180.6,899187071,899189.2999999999,899203748,901188447,,grey,HA25HA07,36,f,5,0,Psychologie,0,0,0,0,0,,A
Fixation,canvas.Screen,2_4_0_0,2022-07-18T15:13:20.159Z,,,1,AV,2302.021999999997,timeout,,,903475.6,903473788,901171.77,901182.1,901188447,903490469,,grey,HA25HA07,36,f,5,0,Psychologie,0,0,0,0,0,,V
Stimulus,canvas.Screen,2_4_0_1,2022-07-18T15:13:20.258Z,,,1,AV,99.42599999997765,timeout,,,903574.7000000001,903573219,903473788,903475.9,903490469,903589895,,grey,HA25HA07,36,f,5,0,Psychologie,0,0,0,0,0,,V
Reaction,canvas.Screen,2_4_0_2,2022-07-18T15:13:20.406Z,,,1,AV,130.7049999999581,response,stim_detected,mousedown,903722.4999999999,903720.6,903573219,903574.9999999999,903589895,903740163,,grey,HA25HA07,36,f,5,0,Psychologie,0,0,0,0,0,,V
Trial,flow.Sequence,2_4_0,2022-07-18T15:13:20.407Z,,,1,AV,2532.152999999933,completion,,,903722.9,903720.6,901171.77,901181.9,901188447,903740163,,grey,HA25HA07,36,f,5,0,Psychologie,0,0,0,0,0,,V
Frame,canvas.Frame,2_4,2022-07-18T15:13:20.407Z,,,1,AV,2534.55299999984,,,,903723.2000000001,903722.9999999999,901171.77,901180.9999999999,901188447,903740163,,grey,HA25HA07,36,f,5,0,Psychologie,0,0,0,0,0,,V
Fixation,canvas.Screen,2_5_0_0,2022-07-18T15:13:22.661Z,,,0,V,2251.8000000000466,timeout,,,905976.9,905975283,903723486,903724.7000000001,903740163,905991963,,grey,HA25HA07,36,f,5,0,Psychologie,0,0,0,0,0,,AV
Stimulus,canvas.Screen,2_5_0_1,2022-07-18T15:13:22.760Z,,,0,V,99.0350000000326,timeout,,,906075.9999999999,906074326,905975283,905977.1,905991963,906090998,,grey,HA25HA07,36,f,5,0,Psychologie,0,0,0,0,0,,AV
Reaction,canvas.Screen,2_5_0_2,2022-07-18T15:13:22.971Z,,,0,V,194.40200000000186,response,stim_detected,mousedown,906286.9999999999,906285.4,906074326,906076.2000000001,906090998,906308486,,grey,HA25HA07,36,f,5,0,Psychologie,0,0,0,0,0,,AV
Trial,flow.Sequence,2_5_0,2022-07-18T15:13:22.971Z,,,0,V,2545.237000000081,completion,,,906287.4999999999,906285.4,903723486,903724.4,903740163,906308486,,grey,HA25HA07,36,f,5,0,Psychologie,0,0,0,0,0,,AV
Frame,canvas.Frame,2_5,2022-07-18T15:13:22.972Z,,,0,V,2547.636999999988,,,,906287.9,906287.7999999999,903723486,903723.4,903740163,906308486,,grey,HA25HA07,36,f,5,0,Psychologie,0,0,0,0,0,,AV
Fixation,canvas.Screen,2_6_0_0,2022-07-18T15:13:24.912Z,,,0,V,1934.9379999999655,timeout,,,908227.9,908226744,906291809,906289.4999999999,906308486,908243424,,grey,HA25HA07,36,f,5,0,Psychologie,0,0,0,0,0,,V
Stimulus,canvas.Screen,2_6_0_1,2022-07-18T15:13:25.012Z,,,0,V,149.88199999998324,timeout,,,908327.7999999999,908326594,908226744,908228.2999999999,908243424,908393306,,grey,HA25HA07,36,f,5,0,Psychologie,0,0,0,0,0,,V
Reaction,canvas.Screen,2_6_0_2,2022-07-18T15:13:25.200Z,,,0,V,120.69399999990128,response,stim_detected,mousedown,908516.2000000001,908513.9999999999,908326594,908328.1,908393306,908560011,,grey,HA25HA07,36,f,5,0,Psychologie,0,0,0,0,0,,V
Trial,flow.Sequence,2_6_0,2022-07-18T15:13:25.201Z,,,0,V,2205.51399999985,completion,,,908516.7000000001,908513.9999999999,906291809,906289.4,906308486,908560011,,grey,HA25HA07,36,f,5,0,Psychologie,0,0,0,0,0,,V
Frame,canvas.Frame,2_6,2022-07-18T15:13:25.201Z,,,0,V,2208.4139999999898,,,,908517.1,908516.9,906291809,906288.1,906308486,908560011,,grey,HA25HA07,36,f,5,0,Psychologie,0,0,0,0,0,,V
Fixation,canvas.Screen,2_7_0_0,2022-07-18T15:13:27.265Z,,,0,V,2035.0179999999236,timeout,,,910579.9,910578349,908509.98,908558.2000000001,908560011,910595029,,grey,HA25HA07,36,f,5,0,Psychologie,0,0,0,0,0,,V
Stimulus,canvas.Screen,2_7_0_1,2022-07-18T15:13:27.364Z,,,0,V,99.72600000002421,timeout,,,910678.9,910678078,910578349,910580.2000000001,910595029,910694755,,grey,HA25HA07,36,f,5,0,Psychologie,0,0,0,0,0,,V
Reaction,canvas.Screen,2_7_0_2,2022-07-18T15:13:27.500Z,,,0,V,118.74499999987893,response,stim_detected,mousedown,910815.1,910813.4999999999,910678078,910679.2000000001,910694755,910828182,,grey,HA25HA07,36,f,5,0,Psychologie,0,0,0,0,0,,V
Trial,flow.Sequence,2_7_0,2022-07-18T15:13:27.500Z,,,0,V,2253.488999999827,completion,,,910815.4,910813.4999999999,908509.98,908557.9999999999,908560011,910828182,,grey,HA25HA07,36,f,5,0,Psychologie,0,0,0,0,0,,V
Frame,canvas.Frame,2_7,2022-07-18T15:13:27.500Z,,,0,V,2255.58899999992,,,,910815.7999999999,910815.6,908509.98,908517.2000000001,908560011,910828182,,grey,HA25HA07,36,f,5,0,Psychologie,0,0,0,0,0,,V
Fixation,canvas.Screen,2_8_0_0,2022-07-18T15:13:29.466Z,,,1,AV,1968.515000000014,timeout,,,912780.9999999999,912780015,910811505,910817.2000000001,910828182,912796697,,grey,HA25HA07,36,f,5,0,Psychologie,0,0,0,0,0,,V
Stimulus,canvas.Screen,2_8_0_1,2022-07-18T15:13:29.565Z,,,1,AV,98.84099999989849,timeout,,,912880.2999999999,912878866,912780015,912781.2000000001,912796697,912895538,,grey,HA25HA07,36,f,5,0,Psychologie,0,0,0,0,0,,V
Reaction,canvas.Screen,2_8_0_2,2022-07-18T15:13:29.704Z,,,1,AV,121.86200000008103,response,stim_detected,mousedown,913018.9999999999,913017.4,912878866,912880.4999999999,912895538,913029622,,grey,HA25HA07,36,f,5,0,Psychologie,0,0,0,0,0,,V
Trial,flow.Sequence,2_8_0,2022-07-18T15:13:29.704Z,,,1,AV,2189.2179999999935,completion,,,913019.2999999999,913017.4,910811505,910817.1,910828182,913029622,,grey,HA25HA07,36,f,5,0,Psychologie,0,0,0,0,0,,V
Frame,canvas.Frame,2_8,2022-07-18T15:13:29.704Z,,,1,AV,2191.317999999854,,,,913019.7000000001,913019.4999999999,910811505,910815.9999999999,910828182,913029622,,grey,HA25HA07,36,f,5,0,Psychologie,0,0,0,0,0,,V
Fixation,canvas.Screen,2_9_0_0,2022-07-18T15:13:31.885Z,,,1,A,2185.976000000024,timeout,,,915200.1,915198912,913012945,913020.9,913029622,915215598,,black,HA25HA07,36,f,5,0,Psychologie,0,0,0,0,0,,AV
Stimulus,canvas.Screen,2_9_0_1,2022-07-18T15:13:31.984Z,,,1,A,98.98999999999069,timeout,,,915299.1,915297.91,915198912,915200.2999999999,915215598,915314588,,black,HA25HA07,36,f,5,0,Psychologie,0,0,0,0,0,,AV
Reaction,canvas.Screen,2_9_0_2,2022-07-18T15:13:32.593Z,,,1,A,591.9119999998948,response,stim_detected,mousedown,915907.9999999999,915906.4999999999,915297.91,915299.2999999999,915314588,915914885,,black,HA25HA07,36,f,5,0,Psychologie,0,0,0,0,0,,AV
Trial,flow.Sequence,2_9_0,2022-07-18T15:13:32.593Z,,,1,A,2876.8779999999097,completion,,,915908.4,915906.4999999999,913012945,913020.7999999999,913029622,915914885,,black,HA25HA07,36,f,5,0,Psychologie,0,0,0,0,0,,AV
Frame,canvas.Frame,2_9,2022-07-18T15:13:32.593Z,,,1,A,2878.8779999999097,,,,915908.7999999999,915908.4999999999,913012945,913019.7999999999,913029622,915914885,,black,HA25HA07,36,f,5,0,Psychologie,0,0,0,0,0,,AV
Fixation,canvas.Screen,2_10_0_0,2022-07-18T15:13:34.169Z,,,0,V,1584.542999999947,timeout,,,917484.4999999999,917482749,915898208,915909.9,915914885,917499428,,grey,HA25HA07,36,f,5,0,Psychologie,0,0,0,0,0,,A
Stimulus,canvas.Screen,2_10_0_1,2022-07-18T15:13:34.269Z,,,0,V,99.6830000000773,timeout,,,917584.2000000001,917582436,917482749,917484.7999999999,917499428,917599111,,grey,HA25HA07,36,f,5,0,Psychologie,0,0,0,0,0,,A
Reaction,canvas.Screen,2_10_0_2,2022-07-18T15:13:34.412Z,,,0,V,126.18899999989662,response,stim_detected,mousedown,917727.6,917725.2999999999,917582436,917584.6,917599111,917749478,,grey,HA25HA07,36,f,5,0,Psychologie,0,0,0,0,0,,A
Trial,flow.Sequence,2_10_0,2022-07-18T15:13:34.413Z,,,0,V,1810.4149999999208,completion,,,917728.1,917725.2999999999,915898208,915909.7999999999,915914885,917749478,,grey,HA25HA07,36,f,5,0,Psychologie,0,0,0,0,0,,A
Frame,canvas.Frame,2_10,2022-07-18T15:13:34.413Z,,,0,V,1813.3150000000605,,,,917728.4999999999,917728.2000000001,915898208,915908.9,915914885,917749478,,grey,HA25HA07,36,f,5,0,Psychologie,0,0,0,0,0,,A
Fixation,canvas.Screen,2_11_0_0,2022-07-18T15:13:36.087Z,,,0,V,1667.6979999999749,timeout,,,919402.2000000001,919400499,917732.8,917729.9,917749478,919417176,,grey,HA25HA07,36,f,5,0,Psychologie,0,0,0,0,0,,V
Stimulus,canvas.Screen,2_11_0_1,2022-07-18T15:13:36.186Z,,,0,V,99.96100000001024,timeout,,,919501.4,919500461,919400499,919402.4999999999,919417176,919517137,,grey,HA25HA07,36,f,5,0,Psychologie,0,0,0,0,0,,V
Reaction,canvas.Screen,2_11_0_2,2022-07-18T15:13:36.351Z,,,0,V,147.56300000008196,response,stim_detected,mousedown,919666.2000000001,919664.7000000001,919500461,919501.6,919517137,919684066,,grey,HA25HA07,36,f,5,0,Psychologie,0,0,0,0,0,,V
Trial,flow.Sequence,2_11_0,2022-07-18T15:13:36.351Z,,,0,V,1915.222000000067,completion,,,919666.4999999999,919664.7000000001,917732.8,917729.7999999999,917749478,919684066,,grey,HA25HA07,36,f,5,0,Psychologie,0,0,0,0,0,,V
Frame,canvas.Frame,2_11,2022-07-18T15:13:36.351Z,,,0,V,1917.121999999974,,,,919666.9,919666.6,917732.8,917728.7000000001,917749478,919684066,,grey,HA25HA07,36,f,5,0,Psychologie,0,0,0,0,0,,V
Fixation,canvas.Screen,2_12_0_0,2022-07-18T15:13:38.271Z,,,0,V,1917.7269999999553,timeout,,,921585.9999999999,921585117,919667389,919668.2999999999,919684066,921601793,,grey,HA25HA07,36,f,5,0,Psychologie,0,0,0,0,0,,V
Stimulus,canvas.Screen,2_12_0_1,2022-07-18T15:13:38.371Z,,,0,V,100.29800000006799,timeout,,,921686.2999999999,921685411,921585117,921586.1,921601793,921702091,,grey,HA25HA07,36,f,5,0,Psychologie,0,0,0,0,0,,V
Reaction,canvas.Screen,2_12_0_2,2022-07-18T15:13:38.658Z,,,0,V,270.3090000000084,response,stim_detected,mousedown,921973.7999999999,921972.4,921685411,921686.6,921702091,921985561,,grey,HA25HA07,36,f,5,0,Psychologie,0,0,0,0,0,,V
Trial,flow.Sequence,2_12_0,2022-07-18T15:13:38.659Z,,,0,V,2288.3340000000317,completion,,,921974.2000000001,921972.4,919667389,919668.2000000001,919684066,921985561,,grey,HA25HA07,36,f,5,0,Psychologie,0,0,0,0,0,,V
Frame,canvas.Frame,2_12,2022-07-18T15:13:38.659Z,,,0,V,2290.2339999999385,,,,921974.4999999999,921974.2999999999,919667389,919667.1,919684066,921985561,,grey,HA25HA07,36,f,5,0,Psychologie,0,0,0,0,0,,V
Fixation,canvas.Screen,2_13_0_0,2022-07-18T15:13:40.256Z,,,1,AV,1601.3460000000196,timeout,,,923571.4999999999,923570227,921968884,921975.7000000001,921985561,923586907,,grey,HA25HA07,36,f,5,0,Psychologie,0,0,0,0,0,,V
Stimulus,canvas.Screen,2_13_0_1,2022-07-18T15:13:40.356Z,,,1,AV,99.86399999994319,timeout,,,923671.4,923670093,923570227,923571.7000000001,923586907,923686771,,grey,HA25HA07,36,f,5,0,Psychologie,0,0,0,0,0,,V
Reaction,canvas.Screen,2_13_0_2,2022-07-18T15:13:40.514Z,,,1,AV,141.52899999998044,response,stim_detected,mousedown,923829.7000000001,923828.2999999999,923670093,923671.7000000001,923686771,923836835,,grey,HA25HA07,36,f,5,0,Psychologie,0,0,0,0,0,,V
Trial,flow.Sequence,2_13_0,2022-07-18T15:13:40.515Z,,,1,AV,1842.7389999999432,completion,,,923830.2000000001,923828.2999999999,921968884,921975.6,921985561,923836835,,grey,HA25HA07,36,f,5,0,Psychologie,0,0,0,0,0,,V
Frame,canvas.Frame,2_13,2022-07-18T15:13:40.515Z,,,1,AV,1844.7389999999432,,,,923830.4999999999,923830.2999999999,921968884,921974.6,921985561,923836835,,grey,HA25HA07,36,f,5,0,Psychologie,0,0,0,0,0,,V
Fixation,canvas.Screen,2_14_0_0,2022-07-18T15:13:42.374Z,,,1,A,1867.8240000000224,timeout,,,925689.4999999999,925687982,923820158,923831.7000000001,923836835,925704659,,black,HA25HA07,36,f,5,0,Psychologie,0,0,0,0,0,,AV
Stimulus,canvas.Screen,2_14_0_1,2022-07-18T15:13:42.474Z,,,1,A,100.06500000006054,timeout,,,925789.6,925788047,925687982,925689.7999999999,925704659,925804724,,black,HA25HA07,36,f,5,0,Psychologie,0,0,0,0,0,,AV
Reaction,canvas.Screen,2_14_0_2,2022-07-18T15:13:42.612Z,,,1,A,121.57599999988452,response,stim_detected,mousedown,925927.7000000001,925926.2999999999,925788047,925789.7999999999,925804724,925938.19,,black,HA25HA07,36,f,5,0,Psychologie,0,0,0,0,0,,AV
Trial,flow.Sequence,2_14_0,2022-07-18T15:13:42.613Z,,,1,A,2089.4649999999674,completion,,,925928.1,925926.2999999999,923820158,923831.6,923836835,925938.19,,black,HA25HA07,36,f,5,0,Psychologie,0,0,0,0,0,,AV
Frame,canvas.Frame,2_14,2022-07-18T15:13:42.613Z,,,1,A,2091.365000000107,,,,925928.4,925928.2000000001,923820158,923830.7000000001,923836835,925938.19,,black,HA25HA07,36,f,5,0,Psychologie,0,0,0,0,0,,AV
Fixation,canvas.Screen,2_15_0_0,2022-07-18T15:13:45.077Z,,,1,AV,2469.877000000095,timeout,,,928392.7999999999,928391379,925921513,925929.4999999999,925938.19,928408067,,grey,HA25HA07,36,f,5,0,Psychologie,0,0,0,0,0,,A
Stimulus,canvas.Screen,2_15_0_1,2022-07-18T15:13:45.176Z,,,1,AV,98.30400000000373,timeout,,,928490.9999999999,928489695,928391379,928392.9999999999,928408067,928506371,,grey,HA25HA07,36,f,5,0,Psychologie,0,0,0,0,0,,A
Reaction,canvas.Screen,2_15_0_2,2022-07-18T15:13:45.331Z,,,1,AV,138.9289999998873,response,stim_detected,mousedown,928646.7000000001,928645.2999999999,928489695,928491.2000000001,928506371,928673354,,grey,HA25HA07,36,f,5,0,Psychologie,0,0,0,0,0,,A
Trial,flow.Sequence,2_15_0,2022-07-18T15:13:45.332Z,,,1,AV,2707.109999999986,completion,,,928647.1,928645.2999999999,925921513,925929.4,925938.19,928673354,,grey,HA25HA07,36,f,5,0,Psychologie,0,0,0,0,0,,A
Frame,canvas.Frame,2_15,2022-07-18T15:13:45.332Z,,,1,AV,2709.0100000001257,,,,928647.4,928647.2000000001,925921513,925928.4999999999,925938.19,928673354,,grey,HA25HA07,36,f,5,0,Psychologie,0,0,0,0,0,,A
Fixation,canvas.Screen,2_16_0_0,2022-07-18T15:13:47.161Z,,,1,AV,1818.3989999999758,timeout,,,930476.7999999999,930475071,928640,928648.6,928673354,930491753,,grey,HA25HA07,36,f,5,0,Psychologie,0,0,0,0,0,,AV
Stimulus,canvas.Screen,2_16_0_1,2022-07-18T15:13:47.260Z,,,1,AV,99.48300000000745,timeout,,,930575.7000000001,930574559,930475071,930477.2000000001,930491753,930591236,,grey,HA25HA07,36,f,5,0,Psychologie,0,0,0,0,0,,AV
Reaction,canvas.Screen,2_16_0_2,2022-07-18T15:13:47.441Z,,,1,AV,164.06399999989662,response,stim_detected,mousedown,930756.7999999999,930755.2999999999,930574559,930575.9,930591236,930758.11,,grey,HA25HA07,36,f,5,0,Psychologie,0,0,0,0,0,,AV
Trial,flow.Sequence,2_16_0,2022-07-18T15:13:47.442Z,,,1,AV,2081.94599999988,completion,,,930757.1,930755.2999999999,928640,928648.4999999999,928673354,930758.11,,grey,HA25HA07,36,f,5,0,Psychologie,0,0,0,0,0,,AV
Frame,canvas.Frame,2_16,2022-07-18T15:13:47.442Z,,,1,AV,2083.8460000000196,,,,930757.4,930757.2000000001,928640,928647.6,928673354,930758.11,,grey,HA25HA07,36,f,5,0,Psychologie,0,0,0,0,0,,AV
Fixation,canvas.Screen,2_17_0_0,2022-07-18T15:13:49.245Z,,,0,V,1817.1879999999655,timeout,,,932559.9,932558626,930741433,930758.6,930758.11,932575298,,grey,HA25HA07,36,f,5,0,Psychologie,0,0,0,0,0,,AV
Stimulus,canvas.Screen,2_17_0_1,2022-07-18T15:13:49.345Z,,,0,V,100.81500000006054,timeout,,,932660.7999999999,932659433,932558626,932560.2000000001,932575298,932676113,,grey,HA25HA07,36,f,5,0,Psychologie,0,0,0,0,0,,AV
Reaction,canvas.Screen,2_17_0_2,2022-07-18T15:13:49.537Z,,,0,V,175.28700000001118,response,stim_detected,mousedown,932852.7999999999,932851.4,932659433,932661.1,932676113,932859453,,grey,HA25HA07,36,f,5,0,Psychologie,0,0,0,0,0,,AV
Trial,flow.Sequence,2_17_0,2022-07-18T15:13:49.538Z,,,0,V,2093.2900000000373,completion,,,932853.2000000001,932851.4,930741433,930758.6,930758.11,932859453,,grey,HA25HA07,36,f,5,0,Psychologie,0,0,0,0,0,,AV
Frame,canvas.Frame,2_17,2022-07-18T15:13:49.538Z,,,0,V,2095.090000000084,,,,932853.4,932853.2000000001,930741433,930757.6,930758.11,932859453,,grey,HA25HA07,36,f,5,0,Psychologie,0,0,0,0,0,,AV
Fixation,canvas.Screen,2_18_0_0,2022-07-18T15:13:51.098Z,,,1,A,1568.4710000000196,timeout,,,934412.9999999999,934411239,932842776,932854.7000000001,932859453,934427924,,black,HA25HA07,36,f,5,0,Psychologie,0,0,0,0,0,,V
Stimulus,canvas.Screen,2_18_0_1,2022-07-18T15:13:51.197Z,,,1,A,99.27599999995437,timeout,,,934511.9,934510523,934411239,934413.2000000001,934427924,934527.2,,black,HA25HA07,36,f,5,0,Psychologie,0,0,0,0,0,,V
Reaction,canvas.Screen,2_18_0_2,2022-07-18T15:13:51.528Z,,,1,A,315.0000000001164,response,stim_detected,mousedown,934843.7000000001,934842.2000000001,934510523,934512.2000000001,934527.2,934860802,,black,HA25HA07,36,f,5,0,Psychologie,0,0,0,0,0,,V
Trial,flow.Sequence,2_18_0,2022-07-18T15:13:51.529Z,,,1,A,1982.7470000000903,completion,,,934843.9999999999,934842.2000000001,932842776,932854.6,932859453,934860802,,black,HA25HA07,36,f,5,0,Psychologie,0,0,0,0,0,,V
Frame,canvas.Frame,2_18,2022-07-18T15:13:51.529Z,,,1,A,1984.8469999999506,,,,934844.6,934844.2999999999,932842776,932853.7000000001,932859453,934860802,,black,HA25HA07,36,f,5,0,Psychologie,0,0,0,0,0,,V
Fixation,canvas.Screen,2_19_0_0,2022-07-18T15:13:53.948Z,,,1,AV,2417.8429999999935,timeout,,,937263.2000000001,937261.97,934844125,934845.9999999999,934860802,937278645,,grey,HA25HA07,36,f,5,0,Psychologie,0,0,0,0,0,,A
Stimulus,canvas.Screen,2_19_0_1,2022-07-18T15:13:54.049Z,,,1,AV,100.52399999997579,timeout,,,937364.4999999999,937362492,937261.97,937263.4999999999,937278645,937379169,,grey,HA25HA07,36,f,5,0,Psychologie,0,0,0,0,0,,A
Reaction,canvas.Screen,2_19_0_2,2022-07-18T15:13:54.240Z,,,1,AV,174.9309999999823,response,stim_detected,mousedown,937555.6,937554.1,937362492,937364.7000000001,937379169,937562584,,grey,HA25HA07,36,f,5,0,Psychologie,0,0,0,0,0,,A
Trial,flow.Sequence,2_19_0,2022-07-18T15:13:54.241Z,,,1,AV,2693.2979999999516,completion,,,937555.9,937554.1,934844125,934845.9,934860802,937562584,,grey,HA25HA07,36,f,5,0,Psychologie,0,0,0,0,0,,A
Frame,canvas.Frame,2_19,2022-07-18T15:13:54.241Z,,,1,AV,2695.2979999999516,,,,937556.2999999999,937556.1,934844125,934844.7999999999,934860802,937562584,,grey,HA25HA07,36,f,5,0,Psychologie,0,0,0,0,0,,A
Fixation,canvas.Screen,2_20_0_0,2022-07-18T15:13:56.017Z,,,1,A,1785.283999999985,timeout,,,939332.1,939331184,937545907,937557.4,937562584,939347868,,black,HA25HA07,36,f,5,0,Psychologie,0,0,0,0,0,,AV
Stimulus,canvas.Screen,2_20_0_1,2022-07-18T15:13:56.117Z,,,1,A,99.3739999999525,timeout,,,939432.2000000001,939430564,939331184,939332.4,939347868,939447242,,black,HA25HA07,36,f,5,0,Psychologie,0,0,0,0,0,,AV
Reaction,canvas.Screen,2_20_0_2,2022-07-18T15:13:56.413Z,,,1,A,279.85800000000745,response,stim_detected,mousedown,939728.4999999999,939727.1,939430564,939432.4999999999,939447242,939730702,,black,HA25HA07,36,f,5,0,Psychologie,0,0,0,0,0,,AV
Trial,flow.Sequence,2_20_0,2022-07-18T15:13:56.414Z,,,1,A,2164.515999999945,completion,,,939728.9999999999,939727.1,937545907,937557.2999999999,937562584,939730702,,black,HA25HA07,36,f,5,0,Psychologie,0,0,0,0,0,,AV
Frame,canvas.Frame,2_20,2022-07-18T15:13:56.414Z,,,1,A,2166.616000000038,,,,939729.4,939729.2000000001,937545907,937556.4999999999,937562584,939730702,,black,HA25HA07,36,f,5,0,Psychologie,0,0,0,0,0,,AV
Fixation,canvas.Screen,2_21_0_0,2022-07-18T15:13:58.384Z,,,1,AV,1984.2979999999516,timeout,,,941699.2999999999,941698325,939714025,939730.4999999999,939730702,941715,,grey,HA25HA07,36,f,5,0,Psychologie,0,0,0,0,0,,A
Stimulus,canvas.Screen,2_21_0_1,2022-07-18T15:13:58.485Z,,,1,AV,100.32600000000093,timeout,,,941800.2000000001,941798649,941698325,941699.7000000001,941715,941815326,,grey,HA25HA07,36,f,5,0,Psychologie,0,0,0,0,0,,A
Reaction,canvas.Screen,2_21_0_2,2022-07-18T15:13:58.667Z,,,1,AV,165.77399999997579,response,stim_detected,mousedown,941982.6,941981.1,941798649,941800.4999999999,941815326,941998879,,grey,HA25HA07,36,f,5,0,Psychologie,0,0,0,0,0,,A
Trial,flow.Sequence,2_21_0,2022-07-18T15:13:58.668Z,,,1,AV,2250.3979999999283,completion,,,941982.9,941981.1,939714025,939730.4999999999,939730702,941998879,,grey,HA25HA07,36,f,5,0,Psychologie,0,0,0,0,0,,A
Frame,canvas.Frame,2_21,2022-07-18T15:13:58.668Z,,,1,AV,2252.4980000000214,,,,941983.2999999999,941983.2000000001,939714025,939729.6,939730702,941998879,,grey,HA25HA07,36,f,5,0,Psychologie,0,0,0,0,0,,A
Fixation,canvas.Screen,2_22_0_0,2022-07-18T15:14:00.971Z,,,1,A,2302.5040000000736,timeout,,,944286.4,944284699,941982202,941984.7999999999,941998879,944301383,,black,HA25HA07,36,f,5,0,Psychologie,0,0,0,0,0,,AV
Stimulus,canvas.Screen,2_22_0_1,2022-07-18T15:14:01.070Z,,,1,A,99.13299999991432,timeout,,,944385.4,944383839,944284699,944286.7000000001,944301383,944400516,,black,HA25HA07,36,f,5,0,Psychologie,0,0,0,0,0,,AV
Reaction,canvas.Screen,2_22_0_2,2022-07-18T15:14:01.252Z,,,1,A,165.48399999993853,response,stim_detected,mousedown,944567.4999999999,944565.9999999999,944383839,944385.7999999999,944400516,944583935,,black,HA25HA07,36,f,5,0,Psychologie,0,0,0,0,0,,AV
Trial,flow.Sequence,2_22_0,2022-07-18T15:14:01.253Z,,,1,A,2567.1209999999264,completion,,,944567.9999999999,944565.9999999999,941982202,941984.7000000001,941998879,944583935,,black,HA25HA07,36,f,5,0,Psychologie,0,0,0,0,0,,AV
Frame,canvas.Frame,2_22,2022-07-18T15:14:01.253Z,,,1,A,2569.2210000000196,,,,944568.2999999999,944568.1,941982202,941983.6,941998879,944583935,,black,HA25HA07,36,f,5,0,Psychologie,0,0,0,0,0,,AV
Fixation,canvas.Screen,2_23_0_0,2022-07-18T15:14:03.422Z,,,1,A,2168.4529999999795,timeout,,,946737.4,946735708,944567258,944569.6,944583935,946752388,,black,HA25HA07,36,f,5,0,Psychologie,0,0,0,0,0,,A
Stimulus,canvas.Screen,2_23_0_1,2022-07-18T15:14:03.521Z,,,1,A,99.64299999992363,timeout,,,946836.4999999999,946835354,946735708,946737.7000000001,946752388,946852031,,black,HA25HA07,36,f,5,0,Psychologie,0,0,0,0,0,,A
Reaction,canvas.Screen,2_23_0_2,2022-07-18T15:14:03.714Z,,,1,A,175.96899999992456,response,stim_detected,mousedown,947029.4,947027.9999999999,946835354,946836.7000000001,946852031,947035585,,black,HA25HA07,36,f,5,0,Psychologie,0,0,0,0,0,,A
Trial,flow.Sequence,2_23_0,2022-07-18T15:14:03.715Z,,,1,A,2444.0649999998277,completion,,,947029.9,947027.9999999999,944567258,944569.4999999999,944583935,947035585,,black,HA25HA07,36,f,5,0,Psychologie,0,0,0,0,0,,A
Frame,canvas.Frame,2_23,2022-07-18T15:14:03.715Z,,,1,A,2446.0649999998277,,,,947030.2000000001,947029.9999999999,944567258,944568.4999999999,944583935,947035585,,black,HA25HA07,36,f,5,0,Psychologie,0,0,0,0,0,,A
Fixation,canvas.Screen,2_24_0_0,2022-07-18T15:14:06.106Z,,,0,V,2401.3300000000745,timeout,,,949421.6,949420239,947018908,947031.4,947035585,949436915,,grey,HA25HA07,36,f,5,0,Psychologie,0,0,0,0,0,,A
Stimulus,canvas.Screen,2_24_0_1,2022-07-18T15:14:06.206Z,,,0,V,100.33399999991525,timeout,,,949521.7000000001,949520571,949420239,949421.9,949436915,949537249,,grey,HA25HA07,36,f,5,0,Psychologie,0,0,0,0,0,,A
Reaction,canvas.Screen,2_24_0_2,2022-07-18T15:14:06.417Z,,,0,V,193.75099999993108,response,stim_detected,mousedown,949732.4999999999,949730.9999999999,949520571,949521.9,949537249,949737374,,grey,HA25HA07,36,f,5,0,Psychologie,0,0,0,0,0,,A
Trial,flow.Sequence,2_24_0,2022-07-18T15:14:06.417Z,,,0,V,2695.414999999921,completion,,,949732.7999999999,949730.9999999999,947018908,947031.4,947035585,949737374,,grey,HA25HA07,36,f,5,0,Psychologie,0,0,0,0,0,,A
Frame,canvas.Frame,2_24,2022-07-18T15:14:06.418Z,,,0,V,2697.3150000000605,,,,949733.2000000001,949732.9,947018908,947030.4,947035585,949737374,,grey,HA25HA07,36,f,5,0,Psychologie,0,0,0,0,0,,A
Fixation,canvas.Screen,2_25_0_0,2022-07-18T15:14:08.791Z,,,1,A,2384.6530000000494,timeout,,,952106.6,952105351,949720697,949734.4999999999,949737374,952122027,,black,HA25HA07,36,f,5,0,Psychologie,0,0,0,0,0,,V
Stimulus,canvas.Screen,2_25_0_1,2022-07-18T15:14:08.891Z,,,1,A,100.3969999999972,timeout,,,952206.6,952205746,952105351,952106.9,952122027,952222424,,black,HA25HA07,36,f,5,0,Psychologie,0,0,0,0,0,,V
Reaction,canvas.Screen,2_25_0_2,2022-07-18T15:14:09.168Z,,,1,A,259.4760000000242,response,stim_detected,mousedown,952483.6,952481.9,952205746,952206.7999999999,952222424,952489213,,black,HA25HA07,36,f,5,0,Psychologie,0,0,0,0,0,,V
Trial,flow.Sequence,2_25_0,2022-07-18T15:14:09.169Z,,,1,A,2744.526000000071,completion,,,952483.9999999999,952481.9,949720697,949734.2000000001,949737374,952489213,,black,HA25HA07,36,f,5,0,Psychologie,0,0,0,0,0,,V
Frame,canvas.Frame,2_25,2022-07-18T15:14:09.169Z,,,1,A,2746.726000000024,,,,952484.4,952484.1,949720697,949733.2999999999,949737374,952489213,,black,HA25HA07,36,f,5,0,Psychologie,0,0,0,0,0,,V
Fixation,canvas.Screen,2_26_0_0,2022-07-18T15:14:11.593Z,,,1,AV,2433.5289999999804,timeout,,,954908.1,954906073,952472536,952485.6,952489213,954922742,,grey,HA25HA07,36,f,5,0,Psychologie,0,0,0,0,0,,A
Stimulus,canvas.Screen,2_26_0_1,2022-07-18T15:14:11.694Z,,,1,AV,101.48400000005495,timeout,,,955008.9,955007549,954906073,954908.4,954922742,955024226,,grey,HA25HA07,36,f,5,0,Psychologie,0,0,0,0,0,,A
Reaction,canvas.Screen,2_26_0_2,2022-07-18T15:14:11.896Z,,,1,AV,185.67399999999907,response,stim_detected,mousedown,955211.4,955209.9,955007549,955009.1,955024226,955224308,,grey,HA25HA07,36,f,5,0,Psychologie,0,0,0,0,0,,A
Trial,flow.Sequence,2_26_0,2022-07-18T15:14:11.896Z,,,1,AV,2720.6870000000345,completion,,,955211.9,955209.9,952472536,952485.4999999999,952489213,955224308,,grey,HA25HA07,36,f,5,0,Psychologie,0,0,0,0,0,,A
Frame,canvas.Frame,2_26,2022-07-18T15:14:11.897Z,,,1,AV,2722.7869999998948,,,,955212.1,955211.9999999999,952472536,952484.4999999999,952489213,955224308,,grey,HA25HA07,36,f,5,0,Psychologie,0,0,0,0,0,,A
Fixation,canvas.Screen,2_27_0_0,2022-07-18T15:14:13.830Z,,,0,V,1936.015000000014,timeout,,,957144.9,957143633,955207631,955213.2000000001,955224308,957160323,,grey,HA25HA07,36,f,5,0,Psychologie,0,0,0,0,0,,AV
Stimulus,canvas.Screen,2_27_0_1,2022-07-18T15:14:13.931Z,,,0,V,100.14000000001397,timeout,,,957246.2999999999,957243773,957143633,957145.2999999999,957160323,957260463,,grey,HA25HA07,36,f,5,0,Psychologie,0,0,0,0,0,,AV
Reaction,canvas.Screen,2_27_0_2,2022-07-18T15:14:14.202Z,,,0,V,255.43700000003446,response,stim_detected,mousedown,957517.4,957515.9,957243773,957246.7000000001,957260463,957525732,,grey,HA25HA07,36,f,5,0,Psychologie,0,0,0,0,0,,AV
Trial,flow.Sequence,2_27_0,2022-07-18T15:14:14.202Z,,,0,V,2291.5920000000624,completion,,,957517.7999999999,957515.9,955207631,955213.2000000001,955224308,957525732,,grey,HA25HA07,36,f,5,0,Psychologie,0,0,0,0,0,,AV
Frame,canvas.Frame,2_27,2022-07-18T15:14:14.203Z,,,0,V,2293.5920000000624,,,,957518.2000000001,957517.9,955207631,955212.2999999999,955224308,957525732,,grey,HA25HA07,36,f,5,0,Psychologie,0,0,0,0,0,,AV
Fixation,canvas.Screen,2_28_0_0,2022-07-18T15:14:16.196Z,,,1,AV,2000.8500000000931,timeout,,,959510.9999999999,959509909,957509056,957519.2999999999,957525732,959526582,,grey,HA25HA07,36,f,5,0,Psychologie,0,0,0,0,0,,V
Stimulus,canvas.Screen,2_28_0_1,2022-07-18T15:14:16.297Z,,,1,AV,100.69999999995343,timeout,,,959611.9999999999,959610605,959509909,959511.2999999999,959526582,959627282,,grey,HA25HA07,36,f,5,0,Psychologie,0,0,0,0,0,,V
Reaction,canvas.Screen,2_28_0_2,2022-07-18T15:14:16.449Z,,,1,AV,135.51799999992363,response,stim_detected,mousedown,959764.7999999999,959762.7999999999,959610605,959612.2999999999,959627282,959777347,,grey,HA25HA07,36,f,5,0,Psychologie,0,0,0,0,0,,V
Trial,flow.Sequence,2_28_0,2022-07-18T15:14:16.450Z,,,1,AV,2237.06799999997,completion,,,959765.2000000001,959762.7999999999,957509056,957519.2999999999,957525732,959777347,,grey,HA25HA07,36,f,5,0,Psychologie,0,0,0,0,0,,V
Frame,canvas.Frame,2_28,2022-07-18T15:14:16.450Z,,,1,AV,2239.6680000000633,,,,959765.6,959765.4,957509056,957518.2999999999,957525732,959777347,,grey,HA25HA07,36,f,5,0,Psychologie,0,0,0,0,0,,V
Fixation,canvas.Screen,2_29_0_0,2022-07-18T15:14:18.799Z,,,1,A,2351.764000000083,timeout,,,962114.7999999999,962112432,959760.67,959766.7000000001,959777347,962129111,,black,HA25HA07,36,f,5,0,Psychologie,0,0,0,0,0,,AV
Stimulus,canvas.Screen,2_29_0_1,2022-07-18T15:14:18.899Z,,,1,A,99.29999999993015,timeout,,,962213.7999999999,962211737,962112432,962115.1,962129111,962228411,,black,HA25HA07,36,f,5,0,Psychologie,0,0,0,0,0,,AV
Reaction,canvas.Screen,2_29_0_2,2022-07-18T15:14:19.241Z,,,1,A,325.78900000010617,response,stim_detected,mousedown,962555.9,962554.2000000001,962211737,962214.1,962228411,962562553,,black,HA25HA07,36,f,5,0,Psychologie,0,0,0,0,0,,AV
Trial,flow.Sequence,2_29_0,2022-07-18T15:14:19.241Z,,,1,A,2776.853000000119,completion,,,962556.2000000001,962554.2000000001,959760.67,959766.6,959777347,962562553,,black,HA25HA07,36,f,5,0,Psychologie,0,0,0,0,0,,AV
Frame,canvas.Frame,2_29,2022-07-18T15:14:19.241Z,,,1,A,2779.0530000000726,,,,962556.6,962556.4,959760.67,959765.7999999999,959777347,962562553,,black,HA25HA07,36,f,5,0,Psychologie,0,0,0,0,0,,AV
Fixation,canvas.Screen,2_30_0_0,2022-07-18T15:14:21.382Z,,,1,A,2149.972999999998,timeout,,,964697.2000000001,964695858,962545876,962557.7000000001,962562553,964712526,,black,HA25HA07,36,f,5,0,Psychologie,0,0,0,0,0,,A
Stimulus,canvas.Screen,2_30_0_1,2022-07-18T15:14:21.483Z,,,1,A,101.39300000004005,timeout,,,964798.4,964797242,964695858,964697.6,964712526,964813919,,black,HA25HA07,36,f,5,0,Psychologie,0,0,0,0,0,,A
Reaction,canvas.Screen,2_30_0_2,2022-07-18T15:14:21.669Z,,,1,A,168.6809999999823,response,stim_detected,mousedown,964984.1,964982.6,964797242,964798.7000000001,964813919,964997.49,,black,HA25HA07,36,f,5,0,Psychologie,0,0,0,0,0,,A
Trial,flow.Sequence,2_30_0,2022-07-18T15:14:21.669Z,,,1,A,2420.0470000000205,completion,,,964984.4999999999,964982.6,962545876,962557.6,962562553,964997.49,,black,HA25HA07,36,f,5,0,Psychologie,0,0,0,0,0,,A
Frame,canvas.Frame,2_30,2022-07-18T15:14:21.669Z,,,1,A,2422.1470000001136,,,,964984.7999999999,964984.7000000001,962545876,962556.7999999999,962562553,964997.49,,black,HA25HA07,36,f,5,0,Psychologie,0,0,0,0,0,,A
Fixation,canvas.Screen,2_31_0_0,2022-07-18T15:14:23.569Z,,,1,A,1901.7870000000112,timeout,,,966884.4,966882595,964980813,964985.9999999999,964997.49,966899277,,black,HA25HA07,36,f,5,0,Psychologie,0,0,0,0,0,,A
Stimulus,canvas.Screen,2_31_0_1,2022-07-18T15:14:23.668Z,,,1,A,99.31099999998696,timeout,,,966983.2999999999,966981913,966882595,966884.7000000001,966899277,966998588,,black,HA25HA07,36,f,5,0,Psychologie,0,0,0,0,0,,A
Reaction,canvas.Screen,2_31_0_2,2022-07-18T15:14:23.844Z,,,1,A,159.11200000008103,response,stim_detected,mousedown,967159.2000000001,967157.7000000001,966981913,966983.7000000001,966998588,967182273,,black,HA25HA07,36,f,5,0,Psychologie,0,0,0,0,0,,A
Trial,flow.Sequence,2_31_0,2022-07-18T15:14:23.844Z,,,1,A,2160.210000000079,completion,,,967159.7000000001,967157.7000000001,964980813,964985.9,964997.49,967182273,,black,HA25HA07,36,f,5,0,Psychologie,0,0,0,0,0,,A
Frame,canvas.Frame,2_31,2022-07-18T15:14:23.845Z,,,1,A,2162.210000000079,,,,967159.9999999999,967159.7000000001,964980813,964984.9,964997.49,967182273,,black,HA25HA07,36,f,5,0,Psychologie,0,0,0,0,0,,A
Fixation,canvas.Screen,2_32_0_0,2022-07-18T15:14:25.953Z,,,1,A,2101.3009999999776,timeout,,,969268.4999999999,969266897,967148919,967161.2000000001,967182273,969283574,,black,HA25HA07,36,f,5,0,Psychologie,0,0,0,0,0,,A
Stimulus,canvas.Screen,2_32_0_1,2022-07-18T15:14:26.053Z,,,1,A,99.82299999997485,timeout,,,969368.4,969366722,969266897,969268.7999999999,969283574,969383397,,black,HA25HA07,36,f,5,0,Psychologie,0,0,0,0,0,,A
Reaction,canvas.Screen,2_32_0_2,2022-07-18T15:14:26.241Z,,,1,A,171.30300000007264,response,stim_detected,mousedown,969556.2000000001,969554.7000000001,969366722,969368.6,969383397,969567193,,black,HA25HA07,36,f,5,0,Psychologie,0,0,0,0,0,,A
Trial,flow.Sequence,2_32_0,2022-07-18T15:14:26.241Z,,,1,A,2372.427000000025,completion,,,969556.6,969554.7000000001,967148919,967160.9999999999,967182273,969567193,,black,HA25HA07,36,f,5,0,Psychologie,0,0,0,0,0,,A
Frame,canvas.Frame,2_32,2022-07-18T15:14:26.242Z,,,1,A,2374.427000000025,,,,969556.9,969556.7000000001,967148919,967160.1,967182273,969567193,,black,HA25HA07,36,f,5,0,Psychologie,0,0,0,0,0,,A
Fixation,canvas.Screen,2_33_0_0,2022-07-18T15:14:28.589Z,,,1,AV,2352.655000000028,timeout,,,971904.6,971903163,969550516,969558.1,969567193,971919848,,grey,HA25HA07,36,f,5,0,Psychologie,0,0,0,0,0,,A
Stimulus,canvas.Screen,2_33_0_1,2022-07-18T15:14:28.689Z,,,1,AV,98.83100000000559,timeout,,,972004.2000000001,972002003,971903163,971904.9,971919848,972018679,,grey,HA25HA07,36,f,5,0,Psychologie,0,0,0,0,0,,A
Reaction,canvas.Screen,2_33_0_2,2022-07-18T15:14:28.859Z,,,1,AV,153.920999999973,response,stim_detected,mousedown,972174.2999999999,972172.6,972002003,972004.4999999999,972018679,972185581,,grey,HA25HA07,36,f,5,0,Psychologie,0,0,0,0,0,,A
Trial,flow.Sequence,2_33_0,2022-07-18T15:14:28.860Z,,,1,AV,2605.4070000000065,completion,,,972174.7000000001,972172.6,969550516,969557.9,969567193,972185581,,grey,HA25HA07,36,f,5,0,Psychologie,0,0,0,0,0,,A
Frame,canvas.Frame,2_33,2022-07-18T15:14:28.860Z,,,1,AV,2607.707000000053,,,,972175.1,972174.9,969550516,969557.1,969567193,972185581,,grey,HA25HA07,36,f,5,0,Psychologie,0,0,0,0,0,,A
Fixation,canvas.Screen,2_34_0_0,2022-07-18T15:14:30.942Z,,,0,V,2086.069999999949,timeout,,,974256.9,974254963,972168904,972176.4,972185581,974271651,,grey,HA25HA07,36,f,5,0,Psychologie,0,0,0,0,0,,AV
Stimulus,canvas.Screen,2_34_0_1,2022-07-18T15:14:31.039Z,,,0,V,98.72500000009313,timeout,,,974354.6,974353699,974254963,974257.1,974271651,974370376,,grey,HA25HA07,36,f,5,0,Psychologie,0,0,0,0,0,,AV
Reaction,canvas.Screen,2_34_0_2,2022-07-18T15:14:31.225Z,,,0,V,168.32400000002235,response,stim_detected,mousedown,974540.1,974538.7000000001,974353699,974354.7999999999,974370376,974553859,,grey,HA25HA07,36,f,5,0,Psychologie,0,0,0,0,0,,AV
Trial,flow.Sequence,2_34_0,2022-07-18T15:14:31.225Z,,,0,V,2353.1190000000643,completion,,,974540.4999999999,974538.7000000001,972168904,972176.2000000001,972185581,974553859,,grey,HA25HA07,36,f,5,0,Psychologie,0,0,0,0,0,,AV
Frame,canvas.Frame,2_34,2022-07-18T15:14:31.226Z,,,0,V,2354.918999999878,,,,974540.7000000001,974540.4999999999,972168904,972175.2999999999,972185581,974553859,,grey,HA25HA07,36,f,5,0,Psychologie,0,0,0,0,0,,AV
Fixation,canvas.Screen,2_35_0_0,2022-07-18T15:14:33.358Z,,,1,AV,2134.6549999999115,timeout,,,976672.7999999999,976671837,974537182,974541.9,974553859,976688514,,grey,HA25HA07,36,f,5,0,Psychologie,0,0,0,0,0,,V
Stimulus,canvas.Screen,2_35_0_1,2022-07-18T15:14:33.459Z,,,1,AV,100.18700000003446,timeout,,,976773.7999999999,976772024,976671837,976672.9999999999,976688514,976788701,,grey,HA25HA07,36,f,5,0,Psychologie,0,0,0,0,0,,V
Reaction,canvas.Screen,2_35_0_2,2022-07-18T15:14:33.604Z,,,1,AV,128.89899999997579,response,stim_detected,mousedown,976919.1,976917.6,976772024,976774.1,976788701,976922096,,grey,HA25HA07,36,f,5,0,Psychologie,0,0,0,0,0,,V
Trial,flow.Sequence,2_35_0,2022-07-18T15:14:33.604Z,,,1,AV,2363.7409999999218,completion,,,976919.4999999999,976917.6,974537182,974541.7000000001,974553859,976922096,,grey,HA25HA07,36,f,5,0,Psychologie,0,0,0,0,0,,V
Frame,canvas.Frame,2_35,2022-07-18T15:14:33.605Z,,,1,AV,2365.7409999999218,,,,976919.7999999999,976919.6,974537182,974540.9,974553859,976922096,,grey,HA25HA07,36,f,5,0,Psychologie,0,0,0,0,0,,V
Fixation,canvas.Screen,2_36_0_0,2022-07-18T15:14:35.560Z,,,1,AV,1968.1459999999497,timeout,,,978874.9,978873563,976905419,976920.9999999999,976922096,978890242,,grey,HA25HA07,36,f,5,0,Psychologie,0,0,0,0,0,,AV
Stimulus,canvas.Screen,2_36_0_1,2022-07-18T15:14:35.660Z,,,1,AV,99.70100000000093,timeout,,,978974.7999999999,978973267,978873563,978875.2999999999,978890242,978989943,,grey,HA25HA07,36,f,5,0,Psychologie,0,0,0,0,0,,AV
Reaction,canvas.Screen,2_36_0_2,2022-07-18T15:14:35.839Z,,,1,AV,162.85699999995995,response,stim_detected,mousedown,979154.4,979152.7999999999,978973267,978975.1,978989943,979156897,,grey,HA25HA07,36,f,5,0,Psychologie,0,0,0,0,0,,AV
Trial,flow.Sequence,2_36_0,2022-07-18T15:14:35.840Z,,,1,AV,2230.7039999999106,completion,,,979154.7999999999,979152.7999999999,976905419,976920.9,976922096,979156897,,grey,HA25HA07,36,f,5,0,Psychologie,0,0,0,0,0,,AV
Frame,canvas.Frame,2_36,2022-07-18T15:14:35.840Z,,,1,AV,2232.8040000000037,,,,979155.1,979154.9,976905419,976919.9999999999,976922096,979156897,,grey,HA25HA07,36,f,5,0,Psychologie,0,0,0,0,0,,AV
Fixation,canvas.Screen,2_37_0_0,2022-07-18T15:14:37.529Z,,,0,V,1701.9370000000345,timeout,,,980843.9,980842149,979140.22,979156.2999999999,979156897,980858834,,grey,HA25HA07,36,f,5,0,Psychologie,0,0,0,0,0,,AV
Stimulus,canvas.Screen,2_37_0_1,2022-07-18T15:14:37.628Z,,,0,V,99.11499999999069,timeout,,,980942.9999999999,980941273,980842149,980844.2000000001,980858834,980957949,,grey,HA25HA07,36,f,5,0,Psychologie,0,0,0,0,0,,AV
Reaction,canvas.Screen,2_37_0_2,2022-07-18T15:14:37.831Z,,,0,V,186.45100000000093,response,stim_detected,mousedown,981145.9999999999,981144.4,980941273,980943.2000000001,980957949,981158.23,,grey,HA25HA07,36,f,5,0,Psychologie,0,0,0,0,0,,AV
Trial,flow.Sequence,2_37_0,2022-07-18T15:14:37.831Z,,,0,V,1987.503000000026,completion,,,981146.2999999999,981144.4,979140.22,979156.2000000001,979156897,981158.23,,grey,HA25HA07,36,f,5,0,Psychologie,0,0,0,0,0,,AV
Frame,canvas.Frame,2_37,2022-07-18T15:14:37.831Z,,,0,V,1989.503000000026,,,,981146.6,981146.4,979140.22,979155.2999999999,979156897,981158.23,,grey,HA25HA07,36,f,5,0,Psychologie,0,0,0,0,0,,AV
Fixation,canvas.Screen,2_38_0_0,2022-07-18T15:14:39.930Z,,,1,A,2101.8499999999767,timeout,,,983244.9999999999,983243399,981141553,981147.7000000001,981158.23,983260.08,,black,HA25HA07,36,f,5,0,Psychologie,0,0,0,0,0,,V
Stimulus,canvas.Screen,2_38_0_1,2022-07-18T15:14:40.029Z,,,1,A,99.22500000009313,timeout,,,983344.1,983342631,983243399,983245.2999999999,983260.08,983359305,,black,HA25HA07,36,f,5,0,Psychologie,0,0,0,0,0,,V
Reaction,canvas.Screen,2_38_0_2,2022-07-18T15:14:40.184Z,,,1,A,138.19499999983236,response,stim_detected,mousedown,983498.9,983497.4999999999,983342631,983344.4,983359305,983509805,,black,HA25HA07,36,f,5,0,Psychologie,0,0,0,0,0,,V
Trial,flow.Sequence,2_38_0,2022-07-18T15:14:40.184Z,,,1,A,2339.269999999902,completion,,,983499.4,983497.4999999999,981141553,981147.7000000001,981158.23,983509805,,black,HA25HA07,36,f,5,0,Psychologie,0,0,0,0,0,,V
Frame,canvas.Frame,2_38,2022-07-18T15:14:40.185Z,,,1,A,2341.269999999902,,,,983499.7000000001,983499.4999999999,981141553,981146.7999999999,981158.23,983509805,,black,HA25HA07,36,f,5,0,Psychologie,0,0,0,0,0,,V
Fixation,canvas.Screen,2_39_0_0,2022-07-18T15:14:42.480Z,,,0,V,2300.826000000001,timeout,,,985795.4,985793958,983493128,983500.7000000001,983509805,985810631,,grey,HA25HA07,36,f,5,0,Psychologie,0,0,0,0,0,,A
Stimulus,canvas.Screen,2_39_0_1,2022-07-18T15:14:42.581Z,,,0,V,100.7839999999851,timeout,,,985896.2000000001,985894736,985793958,985795.4999999999,985810631,985911415,,grey,HA25HA07,36,f,5,0,Psychologie,0,0,0,0,0,,A
Reaction,canvas.Screen,2_39_0_2,2022-07-18T15:14:42.760Z,,,0,V,161.98499999998603,response,stim_detected,mousedown,986074.9999999999,986073.4,985894736,985896.4999999999,985911415,986078148,,grey,HA25HA07,36,f,5,0,Psychologie,0,0,0,0,0,,A
Trial,flow.Sequence,2_39_0,2022-07-18T15:14:42.760Z,,,0,V,2563.594999999972,completion,,,986075.4,986073.4,983493128,983500.7000000001,983509805,986078148,,grey,HA25HA07,36,f,5,0,Psychologie,0,0,0,0,0,,A
Frame,canvas.Frame,2_39,2022-07-18T15:14:42.761Z,,,0,V,2565.6949999998324,,,,986075.6,986075.4999999999,983493128,983499.7999999999,983509805,986078148,,grey,HA25HA07,36,f,5,0,Psychologie,0,0,0,0,0,,A
Fixation,canvas.Screen,2_40_0_0,2022-07-18T15:14:44.466Z,,,0,V,1718.7209999999031,timeout,,,987781.2999999999,987780183,986061471,986076.7000000001,986078148,987796869,,grey,HA25HA07,36,f,5,0,Psychologie,0,0,0,0,0,,V
Stimulus,canvas.Screen,2_40_0_1,2022-07-18T15:14:44.565Z,,,0,V,99.01200000010431,timeout,,,987880.2000000001,987879205,987780183,987781.4999999999,987796869,987895881,,grey,HA25HA07,36,f,5,0,Psychologie,0,0,0,0,0,,V
Reaction,canvas.Screen,2_40_0_2,2022-07-18T15:14:44.772Z,,,0,V,189.51899999997113,response,stim_detected,mousedown,988086.9,988085.4,987879205,987880.4999999999,987895881,988096186,,grey,HA25HA07,36,f,5,0,Psychologie,0,0,0,0,0,,V
Trial,flow.Sequence,2_40_0,2022-07-18T15:14:44.772Z,,,0,V,2007.2519999999786,completion,,,988087.2999999999,988085.4,986061471,986076.7000000001,986078148,988096186,,grey,HA25HA07,36,f,5,0,Psychologie,0,0,0,0,0,,V
Frame,canvas.Frame,2_40,2022-07-18T15:14:44.772Z,,,0,V,2009.2519999999786,,,,988087.6,988087.4,986061471,986075.7999999999,986078148,988096186,,grey,HA25HA07,36,f,5,0,Psychologie,0,0,0,0,0,,V
Fixation,canvas.Screen,2_41_0_0,2022-07-18T15:14:46.383Z,,,1,AV,1617.0100000000093,timeout,,,989698.2000000001,989696525,988079509,988088.7999999999,988096186,989713196,,grey,HA25HA07,36,f,5,0,Psychologie,0,0,0,0,0,,V
Stimulus,canvas.Screen,2_41_0_1,2022-07-18T15:14:46.483Z,,,1,AV,100.84600000001956,timeout,,,989798.4,989797363,989696525,989698.4,989713196,989814042,,grey,HA25HA07,36,f,5,0,Psychologie,0,0,0,0,0,,V
Reaction,canvas.Screen,2_41_0_2,2022-07-18T15:14:46.623Z,,,1,AV,122.45799999986775,response,stim_detected,mousedown,989937.9,989936.4999999999,989797363,989798.7999999999,989814042,989964087,,grey,HA25HA07,36,f,5,0,Psychologie,0,0,0,0,0,,V
Trial,flow.Sequence,2_41_0,2022-07-18T15:14:46.623Z,,,1,AV,1840.3139999998966,completion,,,989938.4999999999,989936.4999999999,988079509,988088.7000000001,988096186,989964087,,grey,HA25HA07,36,f,5,0,Psychologie,0,0,0,0,0,,V
Frame,canvas.Frame,2_41,2022-07-18T15:14:46.624Z,,,1,AV,1842.4139999999898,,,,989938.7999999999,989938.6,988079509,988087.7999999999,988096186,989964087,,grey,HA25HA07,36,f,5,0,Psychologie,0,0,0,0,0,,V
Fixation,canvas.Screen,2_42_0_0,2022-07-18T15:14:48.285Z,,,1,AV,1651.5719999999274,timeout,,,991600.4999999999,991598977,989930733,989939.9999999999,989964087,991615659,,grey,HA25HA07,36,f,5,0,Psychologie,0,0,0,0,0,,AV
Stimulus,canvas.Screen,2_42_0_1,2022-07-18T15:14:48.384Z,,,1,AV,99.3420000000624,timeout,,,991699.4,991698326,991598977,991600.7999999999,991615659,991715001,,grey,HA25HA07,36,f,5,0,Psychologie,0,0,0,0,0,,AV
Reaction,canvas.Screen,2_42_0_2,2022-07-18T15:14:48.518Z,,,1,AV,116.49899999983609,response,stim_detected,mousedown,991832.9999999999,991831.4999999999,991698326,991699.7000000001,991715001,991848688,,grey,HA25HA07,36,f,5,0,Psychologie,0,0,0,0,0,,AV
Trial,flow.Sequence,2_42_0,2022-07-18T15:14:48.518Z,,,1,AV,1867.4129999998258,completion,,,991833.7000000001,991831.4999999999,989930733,989939.9,989964087,991848688,,grey,HA25HA07,36,f,5,0,Psychologie,0,0,0,0,0,,AV
Frame,canvas.Frame,2_42,2022-07-18T15:14:48.519Z,,,1,AV,1869.613000000012,,,,991833.9999999999,991833.7000000001,989930733,989938.9999999999,989964087,991848688,,grey,HA25HA07,36,f,5,0,Psychologie,0,0,0,0,0,,AV
Fixation,canvas.Screen,2_43_0_0,2022-07-18T15:14:50.603Z,,,1,AV,2084.6340000000782,timeout,,,993918.4999999999,993916645,991832011,991835.2000000001,991848688,993933322,,grey,HA25HA07,36,f,5,0,Psychologie,0,0,0,0,0,,AV
Stimulus,canvas.Screen,2_43_0_1,2022-07-18T15:14:50.702Z,,,1,AV,99.11399999994319,timeout,,,994017.4999999999,994015766,993916645,993918.7000000001,993933322,994032436,,grey,HA25HA07,36,f,5,0,Psychologie,0,0,0,0,0,,AV
Reaction,canvas.Screen,2_43_0_2,2022-07-18T15:14:50.845Z,,,1,AV,125.96400000003632,response,stim_detected,mousedown,994159.9,994158.4,994015766,994017.7999999999,994032436,994166.89,,grey,HA25HA07,36,f,5,0,Psychologie,0,0,0,0,0,,AV
Trial,flow.Sequence,2_43_0,2022-07-18T15:14:50.845Z,,,1,AV,2309.7120000000577,completion,,,994160.2999999999,994158.4,991832011,991834.9999999999,991848688,994166.89,,grey,HA25HA07,36,f,5,0,Psychologie,0,0,0,0,0,,AV
Frame,canvas.Frame,2_43,2022-07-18T15:14:50.846Z,,,1,AV,2311.7120000000577,,,,994160.7000000001,994160.4,991832011,991834.2000000001,991848688,994166.89,,grey,HA25HA07,36,f,5,0,Psychologie,0,0,0,0,0,,AV
Fixation,canvas.Screen,2_44_0_0,2022-07-18T15:14:53.138Z,,,1,A,2300.8349999999627,timeout,,,996453.2000000001,996451052,994150213,994161.9,994166.89,996467725,,black,HA25HA07,36,f,5,0,Psychologie,0,0,0,0,0,,AV
Stimulus,canvas.Screen,2_44_0_1,2022-07-18T15:14:53.239Z,,,1,A,100.77100000006612,timeout,,,996554.2000000001,996551818,996451052,996453.4999999999,996467725,996568496,,black,HA25HA07,36,f,5,0,Psychologie,0,0,0,0,0,,AV
Reaction,canvas.Screen,2_44_0_2,2022-07-18T15:14:53.632Z,,,1,A,376.50399999984074,response,stim_detected,mousedown,996946.7000000001,996944.9999999999,996551818,996554.4,996568496,996952049,,black,HA25HA07,36,f,5,0,Psychologie,0,0,0,0,0,,AV
Trial,flow.Sequence,2_44_0,2022-07-18T15:14:53.632Z,,,1,A,2778.1099999998696,completion,,,996947.2000000001,996944.9999999999,994150213,994161.7999999999,994166.89,996952049,,black,HA25HA07,36,f,5,0,Psychologie,0,0,0,0,0,,AV
Frame,canvas.Frame,2_44,2022-07-18T15:14:53.632Z,,,1,A,2780.409999999916,,,,996947.6,996947.2999999999,994150213,994160.9,994166.89,996952049,,black,HA25HA07,36,f,5,0,Psychologie,0,0,0,0,0,,AV
Fixation,canvas.Screen,2_45_0_0,2022-07-18T15:14:55.824Z,,,0,V,2201.9459999999963,timeout,,,999138.7000000001,999137314,996935372,996948.7999999999,996952049,999153995,,grey,HA25HA07,36,f,5,0,Psychologie,0,0,0,0,0,,A
Stimulus,canvas.Screen,2_45_0_1,2022-07-18T15:14:55.923Z,,,0,V,99.36300000001211,timeout,,,999237.9999999999,999236682,999137314,999138.9999999999,999153995,999253358,,grey,HA25HA07,36,f,5,0,Psychologie,0,0,0,0,0,,A
Reaction,canvas.Screen,2_45_0_2,2022-07-18T15:14:56.111Z,,,0,V,170.9419999999227,response,stim_detected,mousedown,999425.7999999999,999424.2999999999,999236682,999238.2000000001,999253358,999437034,,grey,HA25HA07,36,f,5,0,Psychologie,0,0,0,0,0,,A
Trial,flow.Sequence,2_45_0,2022-07-18T15:14:56.111Z,,,0,V,2472.250999999931,completion,,,999426.1,999424.2999999999,996935372,996948.7000000001,996952049,999437034,,grey,HA25HA07,36,f,5,0,Psychologie,0,0,0,0,0,,A
Frame,canvas.Frame,2_45,2022-07-18T15:14:56.111Z,,,0,V,2474.250999999931,,,,999426.4,999426.2999999999,996935372,996947.7000000001,996952049,999437034,,grey,HA25HA07,36,f,5,0,Psychologie,0,0,0,0,0,,A
Fixation,canvas.Screen,2_46_0_0,2022-07-18T15:14:58.074Z,,,1,A,1966.8340000000317,timeout,,,1001388.7999999999,1001387199,999420357,999427.6,999437034,1001403868,,black,HA25HA07,36,f,5,0,Psychologie,0,0,0,0,0,,V
Stimulus,canvas.Screen,2_46_0_1,2022-07-18T15:14:58.175Z,,,1,A,101.02500000002328,timeout,,,1001489.7000000001,1001488217,1001387199,1001389.1,1001403868,1001504893,,black,HA25HA07,36,f,5,0,Psychologie,0,0,0,0,0,,V
Reaction,canvas.Screen,2_46_0_2,2022-07-18T15:14:58.345Z,,,1,A,153.4069999998901,response,stim_detected,mousedown,1001659.7000000001,1001658.2999999999,1001488217,1001489.9999999999,1001504893,1001671834,,black,HA25HA07,36,f,5,0,Psychologie,0,0,0,0,0,,V
Trial,flow.Sequence,2_46_0,2022-07-18T15:14:58.345Z,,,1,A,2221.265999999945,completion,,,1001660.1,1001658.2999999999,999420357,999427.4999999999,999437034,1001671834,,black,HA25HA07,36,f,5,0,Psychologie,0,0,0,0,0,,V
Frame,canvas.Frame,2_46,2022-07-18T15:14:58.345Z,,,1,A,2223.1660000000848,,,,1001660.4,1001660.2000000001,999420357,999426.6,999437034,1001671834,,black,HA25HA07,36,f,5,0,Psychologie,0,0,0,0,0,,V
Fixation,canvas.Screen,2_47_0_0,2022-07-18T15:15:00.061Z,,,1,AV,1719.109999999986,timeout,,,1003375.9,1003374254,1001655157,1001661.4999999999,1001671834,1003390944,,grey,HA25HA07,36,f,5,0,Psychologie,0,0,0,0,0,,A
Stimulus,canvas.Screen,2_47_0_1,2022-07-18T15:15:00.159Z,,,1,AV,98.73600000003353,timeout,,,1003473.9,1003473003,1003374254,1003376.1,1003390944,1003489.68,,grey,HA25HA07,36,f,5,0,Psychologie,0,0,0,0,0,,A
Reaction,canvas.Screen,2_47_0_2,2022-07-18T15:15:00.349Z,,,1,AV,172.61999999987893,response,stim_detected,mousedown,1003663.7999999999,1003662.2999999999,1003473003,1003474.1,1003489.68,1003673192,,grey,HA25HA07,36,f,5,0,Psychologie,0,0,0,0,0,,A
Trial,flow.Sequence,2_47_0,2022-07-18T15:15:00.349Z,,,1,AV,1990.4659999998985,completion,,,1003664.6,1003662.2999999999,1001655157,1001661.4,1001671834,1003673192,,grey,HA25HA07,36,f,5,0,Psychologie,0,0,0,0,0,,A
Frame,canvas.Frame,2_47,2022-07-18T15:15:00.350Z,,,1,AV,1992.9659999998985,,,,1003664.9999999999,1003664.7999999999,1001655157,1001660.6,1001671834,1003673192,,grey,HA25HA07,36,f,5,0,Psychologie,0,0,0,0,0,,A
Fixation,canvas.Screen,2_48_0_0,2022-07-18T15:15:02.112Z,,,1,AV,1769.46399999992,timeout,,,1005427.1,1005425963,1003656515,1003666.2999999999,1003673192,1005442656,,grey,HA25HA07,36,f,5,0,Psychologie,0,0,0,0,0,,AV
Stimulus,canvas.Screen,2_48_0_1,2022-07-18T15:15:02.210Z,,,1,AV,98.08299999998417,timeout,,,1005524.9999999999,1005524065,1005425963,1005427.4,1005442656,1005540739,,grey,HA25HA07,36,f,5,0,Psychologie,0,0,0,0,0,,AV
Reaction,canvas.Screen,2_48_0_2,2022-07-18T15:15:02.372Z,,,1,AV,144.46100000012666,response,stim_detected,mousedown,1005686.7999999999,1005685.2000000001,1005524065,1005525.2999999999,1005540739,1005691186,,grey,HA25HA07,36,f,5,0,Psychologie,0,0,0,0,0,,AV
Trial,flow.Sequence,2_48_0,2022-07-18T15:15:02.372Z,,,1,AV,2012.0080000000307,completion,,,1005687.2999999999,1005685.2000000001,1003656515,1003666.2000000001,1003673192,1005691186,,grey,HA25HA07,36,f,5,0,Psychologie,0,0,0,0,0,,AV
Frame,canvas.Frame,2_48,2022-07-18T15:15:02.372Z,,,1,AV,2014.107999999891,,,,1005687.4999999999,1005687.2999999999,1003656515,1003665.2000000001,1003673192,1005691186,,grey,HA25HA07,36,f,5,0,Psychologie,0,0,0,0,0,,AV
Fixation,canvas.Screen,2_49_0_0,2022-07-18T15:15:04.546Z,,,1,A,2185.5019999999786,timeout,,,1007861.1,1007860005,1005674509,1005688.7000000001,1005691186,1007876688,,black,HA25HA07,36,f,5,0,Psychologie,0,0,0,0,0,,AV
Stimulus,canvas.Screen,2_49_0_1,2022-07-18T15:15:04.645Z,,,1,A,99.1610000000801,timeout,,,1007960.2000000001,1007959173,1007860005,1007861.2999999999,1007876688,1007975849,,black,HA25HA07,36,f,5,0,Psychologie,0,0,0,0,0,,AV
Reaction,canvas.Screen,2_49_0_2,2022-07-18T15:15:04.860Z,,,1,A,198.25099999993108,response,stim_detected,mousedown,1008175.4999999999,1008174.1,1007959173,1007960.4,1007975849,1008192857,,black,HA25HA07,36,f,5,0,Psychologie,0,0,0,0,0,,AV
Trial,flow.Sequence,2_49_0,2022-07-18T15:15:04.861Z,,,1,A,2482.9139999999898,completion,,,1008175.9,1008174.1,1005674509,1005688.6,1005691186,1008192857,,black,HA25HA07,36,f,5,0,Psychologie,0,0,0,0,0,,AV
Frame,canvas.Frame,2_49,2022-07-18T15:15:04.861Z,,,1,A,2484.8139999998966,,,,1008176.2999999999,1008175.9999999999,1005674509,1005687.7000000001,1005691186,1008192857,,black,HA25HA07,36,f,5,0,Psychologie,0,0,0,0,0,,AV
Fixation,canvas.Screen,2_50_0_0,2022-07-18T15:15:06.513Z,,,0,V,1650.6920000000391,timeout,,,1009828.2000000001,1009826875,1008176.18,1008177.7999999999,1008192857,1009843549,,grey,HA25HA07,36,f,5,0,Psychologie,0,0,0,0,0,,A
Stimulus,canvas.Screen,2_50_0_1,2022-07-18T15:15:06.613Z,,,0,V,100.28700000001118,timeout,,,1009928.1,1009927.16,1009826875,1009828.4,1009843549,1009943836,,grey,HA25HA07,36,f,5,0,Psychologie,0,0,0,0,0,,A
Reaction,canvas.Screen,2_50_0_2,2022-07-18T15:15:06.814Z,,,0,V,184.26399999996647,response,stim_detected,mousedown,1010129.4999999999,1010128.1,1009927.16,1009928.4,1009943836,1010144162,,grey,HA25HA07,36,f,5,0,Psychologie,0,0,0,0,0,,A
Trial,flow.Sequence,2_50_0,2022-07-18T15:15:06.815Z,,,0,V,1935.2430000000168,completion,,,1010129.9,1010128.1,1008176.18,1008177.7000000001,1008192857,1010144162,,grey,HA25HA07,36,f,5,0,Psychologie,0,0,0,0,0,,A
Frame,canvas.Frame,2_50,2022-07-18T15:15:06.815Z,,,0,V,1937.1429999999236,,,,1010130.1,1010129.9999999999,1008176.18,1008176.6,1008192857,1010144162,,grey,HA25HA07,36,f,5,0,Psychologie,0,0,0,0,0,,A
Fixation,canvas.Screen,2_51_0_0,2022-07-18T15:15:08.331Z,,,1,A,1517.613000000012,timeout,,,1011646.2000000001,1011645098,1010127485,1010131.2999999999,1010144162,1011661775,,black,HA25HA07,36,f,5,0,Psychologie,0,0,0,0,0,,V
Stimulus,canvas.Screen,2_51_0_1,2022-07-18T15:15:08.431Z,,,1,A,100.1030000000028,timeout,,,1011746.1,1011745201,1011645098,1011646.4,1011661775,1011761878,,black,HA25HA07,36,f,5,0,Psychologie,0,0,0,0,0,,V
Reaction,canvas.Screen,2_51_0_2,2022-07-18T15:15:08.669Z,,,1,A,221.1219999998575,response,stim_detected,mousedown,1011984.4999999999,1011982.9999999999,1011745201,1011746.4,1011761878,1011995381,,black,HA25HA07,36,f,5,0,Psychologie,0,0,0,0,0,,V
Trial,flow.Sequence,2_51_0,2022-07-18T15:15:08.670Z,,,1,A,1838.8379999998724,completion,,,1011984.9,1011982.9999999999,1010127485,1010131.1,1010144162,1011995381,,black,HA25HA07,36,f,5,0,Psychologie,0,0,0,0,0,,V
Frame,canvas.Frame,2_51,2022-07-18T15:15:08.670Z,,,1,A,1840.8379999998724,,,,1011985.2000000001,1011984.9999999999,1010127485,1010130.4,1010144162,1011995381,,black,HA25HA07,36,f,5,0,Psychologie,0,0,0,0,0,,V
Fixation,canvas.Screen,2_52_0_0,2022-07-18T15:15:10.366Z,,,1,AV,1700.8289999999106,timeout,,,1013681.2999999999,1013679535,1011978704,1011986.2999999999,1011995381,1013696.21,,grey,HA25HA07,36,f,5,0,Psychologie,0,0,0,0,0,,A
Stimulus,canvas.Screen,2_52_0_1,2022-07-18T15:15:10.466Z,,,1,AV,100.28800000005867,timeout,,,1013781.2999999999,1013779821,1013679535,1013681.6,1013696.21,1013796498,,grey,HA25HA07,36,f,5,0,Psychologie,0,0,0,0,0,,A
Reaction,canvas.Screen,2_52_0_2,2022-07-18T15:15:10.608Z,,,1,AV,125.6019999999553,response,stim_detected,mousedown,1013923.6,1013922.1,1013779821,1013781.4999999999,1013796498,1013946651,,grey,HA25HA07,36,f,5,0,Psychologie,0,0,0,0,0,,A
Trial,flow.Sequence,2_52_0,2022-07-18T15:15:10.609Z,,,1,AV,1926.7189999999246,completion,,,1013923.9999999999,1013922.1,1011978704,1011986.2000000001,1011995381,1013946651,,grey,HA25HA07,36,f,5,0,Psychologie,0,0,0,0,0,,A
Frame,canvas.Frame,2_52,2022-07-18T15:15:10.609Z,,,1,AV,1928.7189999999246,,,,1013924.2000000001,1013924.1,1011978704,1011985.2999999999,1011995381,1013946651,,grey,HA25HA07,36,f,5,0,Psychologie,0,0,0,0,0,,A
Fixation,canvas.Screen,2_53_0_0,2022-07-18T15:15:12.318Z,,,1,AV,1701.878000000026,timeout,,,1015633.4999999999,1015631844,1013913297,1013925.2999999999,1013946651,1015648529,,grey,HA25HA07,36,f,5,0,Psychologie,0,0,0,0,0,,AV
Stimulus,canvas.Screen,2_53_0_1,2022-07-18T15:15:12.417Z,,,1,AV,98.77500000002328,timeout,,,1015732.4,1015730632,1015631844,1015633.7999999999,1015648529,1015747304,,grey,HA25HA07,36,f,5,0,Psychologie,0,0,0,0,0,,AV
Reaction,canvas.Screen,2_53_0_2,2022-07-18T15:15:12.552Z,,,1,AV,118.69599999987986,response,stim_detected,mousedown,1015867.4999999999,1015865.9999999999,1015730632,1015732.6,1015747304,1015881292,,grey,HA25HA07,36,f,5,0,Psychologie,0,0,0,0,0,,AV
Trial,flow.Sequence,2_53_0,2022-07-18T15:15:12.553Z,,,1,AV,1919.3489999999292,completion,,,1015867.9,1015865.9999999999,1013913297,1013925.2000000001,1013946651,1015881292,,grey,HA25HA07,36,f,5,0,Psychologie,0,0,0,0,0,,AV
Frame,canvas.Frame,2_53,2022-07-18T15:15:12.553Z,,,1,AV,1921.3489999999292,,,,1015868.2000000001,1015867.9999999999,1013913297,1013924.4,1013946651,1015881292,,grey,HA25HA07,36,f,5,0,Psychologie,0,0,0,0,0,,AV
Fixation,canvas.Screen,2_54_0_0,2022-07-18T15:15:14.652Z,,,1,AV,2101.7110000000102,timeout,,,1017967.4999999999,1017966323,1015864615,1015869.4,1015881292,1017983003,,grey,HA25HA07,36,f,5,0,Psychologie,0,0,0,0,0,,AV
Stimulus,canvas.Screen,2_54_0_1,2022-07-18T15:15:14.752Z,,,1,AV,99.79999999993015,timeout,,,1018067.4999999999,1018066125,1017966323,1017967.7000000001,1017983003,1018082803,,grey,HA25HA07,36,f,5,0,Psychologie,0,0,0,0,0,,AV
Reaction,canvas.Screen,2_54_0_2,2022-07-18T15:15:14.905Z,,,1,AV,136.2970000000205,response,stim_detected,mousedown,1018220.6,1018219.1,1018066125,1018067.7000000001,1018082803,1018232.85,,grey,HA25HA07,36,f,5,0,Psychologie,0,0,0,0,0,,AV
Trial,flow.Sequence,2_54_0,2022-07-18T15:15:14.906Z,,,1,AV,2337.807999999961,completion,,,1018221.1,1018219.1,1015864615,1015869.2999999999,1015881292,1018232.85,,grey,HA25HA07,36,f,5,0,Psychologie,0,0,0,0,0,,AV
Frame,canvas.Frame,2_54,2022-07-18T15:15:14.906Z,,,1,AV,2339.908000000054,,,,1018221.2999999999,1018221.2000000001,1015864615,1015868.4,1015881292,1018232.85,,grey,HA25HA07,36,f,5,0,Psychologie,0,0,0,0,0,,AV
Fixation,canvas.Screen,2_55_0_0,2022-07-18T15:15:17.289Z,,,1,A,2386.01800000004,timeout,,,1020603.7999999999,1020602183,1018216173,1018222.9,1018232.85,1020618868,,black,HA25HA07,36,f,5,0,Psychologie,0,0,0,0,0,,AV
Stimulus,canvas.Screen,2_55_0_1,2022-07-18T15:15:17.388Z,,,1,A,98.75899999996182,timeout,,,1020702.7000000001,1020700951,1020602183,1020603.9999999999,1020618868,1020717627,,black,HA25HA07,36,f,5,0,Psychologie,0,0,0,0,0,,AV
Reaction,canvas.Screen,2_55_0_2,2022-07-18T15:15:17.553Z,,,1,A,149.372999999905,response,stim_detected,mousedown,1020868.4,1020866.9999999999,1020700951,1020702.9999999999,1020717627,1020884593,,black,HA25HA07,36,f,5,0,Psychologie,0,0,0,0,0,,AV
Trial,flow.Sequence,2_55_0,2022-07-18T15:15:17.554Z,,,1,A,2634.149999999907,completion,,,1020868.7999999999,1020866.9999999999,1018216173,1018222.7999999999,1018232.85,1020884593,,black,HA25HA07,36,f,5,0,Psychologie,0,0,0,0,0,,AV
Frame,canvas.Frame,2_55,2022-07-18T15:15:17.554Z,,,1,A,2636.0500000000466,,,,1020869.2000000001,1020868.9,1018216173,1018221.4999999999,1018232.85,1020884593,,black,HA25HA07,36,f,5,0,Psychologie,0,0,0,0,0,,AV
Fixation,canvas.Screen,2_56_0_0,2022-07-18T15:15:19.640Z,,,0,V,2085.927000000025,timeout,,,1022954.7000000001,1022953833,1020867916,1020870.4,1020884593,1022970.52,,grey,HA25HA07,36,f,5,0,Psychologie,0,0,0,0,0,,A
Stimulus,canvas.Screen,2_56_0_1,2022-07-18T15:15:19.739Z,,,0,V,98.9199999999255,timeout,,,1023053.7999999999,1023052763,1022953833,1022954.9,1022970.52,1023069.44,,grey,HA25HA07,36,f,5,0,Psychologie,0,0,0,0,0,,A
Reaction,canvas.Screen,2_56_0_2,2022-07-18T15:15:19.914Z,,,0,V,158.55999999993946,response,stim_detected,mousedown,1023229.6,1023227.9999999999,1023052763,1023053.9999999999,1023069.44,1023236185,,grey,HA25HA07,36,f,5,0,Psychologie,0,0,0,0,0,,A
Trial,flow.Sequence,2_56_0,2022-07-18T15:15:19.915Z,,,0,V,2343.40699999989,completion,,,1023229.9,1023227.9999999999,1020867916,1020870.2999999999,1020884593,1023236185,,grey,HA25HA07,36,f,5,0,Psychologie,0,0,0,0,0,,A
Frame,canvas.Frame,2_56,2022-07-18T15:15:19.915Z,,,0,V,2345.40699999989,,,,1023230.1,1023229.9999999999,1020867916,1020869.4,1020884593,1023236185,,grey,HA25HA07,36,f,5,0,Psychologie,0,0,0,0,0,,A
Fixation,canvas.Screen,2_57_0_0,2022-07-18T15:15:22.308Z,,,1,AV,2401.808999999892,timeout,,,1025623.1,1025621315,1023219508,1023231.2999999999,1023236185,1025637994,,grey,HA25HA07,36,f,5,0,Psychologie,0,0,0,0,0,,V
Stimulus,canvas.Screen,2_57_0_1,2022-07-18T15:15:22.408Z,,,1,AV,99.91500000003725,timeout,,,1025722.9,1025721231,1025621315,1025623.4999999999,1025637994,1025737909,,grey,HA25HA07,36,f,5,0,Psychologie,0,0,0,0,0,,V
Reaction,canvas.Screen,2_57_0_2,2022-07-18T15:15:22.554Z,,,1,AV,130.0909999998985,response,stim_detected,mousedown,1025869.4999999999,1025867.9999999999,1025721231,1025722.9999999999,1025737909,1025871275,,grey,HA25HA07,36,f,5,0,Psychologie,0,0,0,0,0,,V
Trial,flow.Sequence,2_57_0,2022-07-18T15:15:22.555Z,,,1,AV,2631.8149999998277,completion,,,1025869.7999999999,1025867.9999999999,1023219508,1023231.2000000001,1023236185,1025871275,,grey,HA25HA07,36,f,5,0,Psychologie,0,0,0,0,0,,V
Frame,canvas.Frame,2_57,2022-07-18T15:15:22.555Z,,,1,AV,2633.7149999999674,,,,1025870.1,1025869.9,1023219508,1023230.4,1023236185,1025871275,,grey,HA25HA07,36,f,5,0,Psychologie,0,0,0,0,0,,V
Fixation,canvas.Screen,2_58_0_0,2022-07-18T15:15:24.092Z,,,1,A,1551.2639999999665,timeout,,,1027406.9,1027405859,1025854598,1025871.4,1025871275,1027422539,,black,HA25HA07,36,f,5,0,Psychologie,0,0,0,0,0,,AV
Stimulus,canvas.Screen,2_58_0_1,2022-07-18T15:15:24.192Z,,,1,A,99.63800000003539,timeout,,,1027506.9,1027505502,1027405859,1027407.2000000001,1027422539,1027522177,,black,HA25HA07,36,f,5,0,Psychologie,0,0,0,0,0,,AV
Reaction,canvas.Screen,2_58_0_2,2022-07-18T15:15:24.372Z,,,1,A,162.72299999999814,response,stim_detected,mousedown,1027687.2000000001,1027684.9,1027505502,1027507.1,1027522177,1027689.11,,black,HA25HA07,36,f,5,0,Psychologie,0,0,0,0,0,,AV
Trial,flow.Sequence,2_58_0,2022-07-18T15:15:24.372Z,,,1,A,1813625,completion,,,1027687.4999999999,1027684.9,1025854598,1025871.2000000001,1025871275,1027689.11,,black,HA25HA07,36,f,5,0,Psychologie,0,0,0,0,0,,AV
Frame,canvas.Frame,2_58,2022-07-18T15:15:24.373Z,,,1,A,1816.4250000000466,,,,1027687.9,1027687.7000000001,1025854598,1025870.2999999999,1025871275,1027689.11,,black,HA25HA07,36,f,5,0,Psychologie,0,0,0,0,0,,AV
Fixation,canvas.Screen,2_59_0_0,2022-07-18T15:15:26.028Z,,,0,V,1669.1169999999693,timeout,,,1029342.9999999999,1029341536,1027672433,1027688.9999999999,1027689.11,1029358227,,grey,HA25HA07,36,f,5,0,Psychologie,0,0,0,0,0,,A
Stimulus,canvas.Screen,2_59_0_1,2022-07-18T15:15:26.126Z,,,0,V,98.61000000010245,timeout,,,1029441.1,1029440161,1029341536,1029343.2999999999,1029358227,1029456837,,grey,HA25HA07,36,f,5,0,Psychologie,0,0,0,0,0,,A
Reaction,canvas.Screen,2_59_0_2,2022-07-18T15:15:26.410Z,,,0,V,267.06299999996554,response,stim_detected,mousedown,1029725.2999999999,1029723.9,1029440161,1029441.2000000001,1029456837,1029740506,,grey,HA25HA07,36,f,5,0,Psychologie,0,0,0,0,0,,A
Trial,flow.Sequence,2_59_0,2022-07-18T15:15:26.411Z,,,0,V,2034.7900000000373,completion,,,1029725.7000000001,1029723.9,1027672433,1027688.9,1027689.11,1029740506,,grey,HA25HA07,36,f,5,0,Psychologie,0,0,0,0,0,,A
Frame,canvas.Frame,2_59,2022-07-18T15:15:26.411Z,,,0,V,2036.7900000000373,,,,1029725.9999999999,1029725.9,1027672433,1027687.9999999999,1027689.11,1029740506,,grey,HA25HA07,36,f,5,0,Psychologie,0,0,0,0,0,,A
Fixation,canvas.Screen,2_60_0_0,2022-07-18T15:15:28.746Z,,,1,A,2334.789999999921,timeout,,,1032060.1,1032058619,1029723829,1029727.1,1029740506,1032075296,,black,HA25HA07,36,f,5,0,Psychologie,0,0,0,0,0,,V
Stimulus,canvas.Screen,2_60_0_1,2022-07-18T15:15:28.846Z,,,1,A,99.77899999998044,timeout,,,1032160.1,1032158.4,1032058619,1032060.2999999999,1032075296,1032175075,,black,HA25HA07,36,f,5,0,Psychologie,0,0,0,0,0,,V
Reaction,canvas.Screen,2_60_0_2,2022-07-18T15:15:28.995Z,,,1,A,132.72499999997672,response,stim_detected,mousedown,1032309.4999999999,1032307.7999999999,1032158.4,1032160.2999999999,1032175075,1032325558,,black,HA25HA07,36,f,5,0,Psychologie,0,0,0,0,0,,V
Trial,flow.Sequence,2_60_0,2022-07-18T15:15:28.996Z,,,1,A,2567.293999999878,completion,,,1032309.9,1032307.7999999999,1029723829,1029726.9999999999,1029740506,1032325558,,black,HA25HA07,36,f,5,0,Psychologie,0,0,0,0,0,,V
Frame,canvas.Frame,2_60,2022-07-18T15:15:28.996Z,,,1,A,2569.5939999999246,,,,1032310.2999999999,1032310.1,1029723829,1029726.2000000001,1029740506,1032325558,,black,HA25HA07,36,f,5,0,Psychologie,0,0,0,0,0,,V
Fixation,canvas.Screen,2_61_0_0,2022-07-18T15:15:31.147Z,,,0,V,2150.7690000000875,timeout,,,1034461.2000000001,1034459654,1032308881,1032311.4,1032325558,1034476327,,grey,HA25HA07,36,f,5,0,Psychologie,0,0,0,0,0,,A
Stimulus,canvas.Screen,2_61_0_1,2022-07-18T15:15:31.248Z,,,0,V,100.78899999998976,timeout,,,1034562.2999999999,1034560437,1034459654,1034461.4999999999,1034476327,1034577116,,grey,HA25HA07,36,f,5,0,Psychologie,0,0,0,0,0,,A
Reaction,canvas.Screen,2_61_0_2,2022-07-18T15:15:31.434Z,,,0,V,169.68399999989197,response,stim_detected,mousedown,1034748.2999999999,1034746.7999999999,1034560437,1034562.6,1034577116,1034760503,,grey,HA25HA07,36,f,5,0,Psychologie,0,0,0,0,0,,A
Trial,flow.Sequence,2_61_0,2022-07-18T15:15:31.434Z,,,0,V,2421.2419999999693,completion,,,1034748.7000000001,1034746.7999999999,1032308881,1032311.4,1032325558,1034760503,,grey,HA25HA07,36,f,5,0,Psychologie,0,0,0,0,0,,A
Frame,canvas.Frame,2_61,2022-07-18T15:15:31.435Z,,,0,V,2423.2419999999693,,,,1034748.9999999999,1034748.7999999999,1032308881,1032310.4999999999,1032325558,1034760503,,grey,HA25HA07,36,f,5,0,Psychologie,0,0,0,0,0,,A
Fixation,canvas.Screen,2_62_0_0,2022-07-18T15:15:33.233Z,,,0,V,1801.7069999999367,timeout,,,1036547.2999999999,1036545528,1034743826,1034750.1,1034760503,1036562.21,,grey,HA25HA07,36,f,5,0,Psychologie,0,0,0,0,0,,V
Stimulus,canvas.Screen,2_62_0_1,2022-07-18T15:15:33.332Z,,,0,V,99.44000000006054,timeout,,,1036646.2999999999,1036644974,1036545528,1036547.6,1036562.21,1036661.65,,grey,HA25HA07,36,f,5,0,Psychologie,0,0,0,0,0,,V
Reaction,canvas.Screen,2_62_0_2,2022-07-18T15:15:33.493Z,,,0,V,144.14999999990687,response,stim_detected,mousedown,1036807.2000000001,1036805.7999999999,1036644974,1036646.4999999999,1036661.65,1036828536,,grey,HA25HA07,36,f,5,0,Psychologie,0,0,0,0,0,,V
Trial,flow.Sequence,2_62_0,2022-07-18T15:15:33.493Z,,,0,V,2045.296999999904,completion,,,1036807.6,1036805.7999999999,1034743826,1034749.9999999999,1034760503,1036828536,,grey,HA25HA07,36,f,5,0,Psychologie,0,0,0,0,0,,V
Frame,canvas.Frame,2_62,2022-07-18T15:15:33.494Z,,,0,V,2047.1970000000438,,,,1036807.9,1036807.7000000001,1034743826,1034749.2000000001,1034760503,1036828536,,grey,HA25HA07,36,f,5,0,Psychologie,0,0,0,0,0,,V
Fixation,canvas.Screen,2_63_0_0,2022-07-18T15:15:35.801Z,,,1,AV,2302.41100000008,timeout,,,1039115.4,1039114263,1036795182,1036834.9,1036828536,1039130947,,grey,HA25HA07,36,f,5,0,Psychologie,0,0,0,0,0,,V
Stimulus,canvas.Screen,2_63_0_1,2022-07-18T15:15:35.900Z,,,1,AV,98.5219999999972,timeout,,,1039214.4,1039212796,1039114263,1039115.7999999999,1039130947,1039229469,,grey,HA25HA07,36,f,5,0,Psychologie,0,0,0,0,0,,V
Reaction,canvas.Screen,2_63_0_2,2022-07-18T15:15:36.048Z,,,1,AV,131.13099999993574,response,stim_detected,mousedown,1039362.1,1039360.6,1039212796,1039214.7000000001,1039229469,1039380226,,grey,HA25HA07,36,f,5,0,Psychologie,0,0,0,0,0,,V
Trial,flow.Sequence,2_63_0,2022-07-18T15:15:36.048Z,,,1,AV,2532.064000000013,completion,,,1039362.4999999999,1039360.6,1036795182,1036834.7999999999,1036828536,1039380226,,grey,HA25HA07,36,f,5,0,Psychologie,0,0,0,0,0,,V
Frame,canvas.Frame,2_63,2022-07-18T15:15:36.049Z,,,1,AV,2534.3640000000596,,,,1039363.1,1039362.9,1036795182,1036808.1,1036828536,1039380226,,grey,HA25HA07,36,f,5,0,Psychologie,0,0,0,0,0,,V
Fixation,canvas.Screen,2_64_0_0,2022-07-18T15:15:38.285Z,,,1,A,2234.728000000003,timeout,,,1041599.4,1041598277,1039363549,1039364.4,1039380226,1041614954,,black,HA25HA07,36,f,5,0,Psychologie,0,0,0,0,0,,AV
Stimulus,canvas.Screen,2_64_0_1,2022-07-18T15:15:38.385Z,,,1,A,100.26199999998789,timeout,,,1041699.7000000001,1041698537,1041598277,1041599.7000000001,1041614954,1041715216,,black,HA25HA07,36,f,5,0,Psychologie,0,0,0,0,0,,AV
Reaction,canvas.Screen,2_64_0_2,2022-07-18T15:15:38.521Z,,,1,A,118.28399999986868,response,stim_detected,mousedown,1041834.9999999999,1041833.4999999999,1041698537,1041699.9,1041715216,1041848555,,black,HA25HA07,36,f,5,0,Psychologie,0,0,0,0,0,,AV
Trial,flow.Sequence,2_64_0,2022-07-18T15:15:38.521Z,,,1,A,2453.2739999998594,completion,,,1041835.2999999999,1041833.4999999999,1039363549,1039364.2000000001,1039380226,1041848555,,black,HA25HA07,36,f,5,0,Psychologie,0,0,0,0,0,,AV
Frame,canvas.Frame,2_64,2022-07-18T15:15:38.521Z,,,1,A,2455.2739999998594,,,,1041835.7000000001,1041835.4999999999,1039363549,1039363.2999999999,1039380226,1041848555,,black,HA25HA07,36,f,5,0,Psychologie,0,0,0,0,0,,AV
Fixation,canvas.Screen,2_65_0_0,2022-07-18T15:15:40.854Z,,,1,A,2334.4809999999125,timeout,,,1044167.9,1044166361,1041831878,1041836.7999999999,1041848555,1044183036,,black,HA25HA07,36,f,5,0,Psychologie,0,0,0,0,0,,A
Stimulus,canvas.Screen,2_65_0_1,2022-07-18T15:15:40.954Z,,,1,A,100.51000000000931,timeout,,,1044268.7000000001,1044266868,1044166361,1044168.2000000001,1044183036,1044283546,,black,HA25HA07,36,f,5,0,Psychologie,0,0,0,0,0,,A
Reaction,canvas.Screen,2_65_0_2,2022-07-18T15:15:41.102Z,,,1,A,131.05400000000373,response,stim_detected,mousedown,1044416.1,1044414.6,1044266868,1044268.9999999999,1044283546,1044433608,,black,HA25HA07,36,f,5,0,Psychologie,0,0,0,0,0,,A
Trial,flow.Sequence,2_65_0,2022-07-18T15:15:41.102Z,,,1,A,2566.0449999999255,completion,,,1044416.4999999999,1044414.6,1041831878,1041836.7000000001,1041848555,1044433608,,black,HA25HA07,36,f,5,0,Psychologie,0,0,0,0,0,,A
Frame,canvas.Frame,2_65,2022-07-18T15:15:41.103Z,,,1,A,2568.0449999999255,,,,1044416.7999999999,1044416.6,1041831878,1041835.7999999999,1041848555,1044433608,,black,HA25HA07,36,f,5,0,Psychologie,0,0,0,0,0,,A
Fixation,canvas.Screen,2_66_0_0,2022-07-18T15:15:42.805Z,,,0,V,1701.1779999999562,timeout,,,1046119.6,1046118108,1044416931,1044418.1,1044433608,1046134786,,grey,HA25HA07,36,f,5,0,Psychologie,0,0,0,0,0,,A
Stimulus,canvas.Screen,2_66_0_1,2022-07-18T15:15:42.906Z,,,0,V,99.94599999999627,timeout,,,1046219.9999999999,1046218055,1046118108,1046119.9,1046134786,1046234732,,grey,HA25HA07,36,f,5,0,Psychologie,0,0,0,0,0,,A
Reaction,canvas.Screen,2_66_0_2,2022-07-18T15:15:43.288Z,,,0,V,207.86800000001676,response,stim_detected,mousedown,1046601.9999999999,1046442.6,1046218055,1046220.1,1046234732,1046618381,,grey,HA25HA07,36,f,5,0,Psychologie,0,0,0,0,0,,A
Trial,flow.Sequence,2_66_0,2022-07-18T15:15:43.288Z,,,0,V,2008.9919999999693,completion,,,1046602.6,1046442.6,1044416931,1044417.9999999999,1044433608,1046618381,,grey,HA25HA07,36,f,5,0,Psychologie,0,0,0,0,0,,A
Frame,canvas.Frame,2_66,2022-07-18T15:15:43.289Z,,,0,V,2169.0920000000624,,,,1046602.9,1046602.7000000001,1044416931,1044417.1,1044433608,1046618381,,grey,HA25HA07,36,f,5,0,Psychologie,0,0,0,0,0,,A
Fixation,canvas.Screen,2_67_0_0,2022-07-18T15:15:45.108Z,,,1,AV,1818.4719999999506,timeout,,,1048421.7999999999,1048420171,1046601704,1046604.2999999999,1046618381,1048436853,,grey,HA25HA07,36,f,5,0,Psychologie,0,0,0,0,0,,V
Stimulus,canvas.Screen,2_67_0_1,2022-07-18T15:15:45.207Z,,,1,AV,99.3519999999553,timeout,,,1048520.7999999999,1048519529,1048420171,1048421.9999999999,1048436853,1048536205,,grey,HA25HA07,36,f,5,0,Psychologie,0,0,0,0,0,,V
Reaction,canvas.Screen,2_67_0_2,2022-07-18T15:15:45.364Z,,,1,AV,140.39500000013504,response,stim_detected,mousedown,1048678,1048676.6,1048519529,1048520.9999999999,1048536205,1048686426,,grey,HA25HA07,36,f,5,0,Psychologie,0,0,0,0,0,,V
Trial,flow.Sequence,2_67_0,2022-07-18T15:15:45.364Z,,,1,AV,2058.219000000041,completion,,,1048678.4000000001,1048676.6,1046601704,1046604.2000000001,1046618381,1048686426,,grey,HA25HA07,36,f,5,0,Psychologie,0,0,0,0,0,,V
Frame,canvas.Frame,2_67,2022-07-18T15:15:45.364Z,,,1,AV,2060.118999999948,,,,1048678.7000000002,1048678.5,1046601704,1046603.2000000001,1046618381,1048686426,,grey,HA25HA07,36,f,5,0,Psychologie,0,0,0,0,0,,V
Fixation,canvas.Screen,2_68_0_0,2022-07-18T15:15:46.924Z,,,1,AV,1567.216000000015,timeout,,,1050237.8,1050236969,1048669749,1048679.8,1048686426,1050253642,,grey,HA25HA07,36,f,5,0,Psychologie,0,0,0,0,0,,AV
Stimulus,canvas.Screen,2_68_0_1,2022-07-18T15:15:47.025Z,,,1,AV,100.57199999992736,timeout,,,1050338.9000000001,1050337535,1050236969,1050238.1,1050253642,1050354214,,grey,HA25HA07,36,f,5,0,Psychologie,0,0,0,0,0,,AV
Reaction,canvas.Screen,2_68_0_2,2022-07-18T15:15:47.189Z,,,1,AV,147.38600000017323,response,stim_detected,mousedown,1050503.1,1050501.6,1050337535,1050339.1,1050354214,1050520944,,grey,HA25HA07,36,f,5,0,Psychologie,0,0,0,0,0,,AV
Trial,flow.Sequence,2_68_0,2022-07-18T15:15:47.189Z,,,1,AV,1815.1740000001155,completion,,,1050503.5,1050501.6,1048669749,1048679.7000000002,1048686426,1050520944,,grey,HA25HA07,36,f,5,0,Psychologie,0,0,0,0,0,,AV
Frame,canvas.Frame,2_68,2022-07-18T15:15:47.190Z,,,1,AV,1817.2740000002086,,,,1050503.8,1050503.7000000002,1048669749,1048678.8,1048686426,1050520944,,grey,HA25HA07,36,f,5,0,Psychologie,0,0,0,0,0,,AV
Fixation,canvas.Screen,2_69_0_0,2022-07-18T15:15:49.161Z,,,1,A,1969.2640000001993,timeout,,,1052474.9000000001,1052473.52,1050504267,1050505.1,1050520944,1052490208,,black,HA25HA07,36,f,5,0,Psychologie,0,0,0,0,0,,AV
Stimulus,canvas.Screen,2_69_0_1,2022-07-18T15:15:49.260Z,,,1,A,98.73499999986961,timeout,,,1052574,1052572266,1052473.52,1052475.2000000002,1052490208,1052588943,,black,HA25HA07,36,f,5,0,Psychologie,0,0,0,0,0,,AV
Reaction,canvas.Screen,2_69_0_2,2022-07-18T15:15:49.424Z,,,1,A,147.5570000000298,response,stim_detected,mousedown,1052738,1052736.5,1052572266,1052574.5,1052588943,1052755794,,black,HA25HA07,36,f,5,0,Psychologie,0,0,0,0,0,,AV
Trial,flow.Sequence,2_69_0,2022-07-18T15:15:49.424Z,,,1,A,2215.5560000000987,completion,,,1052738.4000000001,1052736.5,1050504267,1050505,1050520944,1052755794,,black,HA25HA07,36,f,5,0,Psychologie,0,0,0,0,0,,AV
Frame,canvas.Frame,2_69,2022-07-18T15:15:49.424Z,,,1,A,2217.656000000192,,,,1052738.8,1052738.6,1050504267,1050504,1050520944,1052755794,,black,HA25HA07,36,f,5,0,Psychologie,0,0,0,0,0,,AV
Fixation,canvas.Screen,2_70_0_0,2022-07-18T15:15:51.812Z,,,1,A,2385.3629999998957,timeout,,,1055126.3,1055124476,1052739117,1052740,1052755794,1055141157,,black,HA25HA07,36,f,5,0,Psychologie,0,0,0,0,0,,A
Stimulus,canvas.Screen,2_70_0_1,2022-07-18T15:15:51.911Z,,,1,A,98.92200000002049,timeout,,,1055224.7000000002,1055223406,1055124476,1055126.6,1055141157,1055240079,,black,HA25HA07,36,f,5,0,Psychologie,0,0,0,0,0,,A
Reaction,canvas.Screen,2_70_0_2,2022-07-18T15:15:52.063Z,,,1,A,135.3210000002291,response,stim_detected,mousedown,1055376.9000000001,1055375.4000000001,1055223406,1055224.9000000001,1055240079,1055390871,,black,HA25HA07,36,f,5,0,Psychologie,0,0,0,0,0,,A
Trial,flow.Sequence,2_70_0,2022-07-18T15:15:52.063Z,,,1,A,2619.6060000001453,completion,,,1055377.3,1055375.4000000001,1052739117,1052739.9000000001,1052755794,1055390871,,black,HA25HA07,36,f,5,0,Psychologie,0,0,0,0,0,,A
Frame,canvas.Frame,2_70,2022-07-18T15:15:52.063Z,,,1,A,2621.6060000001453,,,,1055377.6,1055377.4000000001,1052739117,1052738.9000000001,1052755794,1055390871,,black,HA25HA07,36,f,5,0,Psychologie,0,0,0,0,0,,A
Fixation,canvas.Screen,2_71_0_0,2022-07-18T15:15:53.612Z,,,1,A,1550.8629999998957,timeout,,,1056926.1,1056925058,1055374194,1055378.8,1055390871,1056941734,,black,HA25HA07,36,f,5,0,Psychologie,0,0,0,0,0,,A
Stimulus,canvas.Screen,2_71_0_1,2022-07-18T15:15:53.712Z,,,1,A,99.97600000002421,timeout,,,1057026.5,1057025035,1056925058,1056926.4000000001,1056941734,1057041.71,,black,HA25HA07,36,f,5,0,Psychologie,0,0,0,0,0,,A
Reaction,canvas.Screen,2_71_0_2,2022-07-18T15:15:53.931Z,,,1,A,201.79000000003725,response,stim_detected,mousedown,1057245,1057243.5,1057025035,1057026.7000000002,1057041.71,1057258768,,black,HA25HA07,36,f,5,0,Psychologie,0,0,0,0,0,,A
Trial,flow.Sequence,2_71_0,2022-07-18T15:15:53.931Z,,,1,A,1852.6289999999572,completion,,,1057245.3,1057243.5,1055374194,1055378.7000000002,1055390871,1057258768,,black,HA25HA07,36,f,5,0,Psychologie,0,0,0,0,0,,A
Frame,canvas.Frame,2_71,2022-07-18T15:15:53.931Z,,,1,A,1854.6289999999572,,,,1057245.6,1057245.5,1055374194,1055377.7000000002,1055390871,1057258768,,black,HA25HA07,36,f,5,0,Psychologie,0,0,0,0,0,,A
Fixation,canvas.Screen,2_72_0_0,2022-07-18T15:15:56.014Z,,,1,A,2084.631000000052,timeout,,,1059328.3,1059326722,1057242091,1057246.7000000002,1057258768,1059343399,,black,HA25HA07,36,f,5,0,Psychologie,0,0,0,0,0,,A
Stimulus,canvas.Screen,2_72_0_1,2022-07-18T15:15:56.114Z,,,1,A,100.25600000005215,timeout,,,1059428.3,1059426976,1059326722,1059328.5,1059343399,1059443655,,black,HA25HA07,36,f,5,0,Psychologie,0,0,0,0,0,,A
Reaction,canvas.Screen,2_72_0_2,2022-07-18T15:15:56.303Z,,,1,A,171.74500000011176,response,stim_detected,mousedown,1059616.9000000001,1059615.4000000001,1059426976,1059428.6,1059443655,1059626.99,,black,HA25HA07,36,f,5,0,Psychologie,0,0,0,0,0,,A
Trial,flow.Sequence,2_72_0,2022-07-18T15:15:56.303Z,,,1,A,2356.632000000216,completion,,,1059617.3,1059615.4000000001,1057242091,1057246.6,1057258768,1059626.99,,black,HA25HA07,36,f,5,0,Psychologie,0,0,0,0,0,,A
Frame,canvas.Frame,2_72,2022-07-18T15:15:56.303Z,,,1,A,2358.632000000216,,,,1059617.6,1059617.4000000001,1057242091,1057245.8,1057258768,1059626.99,,black,HA25HA07,36,f,5,0,Psychologie,0,0,0,0,0,,A
Fixation,canvas.Screen,2_73_0_0,2022-07-18T15:15:58.333Z,,,0,V,2036.0169999999925,timeout,,,1061647.3,1061646319,1059610313,1059618.7000000002,1059626.99,1061663007,,grey,HA25HA07,36,f,5,0,Psychologie,0,0,0,0,0,,A
Stimulus,canvas.Screen,2_73_0_1,2022-07-18T15:15:58.432Z,,,0,V,98.63000000012107,timeout,,,1061746.4000000001,1061744961,1061646319,1061647.6,1061663007,1061761637,,grey,HA25HA07,36,f,5,0,Psychologie,0,0,0,0,0,,A
Reaction,canvas.Screen,2_73_0_2,2022-07-18T15:15:58.678Z,,,0,V,228.8629999998957,response,stim_detected,mousedown,1061991.9000000001,1061990.5,1061744961,1061746.6,1061761637,1061995268,,grey,HA25HA07,36,f,5,0,Psychologie,0,0,0,0,0,,A
Trial,flow.Sequence,2_73_0,2022-07-18T15:15:58.678Z,,,0,V,2363.5100000000093,completion,,,1061992.2000000002,1061990.5,1059610313,1059618.6,1059626.99,1061995268,,grey,HA25HA07,36,f,5,0,Psychologie,0,0,0,0,0,,A
Frame,canvas.Frame,2_73,2022-07-18T15:15:58.678Z,,,0,V,2365.410000000149,,,,1061992.6,1061992.4000000001,1059610313,1059617.7000000002,1059626.99,1061995268,,grey,HA25HA07,36,f,5,0,Psychologie,0,0,0,0,0,,A
Fixation,canvas.Screen,2_74_0_0,2022-07-18T15:16:01.151Z,,,0,V,2485.653000000166,timeout,,,1064465.5,1064464239,1061978591,1061993.7000000002,1061995268,1064480921,,grey,HA25HA07,36,f,5,0,Psychologie,0,0,0,0,0,,V
Stimulus,canvas.Screen,2_74_0_1,2022-07-18T15:16:01.250Z,,,0,V,98.46999999997206,timeout,,,1064564.6,1064562.73,1064464239,1064465.7000000002,1064480921,1064579391,,grey,HA25HA07,36,f,5,0,Psychologie,0,0,0,0,0,,V
Reaction,canvas.Screen,2_74_0_2,2022-07-18T15:16:01.448Z,,,0,V,181.10899999993853,response,stim_detected,mousedown,1064762,1064760.5,1064562.73,1064564.8,1064579391,1064763779,,grey,HA25HA07,36,f,5,0,Psychologie,0,0,0,0,0,,V
Trial,flow.Sequence,2_74_0,2022-07-18T15:16:01.448Z,,,0,V,2765.2320000000764,completion,,,1064762.4000000001,1064760.5,1061978591,1061993.6,1061995268,1064763779,,grey,HA25HA07,36,f,5,0,Psychologie,0,0,0,0,0,,V
Frame,canvas.Frame,2_74,2022-07-18T15:16:01.448Z,,,0,V,2767.2320000000764,,,,1064762.7000000002,1064762.5,1061978591,1061992.8,1061995268,1064763779,,grey,HA25HA07,36,f,5,0,Psychologie,0,0,0,0,0,,V
Fixation,canvas.Screen,2_75_0_0,2022-07-18T15:16:03.251Z,,,1,AV,1817.0540000000037,timeout,,,1066565.6,1066564162,1064747102,1064764,1064763779,1066580833,,grey,HA25HA07,36,f,5,0,Psychologie,0,0,0,0,0,,V
Stimulus,canvas.Screen,2_75_0_1,2022-07-18T15:16:03.351Z,,,1,AV,100.56400000001304,timeout,,,1066665.7000000002,1066664722,1066564162,1066565.9000000001,1066580833,1066681397,,grey,HA25HA07,36,f,5,0,Psychologie,0,0,0,0,0,,V
Reaction,canvas.Screen,2_75_0_2,2022-07-18T15:16:03.503Z,,,1,AV,134.00300000002608,response,stim_detected,mousedown,1066816.9000000001,1066815.4000000001,1066664722,1066665.9000000001,1066681397,1066831812,,grey,HA25HA07,36,f,5,0,Psychologie,0,0,0,0,0,,V
Trial,flow.Sequence,2_75_0,2022-07-18T15:16:03.503Z,,,1,AV,2051.621000000043,completion,,,1066817.3,1066815.4000000001,1064747102,1064763.8,1064763779,1066831812,,grey,HA25HA07,36,f,5,0,Psychologie,0,0,0,0,0,,V
Frame,canvas.Frame,2_75,2022-07-18T15:16:03.503Z,,,1,AV,2053.621000000043,,,,1066817.5,1066817.4000000001,1064747102,1064763,1064763779,1066831812,,grey,HA25HA07,36,f,5,0,Psychologie,0,0,0,0,0,,V
Fixation,canvas.Screen,2_76_0_0,2022-07-18T15:16:05.020Z,,,0,V,1517.9750000000931,timeout,,,1068334.7000000002,1068333106,1066815135,1066818.6,1066831812,1068349787,,grey,HA25HA07,36,f,5,0,Psychologie,0,0,0,0,0,,AV
Stimulus,canvas.Screen,2_76_0_1,2022-07-18T15:16:05.120Z,,,0,V,99.48500000010245,timeout,,,1068433.7000000002,1068432598,1068333106,1068335,1068349787,1068449272,,grey,HA25HA07,36,f,5,0,Psychologie,0,0,0,0,0,,AV
Reaction,canvas.Screen,2_76_0_2,2022-07-18T15:16:05.307Z,,,0,V,170.02799999993294,response,stim_detected,mousedown,1068620.8,1068619.3,1068432598,1068434,1068449272,1068632958,,grey,HA25HA07,36,f,5,0,Psychologie,0,0,0,0,0,,AV
Trial,flow.Sequence,2_76_0,2022-07-18T15:16:05.307Z,,,0,V,1787.4880000001285,completion,,,1068621.1,1068619.3,1066815135,1066818.6,1066831812,1068632958,,grey,HA25HA07,36,f,5,0,Psychologie,0,0,0,0,0,,AV
Frame,canvas.Frame,2_76,2022-07-18T15:16:05.307Z,,,0,V,1789.3880000002682,,,,1068621.5,1068621.2000000002,1066815135,1066817.7000000002,1066831812,1068632958,,grey,HA25HA07,36,f,5,0,Psychologie,0,0,0,0,0,,AV
Fixation,canvas.Screen,2_77_0_0,2022-07-18T15:16:06.989Z,,,0,V,1685.9859999998007,timeout,,,1070303.7000000002,1070302252,1068616281,1068622.8,1068632958,1070318944,,grey,HA25HA07,36,f,5,0,Psychologie,0,0,0,0,0,,V
Stimulus,canvas.Screen,2_77_0_1,2022-07-18T15:16:07.088Z,,,0,V,98.4660000000149,timeout,,,1070401.8,1070400734,1070302252,1070303.9000000001,1070318944,1070417.41,,grey,HA25HA07,36,f,5,0,Psychologie,0,0,0,0,0,,V
Reaction,canvas.Screen,2_77_0_2,2022-07-18T15:16:07.266Z,,,0,V,160.99000000022352,response,stim_detected,mousedown,1070579.8,1070578.4000000001,1070400734,1070402,1070417.41,1070584319,,grey,HA25HA07,36,f,5,0,Psychologie,0,0,0,0,0,,V
Trial,flow.Sequence,2_77_0,2022-07-18T15:16:07.266Z,,,0,V,1945.4420000000391,completion,,,1070580.2000000002,1070578.4000000001,1068616281,1068622.7000000002,1068632958,1070584319,,grey,HA25HA07,36,f,5,0,Psychologie,0,0,0,0,0,,V
Frame,canvas.Frame,2_77,2022-07-18T15:16:07.266Z,,,0,V,1947.341999999946,,,,1070580.4000000001,1070580.3,1068616281,1068621.6,1068632958,1070584319,,grey,HA25HA07,36,f,5,0,Psychologie,0,0,0,0,0,,V
Fixation,canvas.Screen,2_78_0_0,2022-07-18T15:16:08.839Z,,,1,A,1584.2140000001527,timeout,,,1072152.7000000002,1072151857,1070567642,1070581.6,1070584319,1072168533,,black,HA25HA07,36,f,5,0,Psychologie,0,0,0,0,0,,V
Stimulus,canvas.Screen,2_78_0_1,2022-07-18T15:16:08.940Z,,,1,A,100.23099999991246,timeout,,,1072253.9000000001,1072251971,1072151857,1072153,1072168533,1072268764,,black,HA25HA07,36,f,5,0,Psychologie,0,0,0,0,0,,V
Reaction,canvas.Screen,2_78_0_2,2022-07-18T15:16:09.198Z,,,1,A,241.5360000000801,response,stim_detected,mousedown,1072512.1,1072510.3,1072251971,1072254.1,1072268764,1072518919,,black,HA25HA07,36,f,5,0,Psychologie,0,0,0,0,0,,V
Trial,flow.Sequence,2_78_0,2022-07-18T15:16:09.198Z,,,1,A,1925.9810000001453,completion,,,1072512.5,1072510.3,1070567642,1070581.5,1070584319,1072518919,,black,HA25HA07,36,f,5,0,Psychologie,0,0,0,0,0,,V
Frame,canvas.Frame,2_78,2022-07-18T15:16:09.199Z,,,1,A,1928.2810000001919,,,,1072512.8,1072512.6,1070567642,1070580.6,1070584319,1072518919,,black,HA25HA07,36,f,5,0,Psychologie,0,0,0,0,0,,V
Fixation,canvas.Screen,2_79_0_0,2022-07-18T15:16:10.891Z,,,0,V,1701.280000000028,timeout,,,1074204.9000000001,1074203.52,1072502242,1072513.9000000001,1072518919,1074220199,,grey,HA25HA07,36,f,5,0,Psychologie,0,0,0,0,0,,A
Stimulus,canvas.Screen,2_79_0_1,2022-07-18T15:16:10.991Z,,,0,V,99.97399999992922,timeout,,,1074304.8,1074303494,1074203.52,1074205.2000000002,1074220199,1074320173,,grey,HA25HA07,36,f,5,0,Psychologie,0,0,0,0,0,,A
Reaction,canvas.Screen,2_79_0_2,2022-07-18T15:16:11.182Z,,,0,V,175.127000000095,response,stim_detected,mousedown,1074496.7000000002,1074495.3,1074303494,1074305.2000000002,1074320173,1074503548,,grey,HA25HA07,36,f,5,0,Psychologie,0,0,0,0,0,,A
Trial,flow.Sequence,2_79_0,2022-07-18T15:16:11.183Z,,,0,V,1976.3810000000522,completion,,,1074497.1,1074495.3,1072502242,1072513.8,1072518919,1074503548,,grey,HA25HA07,36,f,5,0,Psychologie,0,0,0,0,0,,A
Frame,canvas.Frame,2_79,2022-07-18T15:16:11.183Z,,,0,V,1978.3810000000522,,,,1074497.5,1074497.3,1072502242,1072513,1072518919,1074503548,,grey,HA25HA07,36,f,5,0,Psychologie,0,0,0,0,0,,A
Fixation,canvas.Screen,2_80_0_0,2022-07-18T15:16:12.709Z,,,1,AV,1535.2680000001565,timeout,,,1076023,1076022129,1074486871,1074499,1074503548,1076038816,,grey,HA25HA07,36,f,5,0,Psychologie,0,0,0,0,0,,V
Stimulus,canvas.Screen,2_80_0_1,2022-07-18T15:16:12.808Z,,,1,AV,99.18599999998696,timeout,,,1076122.2000000002,1076121173,1076022129,1076023.3,1076038816,1076138002,,grey,HA25HA07,36,f,5,0,Psychologie,0,0,0,0,0,,V
Reaction,canvas.Screen,2_80_0_2,2022-07-18T15:16:12.969Z,,,1,AV,143.19800000009127,response,stim_detected,mousedown,1076282.8,1076281.2000000002,1076121173,1076122.5,1076138002,1076288095,,grey,HA25HA07,36,f,5,0,Psychologie,0,0,0,0,0,,V
Trial,flow.Sequence,2_80_0,2022-07-18T15:16:12.969Z,,,1,AV,1777.6520000002347,completion,,,1076283.1,1076281.2000000002,1074486871,1074498.9000000001,1074503548,1076288095,,grey,HA25HA07,36,f,5,0,Psychologie,0,0,0,0,0,,V
Frame,canvas.Frame,2_80,2022-07-18T15:16:12.969Z,,,1,AV,1779.752000000095,,,,1076283.4000000001,1076283.3,1074486871,1074497.7000000002,1074503548,1076288095,,grey,HA25HA07,36,f,5,0,Psychologie,0,0,0,0,0,,V
Fixation,canvas.Screen,2_81_0_0,2022-07-18T15:16:14.827Z,,,1,A,1868.3179999999702,timeout,,,1078141,1078139732,1076271418,1076284.6,1076288095,1078156413,,black,HA25HA07,36,f,5,0,Psychologie,0,0,0,0,0,,AV
Stimulus,canvas.Screen,2_81_0_1,2022-07-18T15:16:14.927Z,,,1,A,99.58700000005774,timeout,,,1078241.1,1078239323,1078139732,1078141.3,1078156413,1078256,,black,HA25HA07,36,f,5,0,Psychologie,0,0,0,0,0,,AV
Reaction,canvas.Screen,2_81_0_2,2022-07-18T15:16:15.091Z,,,1,A,148.30000000004657,response,stim_detected,mousedown,1078405.7000000002,1078404.3,1078239323,1078241.3,1078256,1078422854,,black,HA25HA07,36,f,5,0,Psychologie,0,0,0,0,0,,AV
Trial,flow.Sequence,2_81_0,2022-07-18T15:16:15.092Z,,,1,A,2116.2050000000745,completion,,,1078406.1,1078404.3,1076271418,1076284.5,1076288095,1078422854,,black,HA25HA07,36,f,5,0,Psychologie,0,0,0,0,0,,AV
Frame,canvas.Frame,2_81,2022-07-18T15:16:15.092Z,,,1,A,2118.105000000214,,,,1078406.3,1078406.2000000002,1076271418,1076283.6,1076288095,1078422854,,black,HA25HA07,36,f,5,0,Psychologie,0,0,0,0,0,,AV
Fixation,canvas.Screen,2_82_0_0,2022-07-18T15:16:16.628Z,,,1,AV,1534.28199999989,timeout,,,1079942.4000000001,1079940459,1078406177,1078407.4000000001,1078422854,1079957136,,grey,HA25HA07,36,f,5,0,Psychologie,0,0,0,0,0,,A
Stimulus,canvas.Screen,2_82_0_1,2022-07-18T15:16:16.727Z,,,1,AV,99.60600000014529,timeout,,,1080041.2000000002,1080040.07,1079940459,1079942.7000000002,1079957136,1080056742,,grey,HA25HA07,36,f,5,0,Psychologie,0,0,0,0,0,,A
Reaction,canvas.Screen,2_82_0_2,2022-07-18T15:16:16.895Z,,,1,AV,151.45800000010058,response,stim_detected,mousedown,1080209.6,1080208.2000000002,1080040.07,1080041.4000000001,1080056742,1080224,,grey,HA25HA07,36,f,5,0,Psychologie,0,0,0,0,0,,A
Trial,flow.Sequence,2_82_0,2022-07-18T15:16:16.896Z,,,1,AV,1785.346000000136,completion,,,1080210.1,1080208.2000000002,1078406177,1078407.4000000001,1078422854,1080224,,grey,HA25HA07,36,f,5,0,Psychologie,0,0,0,0,0,,A
Frame,canvas.Frame,2_82,2022-07-18T15:16:16.896Z,,,1,AV,1787.2460000000428,,,,1080210.3,1080210.1,1078406177,1078406.5,1078422854,1080224,,grey,HA25HA07,36,f,5,0,Psychologie,0,0,0,0,0,,A
Fixation,canvas.Screen,2_83_0_0,2022-07-18T15:16:18.630Z,,,1,AV,1735.9439999999013,timeout,,,1081944.2000000002,1081943253,1080207323,1080211.5,1080224,1081959944,,grey,HA25HA07,36,f,5,0,Psychologie,0,0,0,0,0,,AV
Stimulus,canvas.Screen,2_83_0_1,2022-07-18T15:16:18.729Z,,,1,AV,98.58600000012666,timeout,,,1082043.1,1082041853,1081943253,1081944.4000000001,1081959944,1082058.53,,grey,HA25HA07,36,f,5,0,Psychologie,0,0,0,0,0,,AV
Reaction,canvas.Screen,2_83_0_2,2022-07-18T15:16:18.849Z,,,1,AV,103.57000000006519,response,stim_detected,mousedown,1082163.6,1082162.1,1082041853,1082043.4000000001,1082058.53,1082175305,,grey,HA25HA07,36,f,5,0,Psychologie,0,0,0,0,0,,AV
Trial,flow.Sequence,2_83_0,2022-07-18T15:16:18.850Z,,,1,AV,1938.1000000000931,completion,,,1082163.9000000001,1082162.1,1080207323,1080211.4000000001,1080224,1082175305,,grey,HA25HA07,36,f,5,0,Psychologie,0,0,0,0,0,,AV
Frame,canvas.Frame,2_83,2022-07-18T15:16:18.850Z,,,1,AV,1940.1000000000931,,,,1082164.3,1082164.1,1080207323,1080210.6,1080224,1082175305,,grey,HA25HA07,36,f,5,0,Psychologie,0,0,0,0,0,,AV
Fixation,canvas.Screen,2_84_0_0,2022-07-18T15:16:20.448Z,,,1,AV,1602.1770000001416,timeout,,,1083762.5,1083760793,1082158628,1082165.4000000001,1082175305,1083777482,,grey,HA25HA07,36,f,5,0,Psychologie,0,0,0,0,0,,AV
Stimulus,canvas.Screen,2_84_0_1,2022-07-18T15:16:20.547Z,,,1,AV,98.747999999905,timeout,,,1083861.4000000001,1083859555,1083760793,1083762.7000000002,1083777482,1083876.23,,grey,HA25HA07,36,f,5,0,Psychologie,0,0,0,0,0,,AV
Reaction,canvas.Screen,2_84_0_2,2022-07-18T15:16:20.729Z,,,1,AV,165.87000000011176,response,stim_detected,mousedown,1084043.8,1084042.1,1083859555,1083861.6,1083876.23,1084059928,,grey,HA25HA07,36,f,5,0,Psychologie,0,0,0,0,0,,AV
Trial,flow.Sequence,2_84_0,2022-07-18T15:16:20.730Z,,,1,AV,1866.7950000001583,completion,,,1084044.1,1084042.1,1082158628,1082165.3,1082175305,1084059928,,grey,HA25HA07,36,f,5,0,Psychologie,0,0,0,0,0,,AV
Frame,canvas.Frame,2_84,2022-07-18T15:16:20.730Z,,,1,AV,1868.8950000002515,,,,1084044.4000000001,1084044.2000000002,1082158628,1082164.5,1082175305,1084059928,,grey,HA25HA07,36,f,5,0,Psychologie,0,0,0,0,0,,AV
Fixation,canvas.Screen,2_85_0_0,2022-07-18T15:16:22.481Z,,,0,V,1751.189000000013,timeout,,,1085795.4000000001,1085794439,1084043251,1084045.8,1084059928,1085811117,,grey,HA25HA07,36,f,5,0,Psychologie,0,0,0,0,0,,AV
Stimulus,canvas.Screen,2_85_0_1,2022-07-18T15:16:22.581Z,,,0,V,99.65500000002794,timeout,,,1085895.5,1085894098,1085794439,1085795.6,1085811117,1085910772,,grey,HA25HA07,36,f,5,0,Psychologie,0,0,0,0,0,,AV
Reaction,canvas.Screen,2_85_0_2,2022-07-18T15:16:22.814Z,,,0,V,216.3279999999795,response,stim_detected,mousedown,1086128.6,1086127.1,1085894098,1085895.6,1085910772,1086144602,,grey,HA25HA07,36,f,5,0,Psychologie,0,0,0,0,0,,AV
Trial,flow.Sequence,2_85_0,2022-07-18T15:16:22.815Z,,,0,V,2067.1720000000205,completion,,,1086128.9000000001,1086127.1,1084043251,1084045.7000000002,1084059928,1086144602,,grey,HA25HA07,36,f,5,0,Psychologie,0,0,0,0,0,,AV
Frame,canvas.Frame,2_85,2022-07-18T15:16:22.815Z,,,0,V,2069.1720000000205,,,,1086129.2000000002,1086129.1,1084043251,1084044.7000000002,1084059928,1086144602,,grey,HA25HA07,36,f,5,0,Psychologie,0,0,0,0,0,,AV
Fixation,canvas.Screen,2_86_0_0,2022-07-18T15:16:24.750Z,,,1,A,1935.4980000001378,timeout,,,1088064.4000000001,1088063415,1086127925,1086130.4000000001,1086144602,1088080.1,,black,HA25HA07,36,f,5,0,Psychologie,0,0,0,0,0,,V
Stimulus,canvas.Screen,2_86_0_1,2022-07-18T15:16:24.849Z,,,1,A,98.83799999998882,timeout,,,1088163.5,1088162264,1088063415,1088064.7000000002,1088080.1,1088178938,,black,HA25HA07,36,f,5,0,Psychologie,0,0,0,0,0,,V
Reaction,canvas.Screen,2_86_0_2,2022-07-18T15:16:24.987Z,,,1,A,120.96200000005774,response,stim_detected,mousedown,1088301.7000000002,1088299.9000000001,1088162264,1088163.8,1088178938,1088312761,,black,HA25HA07,36,f,5,0,Psychologie,0,0,0,0,0,,V
Trial,flow.Sequence,2_86_0,2022-07-18T15:16:24.988Z,,,1,A,2155.2980000001844,completion,,,1088302.1,1088299.9000000001,1086127925,1086130.2000000002,1086144602,1088312761,,black,HA25HA07,36,f,5,0,Psychologie,0,0,0,0,0,,V
Frame,canvas.Frame,2_86,2022-07-18T15:16:24.988Z,,,1,A,2157.598000000231,,,,1088302.5,1088302.2000000002,1086127925,1086129.4000000001,1086144602,1088312761,,black,HA25HA07,36,f,5,0,Psychologie,0,0,0,0,0,,V
Fixation,canvas.Screen,2_87_0_0,2022-07-18T15:16:26.900Z,,,0,V,1916.9799999999814,timeout,,,1090214.6,1090213071,1088296084,1088303.7000000002,1088312761,1090229741,,grey,HA25HA07,36,f,5,0,Psychologie,0,0,0,0,0,,A
Stimulus,canvas.Screen,2_87_0_1,2022-07-18T15:16:27.001Z,,,0,V,100.80200000014156,timeout,,,1090315.6,1090313867,1090213071,1090214.9000000001,1090229741,1090330543,,grey,HA25HA07,36,f,5,0,Psychologie,0,0,0,0,0,,A
Reaction,canvas.Screen,2_87_0_2,2022-07-18T15:16:27.212Z,,,0,V,194.45699999993667,response,stim_detected,mousedown,1090526.5,1090525,1090313867,1090315.9000000001,1090330543,1090530904,,grey,HA25HA07,36,f,5,0,Psychologie,0,0,0,0,0,,A
Trial,flow.Sequence,2_87_0,2022-07-18T15:16:27.213Z,,,0,V,2212.2390000000596,completion,,,1090526.9000000001,1090525,1088296084,1088303.6,1088312761,1090530904,,grey,HA25HA07,36,f,5,0,Psychologie,0,0,0,0,0,,A
Frame,canvas.Frame,2_87,2022-07-18T15:16:27.213Z,,,0,V,2214.2390000000596,,,,1090527.3,1090527,1088296084,1088302.7000000002,1088312761,1090530904,,grey,HA25HA07,36,f,5,0,Psychologie,0,0,0,0,0,,A
Fixation,canvas.Screen,2_88_0_0,2022-07-18T15:16:29.669Z,,,0,V,2467.3919999999925,timeout,,,1092982.7000000002,1092981624,1090514227,1090528.4000000001,1090530904,1092998296,,grey,HA25HA07,36,f,5,0,Psychologie,0,0,0,0,0,,V
Stimulus,canvas.Screen,2_88_0_1,2022-07-18T15:16:29.770Z,,,0,V,100.6359999999404,timeout,,,1093083.6,1093082257,1092981624,1092982.9000000001,1092998296,1093098932,,grey,HA25HA07,36,f,5,0,Psychologie,0,0,0,0,0,,V
Reaction,canvas.Screen,2_88_0_2,2022-07-18T15:16:29.975Z,,,0,V,188.0679999999702,response,stim_detected,mousedown,1093288.5,1093287,1093082257,1093083.9000000001,1093098932,1093299364,,grey,HA25HA07,36,f,5,0,Psychologie,0,0,0,0,0,,V
Trial,flow.Sequence,2_88_0,2022-07-18T15:16:29.975Z,,,0,V,2756.095999999903,completion,,,1093288.8,1093287,1090514227,1090528.3,1090530904,1093299364,,grey,HA25HA07,36,f,5,0,Psychologie,0,0,0,0,0,,V
Frame,canvas.Frame,2_88,2022-07-18T15:16:29.976Z,,,0,V,2757.996000000043,,,,1093289.1,1093288.9000000001,1090514227,1090527.4000000001,1090530904,1093299364,,grey,HA25HA07,36,f,5,0,Psychologie,0,0,0,0,0,,V
Fixation,canvas.Screen,2_89_0_0,2022-07-18T15:16:31.772Z,,,0,V,1802.0189999998547,timeout,,,1095085.8,1095084698,1093282687,1093290.2000000002,1093299364,1095101383,,grey,HA25HA07,36,f,5,0,Psychologie,0,0,0,0,0,,V
Stimulus,canvas.Screen,2_89_0_1,2022-07-18T15:16:31.871Z,,,0,V,98.87300000013784,timeout,,,1095184.8,1095183582,1095084698,1095086,1095101383,1095200256,,grey,HA25HA07,36,f,5,0,Psychologie,0,0,0,0,0,,V
Reaction,canvas.Screen,2_89_0_2,2022-07-18T15:16:32.076Z,,,0,V,187.74399999994785,response,stim_detected,mousedown,1095389.4000000001,1095388,1095183582,1095185.1,1095200256,1095400789,,grey,HA25HA07,36,f,5,0,Psychologie,0,0,0,0,0,,V
Trial,flow.Sequence,2_89_0,2022-07-18T15:16:32.076Z,,,0,V,2088.6359999999404,completion,,,1095389.8,1095388,1093282687,1093290.1,1093299364,1095400789,,grey,HA25HA07,36,f,5,0,Psychologie,0,0,0,0,0,,V
Frame,canvas.Frame,2_89,2022-07-18T15:16:32.077Z,,,0,V,2090.6359999999404,,,,1095390.2000000002,1095390,1093282687,1093289.3,1093299364,1095400789,,grey,HA25HA07,36,f,5,0,Psychologie,0,0,0,0,0,,V
Fixation,canvas.Screen,2_90_0_0,2022-07-18T15:16:33.823Z,,,1,A,1750.494999999879,timeout,,,1097135.9000000001,1097134612,1095384112,1095391.4000000001,1095400789,1097151284,,black,HA25HA07,36,f,5,0,Psychologie,0,0,0,0,0,,V
Stimulus,canvas.Screen,2_90_0_1,2022-07-18T15:16:33.924Z,,,1,A,100.75799999991432,timeout,,,1097236.9000000001,1097235362,1097134612,1097136.1,1097151284,1097252042,,black,HA25HA07,36,f,5,0,Psychologie,0,0,0,0,0,,V
Reaction,canvas.Screen,2_90_0_2,2022-07-18T15:16:34.082Z,,,1,A,141.95800000010058,response,stim_detected,mousedown,1097395.4000000001,1097394,1097235362,1097237.2000000002,1097252042,1097735648,,black,HA25HA07,36,f,5,0,Psychologie,0,0,0,0,0,,V
Trial,flow.Sequence,2_90_0,2022-07-18T15:16:34.083Z,,,1,A,1993.2109999998938,completion,,,1097395.9000000001,1097394,1095384112,1095391.4000000001,1095400789,1097735648,,black,HA25HA07,36,f,5,0,Psychologie,0,0,0,0,0,,V
Frame,canvas.Frame,2_90,2022-07-18T15:16:34.083Z,,,1,A,1995.1110000000335,,,,1097396.1,1097395.9000000001,1095384112,1095390.4000000001,1095400789,1097735648,,black,HA25HA07,36,f,5,0,Psychologie,0,0,0,0,0,,V
Loop,flow.Loop,2,2022-07-18T15:16:34.083Z,,,,,206710.7400000001,completion,,,1097396.5,1097395.9000000001,890501427,890659.2000000001,890685.16,1097735648,,,HA25HA07,36,f,5,0,Psychologie,0,0,0,0,0,,A
end,html.Page,3,2022-07-18T15:16:40.260Z,,,,,5837.252000000095,form,submission,,,1103573.8,1103572.9000000001,1097402108,1097396.8,1097735648,1103722743,,,HA25HA07,36,f,5,0,Psychologie,0,0,0,0,0,A
root,flow.Sequence,,2022-07-18T15:16:40.344Z,,,,,1096244.8920000002,completion,,,1103657,1103572.9000000001,7294645,7308,7328008,1103722743,,,HA25HA07,36,f,5,0,Psychologie,0,0,0,0,0,,A
