sender,sender_type,sender_id,timestamp,meta,,aud,condition,duration,ended_on,response,response_action,time_commit,time_end,time_render,time_run,time_show,time_switch,url,vis,id,age,sex,edu,occ,ela,pat,ill,prt,pcr,pab,,pre_stim
Instructions,html.Page,0,2022-07-15T15:17:57.390Z,"{""labjs_version"":""20.2.4"",""labjs_build"":{""flavor"":""production"",""commit"":""f5b4a49f956347addd546a832a3327688c2c0fef""},""location"":""file:///C:/Users/Proband%207/Desktop/RTE/index.html"",""userAgent"":""Mozilla/5.0 (Windows NT 6.1; Win64; x64) AppleWebKit/537.36 (KHTML, like Gecko) Chrome/103.0.0.0 Safari/537.36"",""platform"":""Win32"",""language"":""de-DE"",""locale"":""de"",""timeZone"":""Europe/Berlin"",""timezoneOffset"":-120,""screen_width"":1366,""screen_height"":768,""scroll_width"":667,""scroll_height"":588,""window_innerWidth"":667,""window_innerHeight"":636,""devicePixelRatio"":1}",,,,451912.7540000001,form,submission,,,456194.80000000005,456193.20000000007,4247084,4257.300000000047,4280446,456209253,{},,ND07NU02,26,f,4,0,Psychologie,0,0,0,0,0,
Change,Background,canvas.Screen,1,2022-07-15T15:18:00.390Z,,,,,3001.0389999999898,timeout,,,459195,459193615,456175857,456195.5,456209253,459210292,,,ND07NU02,26,f,4,0,Psychologie,0,0,0,0,0,
Fixation,canvas.Screen,2_0_0_0,2022-07-15T15:18:01.958Z,,,1,AV,1567.7099999999627,timeout,,,460762.70000000007,460761325,459193615,459196.5,459210292,460778002,,grey,ND07NU02,26,f,4,0,Psychologie,0,0,0,0,0,,
Stimulus,canvas.Screen,2_0_0_1,2022-07-15T15:18:02.065Z,,,1,AV,108.09799999999814,timeout,,,460870.1,460869431,460761325,460763.1,460778002,460886.1,,grey,ND07NU02,26,f,4,0,Psychologie,0,0,0,0,0,,
Reaction,canvas.Screen,2_0_0_2,2022-07-15T15:18:02.460Z,,,1,AV,376.5,response,stim_detected,mousedown,461264.6,461262.6,460869431,460870.30000000005,460886.1,461278316,,grey,ND07NU02,26,f,4,0,Psychologie,0,0,0,0,0,,0
Trial,flow.Sequence,2_0_0,2022-07-15T15:18:02.460Z,,,1,AV,2052.307999999961,completion,,,461265.1,461262.6,459193615,459196.4,459210292,461278316,,grey,ND07NU02,26,f,4,0,Psychologie,0,0,0,0,0,,
Frame,canvas.Frame,2_0,2022-07-15T15:18:02.461Z,,,1,AV,2055.1080000000075,,,,461265.70000000007,461265.4,459193615,459195.4,459210292,461278316,,grey,ND07NU02,26,f,4,0,Psychologie,0,0,0,0,0,,
Fixation,canvas.Screen,2_1_0_0,2022-07-15T15:18:04.376Z,,,0,V,1917.7339999999967,timeout,,,463180.70000000007,463179374,461261639,461266.80000000005,461278316,463196.05,,grey,ND07NU02,26,f,4,0,Psychologie,0,0,0,0,0,,
Stimulus,canvas.Screen,2_1_0_1,2022-07-15T15:18:04.476Z,,,0,V,100.31400000001304,timeout,,,463280.9,463279685,463179374,463180.9,463196.05,463296364,,grey,ND07NU02,26,f,4,0,Psychologie,0,0,0,0,0,,
Reaction,canvas.Screen,2_1_0_2,2022-07-15T15:18:05.002Z,,,0,V,509.1359999999986,response,stim_detected,mousedown,463807.20000000007,463805.5,463279685,463281.30000000005,463296364,463813341,,grey,ND07NU02,26,f,4,0,Psychologie,0,0,0,0,0,,AV
Trial,flow.Sequence,2_1_0,2022-07-15T15:18:05.003Z,,,0,V,2527.1840000000084,completion,,,463808.1,463805.5,461261639,461266.70000000007,461278316,463813341,,grey,ND07NU02,26,f,4,0,Psychologie,0,0,0,0,0,,AV
Frame,canvas.Frame,2_1,2022-07-15T15:18:05.004Z,,,0,V,2529.984000000055,,,,463808.6,463808.30000000005,461261639,461265.9,461278316,463813341,,grey,ND07NU02,26,f,4,0,Psychologie,0,0,0,0,0,,AV
Fixation,canvas.Screen,2_2_0_0,2022-07-15T15:18:06.995Z,,,1,AV,2001.3729999999632,timeout,,,465799.9,465798036,463796664,463809.9,463813341,465814714,,grey,ND07NU02,26,f,4,0,Psychologie,0,0,0,0,0,,V
Stimulus,canvas.Screen,2_2_0_1,2022-07-15T15:18:07.095Z,,,1,AV,99.84600000001956,timeout,,,465899.5,465897884,465798036,465800.30000000005,465814714,465914.56,,grey,ND07NU02,26,f,4,0,Psychologie,0,0,0,0,0,,V
Reaction,canvas.Screen,2_2_0_2,2022-07-15T15:18:07.262Z,,,1,AV,150.8400000000256,response,stim_detected,mousedown,466067.1,466065.4,465897884,465899.70000000007,465914.56,466081483,,grey,ND07NU02,26,f,4,0,Psychologie,0,0,0,0,0,,V
Trial,flow.Sequence,2_2_0,2022-07-15T15:18:07.263Z,,,1,AV,2252.0590000000084,completion,,,466067.70000000007,466065.4,463796664,463809.80000000005,463813341,466081483,,grey,ND07NU02,26,f,4,0,Psychologie,0,0,0,0,0,,V
Frame,canvas.Frame,2_2,2022-07-15T15:18:07.263Z,,,1,AV,2254.658999999985,,,,466068.20000000007,466068,463796664,463808.9,463813341,466081483,,grey,ND07NU02,26,f,4,0,Psychologie,0,0,0,0,0,,V
Fixation,canvas.Screen,2_3_0_0,2022-07-15T15:18:09.678Z,,,0,V,2416.902000000002,timeout,,,468483,468481716,466064806,466069.70000000007,466081483,468498385,,grey,ND07NU02,26,f,4,0,Psychologie,0,0,0,0,0,,AV
Stimulus,canvas.Screen,2_3_0_1,2022-07-15T15:18:09.780Z,,,0,V,101.49099999997998,timeout,,,468584.80000000005,468583193,468481716,468483.20000000007,468498385,468599876,,grey,ND07NU02,26,f,4,0,Psychologie,0,0,0,0,0,,AV
Reaction,canvas.Screen,2_3_0_2,2022-07-15T15:18:09.934Z,,,0,V,137.524000000034,response,stim_detected,mousedown,468738.9,468737.4,468583193,468585,468599876,468749883,,grey,ND07NU02,26,f,4,0,Psychologie,0,0,0,0,0,,AV
Trial,flow.Sequence,2_3_0,2022-07-15T15:18:09.935Z,,,0,V,2655.917000000016,completion,,,468739.4,468737.4,466064806,466069.5,466081483,468749883,,grey,ND07NU02,26,f,4,0,Psychologie,0,0,0,0,0,,AV
Frame,canvas.Frame,2_3,2022-07-15T15:18:09.935Z,,,0,V,2658.1169999999693,,,,468739.9,468739.6,466064806,466068.5,466081483,468749883,,grey,ND07NU02,26,f,4,0,Psychologie,0,0,0,0,0,,AV
Fixation,canvas.Screen,2_4_0_0,2022-07-15T15:18:12.382Z,,,1,AV,2451.850000000035,timeout,,,471186.80000000005,471185054,468733206,468741.30000000005,468749883,471201733,,grey,ND07NU02,26,f,4,0,Psychologie,0,0,0,0,0,,V
Stimulus,canvas.Screen,2_4_0_1,2022-07-15T15:18:12.481Z,,,1,AV,99.71000000002095,timeout,,,471285.80000000005,471284767,471185054,471187.1,471201733,471301443,,grey,ND07NU02,26,f,4,0,Psychologie,0,0,0,0,0,,V
Reaction,canvas.Screen,2_4_0_2,2022-07-15T15:18:12.614Z,,,1,AV,115.85700000001816,response,stim_detected,mousedown,471419.30000000005,471417.30000000005,471284767,471286.20000000007,471301443,471434977,,grey,ND07NU02,26,f,4,0,Psychologie,0,0,0,0,0,,V
Trial,flow.Sequence,2_4_0,2022-07-15T15:18:12.615Z,,,1,AV,2667.417000000074,completion,,,471419.70000000007,471417.30000000005,468733206,468741.1,468749883,471434977,,grey,ND07NU02,26,f,4,0,Psychologie,0,0,0,0,0,,V
Frame,canvas.Frame,2_4,2022-07-15T15:18:12.615Z,,,1,AV,2669.8170000000973,,,,471420,471419.70000000007,468733206,468740.1,468749883,471434977,,grey,ND07NU02,26,f,4,0,Psychologie,0,0,0,0,0,,V
Fixation,canvas.Screen,2_5_0_0,2022-07-15T15:18:14.783Z,,,0,V,2168.158999999985,timeout,,,473587.9,473586458,471418.3,471421.30000000005,471434977,473603136,,grey,ND07NU02,26,f,4,0,Psychologie,0,0,0,0,0,,AV
Stimulus,canvas.Screen,2_5_0_1,2022-07-15T15:18:14.883Z,,,0,V,99.95400000002701,timeout,,,473687.9,473686413,473586458,473588.20000000007,473603136,473703.09,,grey,ND07NU02,26,f,4,0,Psychologie,0,0,0,0,0,,AV
Reaction,canvas.Screen,2_5_0_2,2022-07-15T15:18:15.119Z,,,0,V,219.11000000004424,response,stim_detected,mousedown,473923.80000000005,473922.20000000007,473686413,473688.20000000007,473703.09,473936617,,grey,ND07NU02,26,f,4,0,Psychologie,0,0,0,0,0,,AV
Trial,flow.Sequence,2_5_0,2022-07-15T15:18:15.119Z,,,0,V,2487.2230000000563,completion,,,473924.20000000007,473922.20000000007,471418.3,471421.20000000007,471434977,473936617,,grey,ND07NU02,26,f,4,0,Psychologie,0,0,0,0,0,,AV
Frame,canvas.Frame,2_5,2022-07-15T15:18:15.120Z,,,0,V,2489.323000000033,,,,473924.5,473924.30000000005,471418.3,471420.1,471434977,473936617,,grey,ND07NU02,26,f,4,0,Psychologie,0,0,0,0,0,,AV
Fixation,canvas.Screen,2_6_0_0,2022-07-15T15:18:16.718Z,,,1,AV,1601.2329999999492,timeout,,,475523.20000000007,475521171,473919.94,473925.70000000007,473936617,475537.85,,grey,ND07NU02,26,f,4,0,Psychologie,0,0,0,0,0,,V
Stimulus,canvas.Screen,2_6_0_1,2022-07-15T15:18:16.817Z,,,1,AV,99.81100000004517,timeout,,,475622.20000000007,475620985,475521171,475523.70000000007,475537.85,475637661,,grey,ND07NU02,26,f,4,0,Psychologie,0,0,0,0,0,,V
Reaction,canvas.Screen,2_6_0_2,2022-07-15T15:18:16.930Z,,,1,AV,95.53900000004796,response,stim_detected,mousedown,475734.9,475733.20000000007,475620985,475622.5,475637661,475737745,,grey,ND07NU02,26,f,4,0,Psychologie,0,0,0,0,0,,V
Trial,flow.Sequence,2_6_0,2022-07-15T15:18:16.930Z,,,1,AV,1796.5830000000424,completion,,,475735.30000000005,475733.20000000007,473919.94,473925.5,473936617,475737745,,grey,ND07NU02,26,f,4,0,Psychologie,0,0,0,0,0,,V
Frame,canvas.Frame,2_6,2022-07-15T15:18:16.931Z,,,1,AV,1798.9829999999492,,,,475735.80000000005,475735.6,473919.94,473924.70000000007,473936617,475737745,,grey,ND07NU02,26,f,4,0,Psychologie,0,0,0,0,0,,V
Fixation,canvas.Screen,2_7_0_0,2022-07-15T15:18:19.253Z,,,0,V,2336.1450000000186,timeout,,,478057.80000000005,478057204,475721069,475737,475737745,478073.89,,grey,ND07NU02,26,f,4,0,Psychologie,0,0,0,0,0,,AV
Stimulus,canvas.Screen,2_7_0_1,2022-07-15T15:18:19.352Z,,,0,V,98.33499999996275,timeout,,,478157.1,478155551,478057204,478057.9,478073.89,478172225,,grey,ND07NU02,26,f,4,0,Psychologie,0,0,0,0,0,,AV
Reaction,canvas.Screen,2_7_0_2,2022-07-15T15:18:19.468Z,,,0,V,98875,response,stim_detected,mousedown,478272.6,478271.1,478155551,478157.30000000005,478172225,478289425,,grey,ND07NU02,26,f,4,0,Psychologie,0,0,0,0,0,,AV
Trial,flow.Sequence,2_7_0,2022-07-15T15:18:19.468Z,,,0,V,2533.3549999999814,completion,,,478273.1,478271.1,475721069,475736.9,475737745,478289425,,grey,ND07NU02,26,f,4,0,Psychologie,0,0,0,0,0,,AV
Frame,canvas.Frame,2_7,2022-07-15T15:18:19.469Z,,,0,V,2535.555000000051,,,,478273.4,478273.30000000005,475721069,475736,475737745,478289425,,grey,ND07NU02,26,f,4,0,Psychologie,0,0,0,0,0,,AV
Fixation,canvas.Screen,2_8_0_0,2022-07-15T15:18:21.254Z,,,0,V,1784.9150000000373,timeout,,,480059,480057659,478272748,478274.70000000007,478289425,480074.34,,grey,ND07NU02,26,f,4,0,Psychologie,0,0,0,0,0,,V
Stimulus,canvas.Screen,2_8_0_1,2022-07-15T15:18:21.354Z,,,0,V,99.67099999997299,timeout,,,480159,480157.32,480057659,480059.4,480074.34,480174011,,grey,ND07NU02,26,f,4,0,Psychologie,0,0,0,0,0,,V
Reaction,canvas.Screen,2_8_0_2,2022-07-15T15:18:21.705Z,,,0,V,333.9890000000014,response,stim_detected,mousedown,480509.80000000005,480508,480157.32,480159.30000000005,480174011,480524228,,grey,ND07NU02,26,f,4,0,Psychologie,0,0,0,0,0,,V
Trial,flow.Sequence,2_8_0,2022-07-15T15:18:21.705Z,,,0,V,2218.5750000000116,completion,,,480510.20000000007,480508,478272748,478274.6,478289425,480524228,,grey,ND07NU02,26,f,4,0,Psychologie,0,0,0,0,0,,V
Frame,canvas.Frame,2_8,2022-07-15T15:18:21.706Z,,,0,V,2220.875000000058,,,,480510.5,480510.30000000005,478272748,478273.6,478289425,480524228,,grey,ND07NU02,26,f,4,0,Psychologie,0,0,0,0,0,,V
Fixation,canvas.Screen,2_9_0_0,2022-07-15T15:18:23.838Z,,,0,V,2134.058000000019,timeout,,,482643.1,482641613,480507551,480511.9,480524228,482658286,,grey,ND07NU02,26,f,4,0,Psychologie,0,0,0,0,0,,V
Stimulus,canvas.Screen,2_9_0_1,2022-07-15T15:18:23.938Z,,,0,V,100.55199999996694,timeout,,,482743.30000000005,482742162,482641613,482643.4,482658286,482758838,,grey,ND07NU02,26,f,4,0,Psychologie,0,0,0,0,0,,V
Reaction,canvas.Screen,2_9_0_2,2022-07-15T15:18:24.078Z,,,0,V,122.06200000003446,response,stim_detected,mousedown,482882.4,482880.9,482742162,482743.6,482758838,482892465,,grey,ND07NU02,26,f,4,0,Psychologie,0,0,0,0,0,,V
Trial,flow.Sequence,2_9_0,2022-07-15T15:18:24.078Z,,,0,V,2356.6720000000205,completion,,,482882.80000000005,482880.9,480507551,480511.9,480524228,482892465,,grey,ND07NU02,26,f,4,0,Psychologie,0,0,0,0,0,,V
Frame,canvas.Frame,2_9,2022-07-15T15:18:24.078Z,,,0,V,2358.6720000000205,,,,482883.20000000007,482882.9,480507551,480510.70000000007,480524228,482892465,,grey,ND07NU02,26,f,4,0,Psychologie,0,0,0,0,0,,V
Fixation,canvas.Screen,2_10_0_0,2022-07-15T15:18:26.190Z,,,1,A,2117.8429999999935,timeout,,,484995.20000000007,484993632,482875788,482884.30000000005,482892465,485010308,,black,ND07NU02,26,f,4,0,Psychologie,0,0,0,0,0,,V
Stimulus,canvas.Screen,2_10_0_1,2022-07-15T15:18:26.289Z,,,1,A,99.32600000000093,timeout,,,485094.30000000005,485092964,484993632,484995.5,485010308,485109634,,black,ND07NU02,26,f,4,0,Psychologie,0,0,0,0,0,,V
Reaction,canvas.Screen,2_10_0_2,2022-07-15T15:18:26.780Z,,,1,A,473.26600000000326,response,stim_detected,mousedown,485584.80000000005,485582.9,485092964,485094.70000000007,485109634,485594173,,black,ND07NU02,26,f,4,0,Psychologie,0,0,0,0,0,,V
Trial,flow.Sequence,2_10_0,2022-07-15T15:18:26.780Z,,,1,A,2690.4349999999977,completion,,,485585.30000000005,485582.9,482875788,482884.30000000005,482892465,485594173,,black,ND07NU02,26,f,4,0,Psychologie,0,0,0,0,0,,V
Frame,canvas.Frame,2_10,2022-07-15T15:18:26.781Z,,,1,A,2693.0349999999744,,,,485585.70000000007,485585.5,482875788,482883.4,482892465,485594173,,black,ND07NU02,26,f,4,0,Psychologie,0,0,0,0,0,,V
Fixation,canvas.Screen,2_11_0_0,2022-07-15T15:18:29.111Z,,,0,V,2336.2660000000033,timeout,,,487915.70000000007,487913753,485577496,485587.1,485594173,487930439,,grey,ND07NU02,26,f,4,0,Psychologie,0,0,0,0,0,,A
Stimulus,canvas.Screen,2_11_0_1,2022-07-15T15:18:29.208Z,,,0,V,98.69699999998556,timeout,,,488013.4,488012196,487913753,487915.9,487930439,488029136,,grey,ND07NU02,26,f,4,0,Psychologie,0,0,0,0,0,,A
Reaction,canvas.Screen,2_11_0_2,2022-07-15T15:18:29.413Z,,,0,V,186.76400000002468,response,stim_detected,mousedown,488217.4,488215.9,488012196,488013.6,488029136,488229.26,,grey,ND07NU02,26,f,4,0,Psychologie,0,0,0,0,0,,A
Trial,flow.Sequence,2_11_0,2022-07-15T15:18:29.413Z,,,0,V,2621.7270000000135,completion,,,488217.80000000005,488215.9,485577496,485586.9,485594173,488229.26,,grey,ND07NU02,26,f,4,0,Psychologie,0,0,0,0,0,,A
Frame,canvas.Frame,2_11,2022-07-15T15:18:29.413Z,,,0,V,2623.7270000000135,,,,488218.1,488217.9,485577496,485586,485594173,488229.26,,grey,ND07NU02,26,f,4,0,Psychologie,0,0,0,0,0,,A
Fixation,canvas.Screen,2_12_0_0,2022-07-15T15:18:31.378Z,,,1,AV,1968.1579999999958,timeout,,,490182.4,490180739,488212583,488219.1,488229.26,490197418,,grey,ND07NU02,26,f,4,0,Psychologie,0,0,0,0,0,,V
Stimulus,canvas.Screen,2_12_0_1,2022-07-15T15:18:31.477Z,,,1,AV,99.42699999996694,timeout,,,490281.4,490280171,490180739,490182.70000000007,490197418,490296845,,grey,ND07NU02,26,f,4,0,Psychologie,0,0,0,0,0,,V
Reaction,canvas.Screen,2_12_0_2,2022-07-15T15:18:31.615Z,,,1,AV,120.9550000000745,response,stim_detected,mousedown,490419.4,490417.80000000005,490280171,490282.4,490296845,490430708,,grey,ND07NU02,26,f,4,0,Psychologie,0,0,0,0,0,,V
Trial,flow.Sequence,2_12_0,2022-07-15T15:18:31.615Z,,,1,AV,2188.5400000000373,completion,,,490419.80000000005,490417.80000000005,488212583,488219.1,488229.26,490430708,,grey,ND07NU02,26,f,4,0,Psychologie,0,0,0,0,0,,V
Frame,canvas.Frame,2_12,2022-07-15T15:18:31.615Z,,,1,AV,2190.640000000014,,,,490420,490419.9,488212583,488218.20000000007,488229.26,490430708,,grey,ND07NU02,26,f,4,0,Psychologie,0,0,0,0,0,,V
Fixation,canvas.Screen,2_13_0_0,2022-07-15T15:18:33.878Z,,,1,AV,2267.3360000000102,timeout,,,492682.4,492681372,490414031,490421.30000000005,490430708,492698044,,grey,ND07NU02,26,f,4,0,Psychologie,0,0,0,0,0,,AV
Stimulus,canvas.Screen,2_13_0_1,2022-07-15T15:18:33.978Z,,,1,AV,100.2390000000014,timeout,,,492783.1,492781.61,492681372,492682.80000000005,492698044,492798283,,grey,ND07NU02,26,f,4,0,Psychologie,0,0,0,0,0,,AV
Reaction,canvas.Screen,2_13_0_2,2022-07-15T15:18:34.100Z,,,1,AV,105.51700000005076,response,stim_detected,mousedown,492905.20000000007,492903.80000000005,492781.61,492783.30000000005,492798283,492915625,,grey,ND07NU02,26,f,4,0,Psychologie,0,0,0,0,0,,AV
Trial,flow.Sequence,2_13_0,2022-07-15T15:18:34.101Z,,,1,AV,2473.0920000000624,completion,,,492905.70000000007,492903.80000000005,490414031,490421.1,490430708,492915625,,grey,ND07NU02,26,f,4,0,Psychologie,0,0,0,0,0,,AV
Frame,canvas.Frame,2_13,2022-07-15T15:18:34.101Z,,,1,AV,2475.0920000000624,,,,492906,492905.80000000005,490414031,490420.20000000007,490430708,492915625,,grey,ND07NU02,26,f,4,0,Psychologie,0,0,0,0,0,,AV
Fixation,canvas.Screen,2_14_0_0,2022-07-15T15:18:36.399Z,,,1,A,2303.0169999999925,timeout,,,495203.6,495201954,492898948,492907,492915625,495218642,,black,ND07NU02,26,f,4,0,Psychologie,0,0,0,0,0,,AV
Stimulus,canvas.Screen,2_14_0_1,2022-07-15T15:18:36.497Z,,,1,A,98.0350000000326,timeout,,,495301.70000000007,495300004,495201954,495203.9,495218642,495316677,,black,ND07NU02,26,f,4,0,Psychologie,0,0,0,0,0,,AV
Reaction,canvas.Screen,2_14_0_2,2022-07-15T15:18:36.622Z,,,1,A,109.0230000000447,response,stim_detected,mousedown,495427.20000000007,495425.70000000007,495300004,495301.9,495316677,495433929,,black,ND07NU02,26,f,4,0,Psychologie,0,0,0,0,0,,AV
Trial,flow.Sequence,2_14_0,2022-07-15T15:18:36.623Z,,,1,A,2510.07500000007,completion,,,495427.6,495425.70000000007,492898948,492906.9,492915625,495433929,,black,ND07NU02,26,f,4,0,Psychologie,0,0,0,0,0,,AV
Frame,canvas.Frame,2_14,2022-07-15T15:18:36.623Z,,,1,A,2512.1750000000466,,,,495427.9,495427.80000000005,492898948,492906.20000000007,492915625,495433929,,black,ND07NU02,26,f,4,0,Psychologie,0,0,0,0,0,,AV
Fixation,canvas.Screen,2_15_0_0,2022-07-15T15:18:38.165Z,,,1,A,1551.4859999999753,timeout,,,496969.6,496968733,495417252,495429,495433929,496985415,,black,ND07NU02,26,f,4,0,Psychologie,0,0,0,0,0,,A
Stimulus,canvas.Screen,2_15_0_1,2022-07-15T15:18:38.265Z,,,1,A,99.62700000003679,timeout,,,497069.70000000007,497068365,496968733,496969.80000000005,496985415,497085042,,black,ND07NU02,26,f,4,0,Psychologie,0,0,0,0,0,,A
Reaction,canvas.Screen,2_15_0_2,2022-07-15T15:18:38.435Z,,,1,A,153.55799999996088,response,stim_detected,mousedown,497240.20000000007,497238.6,497068365,497070,497085042,497251816,,black,ND07NU02,26,f,4,0,Psychologie,0,0,0,0,0,,A
Trial,flow.Sequence,2_15_0,2022-07-15T15:18:38.436Z,,,1,A,1804.670999999973,completion,,,497240.6,497238.6,495417252,495428.9,495433929,497251816,,black,ND07NU02,26,f,4,0,Psychologie,0,0,0,0,0,,A
Frame,canvas.Frame,2_15,2022-07-15T15:18:38.436Z,,,1,A,1806.7710000000661,,,,497241,497240.70000000007,495417252,495428.20000000007,495433929,497251816,,black,ND07NU02,26,f,4,0,Psychologie,0,0,0,0,0,,A
Fixation,canvas.Screen,2_16_0_0,2022-07-15T15:18:40.216Z,,,1,A,1784.5400000000373,timeout,,,499020.80000000005,499019678,497235139,497242,497251816,499036356,,black,ND07NU02,26,f,4,0,Psychologie,0,0,0,0,0,,A
Stimulus,canvas.Screen,2_16_0_1,2022-07-15T15:18:40.316Z,,,1,A,100.04599999997299,timeout,,,499120.70000000007,499119725,499019678,499021.20000000007,499036356,499136402,,black,ND07NU02,26,f,4,0,Psychologie,0,0,0,0,0,,A
Reaction,canvas.Screen,2_16_0_2,2022-07-15T15:18:40.462Z,,,1,A,129.19799999997485,response,stim_detected,mousedown,499267.20000000007,499265.6,499119725,499120.9,499136402,499269754,,black,ND07NU02,26,f,4,0,Psychologie,0,0,0,0,0,,A
Trial,flow.Sequence,2_16_0,2022-07-15T15:18:40.463Z,,,1,A,2013.783999999985,completion,,,499267.5,499265.6,497235139,497241.9,497251816,499269754,,black,ND07NU02,26,f,4,0,Psychologie,0,0,0,0,0,,A
Frame,canvas.Frame,2_16,2022-07-15T15:18:40.463Z,,,1,A,2015.783999999985,,,,499267.9,499267.6,497235139,497241.20000000007,497251816,499269754,,black,ND07NU02,26,f,4,0,Psychologie,0,0,0,0,0,,A
Fixation,canvas.Screen,2_17_0_0,2022-07-15T15:18:42.768Z,,,1,AV,2318.5709999999963,timeout,,,501572.80000000005,501571645,499253078,499269,499269754,501588325,,grey,ND07NU02,26,f,4,0,Psychologie,0,0,0,0,0,,A
Stimulus,canvas.Screen,2_17_0_1,2022-07-15T15:18:42.868Z,,,1,AV,99.78899999998976,timeout,,,501672.70000000007,501671436,501571645,501573,501588325,501688114,,grey,ND07NU02,26,f,4,0,Psychologie,0,0,0,0,0,,A
Reaction,canvas.Screen,2_17_0_2,2022-07-15T15:18:42.983Z,,,1,AV,98.48599999997532,response,stim_detected,mousedown,501788,501786.6,501671436,501673,501688114,501804763,,grey,ND07NU02,26,f,4,0,Psychologie,0,0,0,0,0,,A
Trial,flow.Sequence,2_17_0,2022-07-15T15:18:42.984Z,,,1,AV,2516.8459999999614,completion,,,501788.5,501786.6,499253078,499268.9,499269754,501804763,,grey,ND07NU02,26,f,4,0,Psychologie,0,0,0,0,0,,A
Frame,canvas.Frame,2_17,2022-07-15T15:18:42.984Z,,,1,AV,2518.9460000000545,,,,501788.80000000005,501788.70000000007,499253078,499268.1,499269754,501804763,,grey,ND07NU02,26,f,4,0,Psychologie,0,0,0,0,0,,A
Fixation,canvas.Screen,2_18_0_0,2022-07-15T15:18:45.070Z,,,1,A,2085.5750000000116,timeout,,,503874.80000000005,503873654,501788086,501790.30000000005,501804763,503890338,,black,ND07NU02,26,f,4,0,Psychologie,0,0,0,0,0,,AV
Stimulus,canvas.Screen,2_18_0_1,2022-07-15T15:18:45.169Z,,,1,A,99.05499999999302,timeout,,,503973.80000000005,503972717,503873654,503875.1,503890338,503989393,,black,ND07NU02,26,f,4,0,Psychologie,0,0,0,0,0,,AV
Reaction,canvas.Screen,2_18_0_2,2022-07-15T15:18:45.316Z,,,1,A,130.00700000004144,response,stim_detected,mousedown,504121.30000000005,504119.4,503972717,503974.1,503989393,504122965,,black,ND07NU02,26,f,4,0,Psychologie,0,0,0,0,0,,AV
Trial,flow.Sequence,2_18_0,2022-07-15T15:18:45.317Z,,,1,A,2314.637000000046,completion,,,504121.70000000007,504119.4,501788086,501790.1,501804763,504122965,,black,ND07NU02,26,f,4,0,Psychologie,0,0,0,0,0,,AV
Frame,canvas.Frame,2_18,2022-07-15T15:18:45.317Z,,,1,A,2317.0370000000694,,,,504122.1,504121.80000000005,501788086,501789.1,501804763,504122965,,black,ND07NU02,26,f,4,0,Psychologie,0,0,0,0,0,,AV
Fixation,canvas.Screen,2_19_0_0,2022-07-15T15:18:47.054Z,,,1,AV,1751.0939999999828,timeout,,,505858.4,505857382,504106288,504123.4,504122965,505874059,,grey,ND07NU02,26,f,4,0,Psychologie,0,0,0,0,0,,A
Stimulus,canvas.Screen,2_19_0_1,2022-07-15T15:18:47.154Z,,,1,AV,99.98099999997066,timeout,,,505958.9,505957364,505857382,505858.6,505874059,505974.04,,grey,ND07NU02,26,f,4,0,Psychologie,0,0,0,0,0,,A
Reaction,canvas.Screen,2_19_0_2,2022-07-15T15:18:47.270Z,,,1,AV,99.36000000004424,response,stim_detected,mousedown,506074.9,506073.4,505957364,505959.20000000007,505974.04,506090898,,grey,ND07NU02,26,f,4,0,Psychologie,0,0,0,0,0,,A
Trial,flow.Sequence,2_19_0,2022-07-15T15:18:47.270Z,,,1,AV,1950.4349999999977,completion,,,506075.30000000005,506073.4,504106288,504123.20000000007,504122965,506090898,,grey,ND07NU02,26,f,4,0,Psychologie,0,0,0,0,0,,A
Frame,canvas.Frame,2_19,2022-07-15T15:18:47.271Z,,,1,AV,1952.4349999999977,,,,506075.6,506075.4,504106288,504122.30000000005,504122965,506090898,,grey,ND07NU02,26,f,4,0,Psychologie,0,0,0,0,0,,A
Fixation,canvas.Screen,2_20_0_0,2022-07-15T15:18:49.741Z,,,1,A,2468.837999999989,timeout,,,508544.1,508543055,506074221,506076.70000000007,506090898,508559736,,black,ND07NU02,26,f,4,0,Psychologie,0,0,0,0,0,,AV
Stimulus,canvas.Screen,2_20_0_1,2022-07-15T15:18:49.841Z,,,1,A,98.79000000003725,timeout,,,508643.4,508641854,508543055,508544.20000000007,508559736,508658526,,black,ND07NU02,26,f,4,0,Psychologie,0,0,0,0,0,,AV
Reaction,canvas.Screen,2_20_0_2,2022-07-15T15:18:50.085Z,,,1,A,228.57399999996414,response,stim_detected,mousedown,508888,508887.1,508641854,508643.70000000007,508658526,508892711,,black,ND07NU02,26,f,4,0,Psychologie,0,0,0,0,0,,AV
Trial,flow.Sequence,2_20_0,2022-07-15T15:18:50.085Z,,,1,A,2796.20199999999,completion,,,508888.30000000005,508887.1,506074221,506076.6,506090898,508892711,,black,ND07NU02,26,f,4,0,Psychologie,0,0,0,0,0,,AV
Frame,canvas.Frame,2_20,2022-07-15T15:18:50.086Z,,,1,A,2797.40200000006,,,,508888.4,508888.30000000005,506074221,506075.80000000005,506090898,508892711,,black,ND07NU02,26,f,4,0,Psychologie,0,0,0,0,0,,AV
Fixation,canvas.Screen,2_21_0_0,2022-07-15T15:18:51.975Z,,,0,V,1901.0629999999655,timeout,,,510778.1,510777098,508876034,508888.9,508892711,510793774,,grey,ND07NU02,26,f,4,0,Psychologie,0,0,0,0,0,,A
Stimulus,canvas.Screen,2_21_0_1,2022-07-15T15:18:52.077Z,,,0,V,100.29300000000512,timeout,,,510879.30000000005,510877389,510777098,510778.5,510793774,510894067,,grey,ND07NU02,26,f,4,0,Psychologie,0,0,0,0,0,,A
Reaction,canvas.Screen,2_21_0_2,2022-07-15T15:18:52.243Z,,,0,V,150.23300000006566,response,stim_detected,mousedown,511046,511044.30000000005,510877389,510879.6,510894067,511060819,,grey,ND07NU02,26,f,4,0,Psychologie,0,0,0,0,0,,A
Trial,flow.Sequence,2_21_0,2022-07-15T15:18:52.244Z,,,0,V,2151.5890000000363,completion,,,511046.5,511044.30000000005,508876034,508888.9,508892711,511060819,,grey,ND07NU02,26,f,4,0,Psychologie,0,0,0,0,0,,A
Frame,canvas.Frame,2_21,2022-07-15T15:18:52.244Z,,,0,V,2153.9890000000596,,,,511046.9,511046.70000000007,508876034,508888.4,508892711,511060819,,grey,ND07NU02,26,f,4,0,Psychologie,0,0,0,0,0,,A
Fixation,canvas.Screen,2_22_0_0,2022-07-15T15:18:53.826Z,,,0,V,1583.994000000006,timeout,,,512629.1,512628139,511044142,511048.1,511060819,512644813,,grey,ND07NU02,26,f,4,0,Psychologie,0,0,0,0,0,,V
Stimulus,canvas.Screen,2_22_0_1,2022-07-15T15:18:53.927Z,,,0,V,100.49399999994785,timeout,,,512730.1,512728629,512628139,512629.30000000005,512644813,512745307,,grey,ND07NU02,26,f,4,0,Psychologie,0,0,0,0,0,,V
Reaction,canvas.Screen,2_22_0_2,2022-07-15T15:18:54.077Z,,,0,V,132.99300000007497,response,stim_detected,mousedown,512879.9,512878.30000000005,512728629,512730.4,512745307,512895367,,grey,ND07NU02,26,f,4,0,Psychologie,0,0,0,0,0,,V
Trial,flow.Sequence,2_22_0,2022-07-15T15:18:54.078Z,,,0,V,1817.4810000000289,completion,,,512880.4,512878.30000000005,511044142,511048,511060819,512895367,,grey,ND07NU02,26,f,4,0,Psychologie,0,0,0,0,0,,V
Frame,canvas.Frame,2_22,2022-07-15T15:18:54.078Z,,,0,V,1819.780999999959,,,,512880.80000000005,512880.6,511044142,511047.1,511060819,512895367,,grey,ND07NU02,26,f,4,0,Psychologie,0,0,0,0,0,,V
Fixation,canvas.Screen,2_23_0_0,2022-07-15T15:18:55.861Z,,,1,A,1784.0839999999735,timeout,,,514664.1,514662777,512878.69,512882,512895367,514679451,,black,ND07NU02,26,f,4,0,Psychologie,0,0,0,0,0,,V
Stimulus,canvas.Screen,2_23_0_1,2022-07-15T15:18:55.961Z,,,1,A,100.12099999998463,timeout,,,514763.6,514762898,514662777,514664.4,514679451,514779572,,black,ND07NU02,26,f,4,0,Psychologie,0,0,0,0,0,,V
Reaction,canvas.Screen,2_23_0_2,2022-07-15T15:18:56.138Z,,,1,A,159.52799999999115,response,stim_detected,mousedown,514941.20000000007,514939.1,514762898,514763.80000000005,514779572,514946638,,black,ND07NU02,26,f,4,0,Psychologie,0,0,0,0,0,,V
Trial,flow.Sequence,2_23_0,2022-07-15T15:18:56.139Z,,,1,A,2043.7329999999492,completion,,,514941.6,514939.1,512878.69,512881.80000000005,512895367,514946638,,black,ND07NU02,26,f,4,0,Psychologie,0,0,0,0,0,,V
Frame,canvas.Frame,2_23,2022-07-15T15:18:56.139Z,,,1,A,2046.433000000019,,,,514942,514941.80000000005,512878.69,512881,512895367,514946638,,black,ND07NU02,26,f,4,0,Psychologie,0,0,0,0,0,,V
Fixation,canvas.Screen,2_24_0_0,2022-07-15T15:18:57.979Z,,,1,A,1850.664000000048,timeout,,,516782.20000000007,516780629,514929961,514943.20000000007,514946638,516797302,,black,ND07NU02,26,f,4,0,Psychologie,0,0,0,0,0,,A
Stimulus,canvas.Screen,2_24_0_1,2022-07-15T15:18:58.079Z,,,1,A,100.72399999998743,timeout,,,516882,516881348,516780629,516782.4,516797302,516898026,,black,ND07NU02,26,f,4,0,Psychologie,0,0,0,0,0,,A
Reaction,canvas.Screen,2_24_0_2,2022-07-15T15:18:58.209Z,,,1,A,112.07399999996414,response,stim_detected,mousedown,517011.5,517010.1,516881348,516882.30000000005,516898026,517014653,,black,ND07NU02,26,f,4,0,Psychologie,0,0,0,0,0,,A
Trial,flow.Sequence,2_24_0,2022-07-15T15:18:58.209Z,,,1,A,2063.4619999999995,completion,,,517012,517010.1,514929961,514943.1,514946638,517014653,,black,ND07NU02,26,f,4,0,Psychologie,0,0,0,0,0,,A
Frame,canvas.Frame,2_24,2022-07-15T15:18:58.209Z,,,1,A,2065.362000000023,,,,517012.30000000005,517012,514929961,514942.20000000007,514946638,517014653,,black,ND07NU02,26,f,4,0,Psychologie,0,0,0,0,0,,A
Fixation,canvas.Screen,2_25_0_0,2022-07-15T15:19:00.333Z,,,0,V,2136.011999999988,timeout,,,519135.30000000005,519133978,516997976,517013.30000000005,517014653,519150665,,grey,ND07NU02,26,f,4,0,Psychologie,0,0,0,0,0,,A
Stimulus,canvas.Screen,2_25_0_1,2022-07-15T15:19:00.431Z,,,0,V,98.8300000000163,timeout,,,519234.30000000005,519232818,519133978,519135.6,519150665,519249495,,grey,ND07NU02,26,f,4,0,Psychologie,0,0,0,0,0,,A
Reaction,canvas.Screen,2_25_0_2,2022-07-15T15:19:00.578Z,,,0,V,129.60499999998137,response,stim_detected,mousedown,519380.70000000007,519379.1,519232818,519234.5,519249495,519399542,,grey,ND07NU02,26,f,4,0,Psychologie,0,0,0,0,0,,A
Trial,flow.Sequence,2_25_0,2022-07-15T15:19:00.578Z,,,0,V,2364.4469999999856,completion,,,519381.1,519379.1,516997976,517013.20000000007,517014653,519399542,,grey,ND07NU02,26,f,4,0,Psychologie,0,0,0,0,0,,A
Frame,canvas.Frame,2_25,2022-07-15T15:19:00.579Z,,,0,V,2366.6470000000554,,,,519381.4,519381.30000000005,516997976,517012.4,517014653,519399542,,grey,ND07NU02,26,f,4,0,Psychologie,0,0,0,0,0,,A
Fixation,canvas.Screen,2_26_0_0,2022-07-15T15:19:02.182Z,,,0,V,1601.478999999992,timeout,,,520985.1,520984.34,519366194,519405.80000000005,519399542,521001021,,grey,ND07NU02,26,f,4,0,Psychologie,0,0,0,0,0,,V
Stimulus,canvas.Screen,2_26_0_1,2022-07-15T15:19:02.282Z,,,0,V,99.66200000001118,timeout,,,521085.20000000007,521084006,520984.34,520985.20000000007,521001021,521100683,,grey,ND07NU02,26,f,4,0,Psychologie,0,0,0,0,0,,V
Reaction,canvas.Screen,2_26_0_2,2022-07-15T15:19:02.429Z,,,0,V,129.3169999999809,response,stim_detected,mousedown,521231.6,521230,521084006,521085.5,521100683,521234057,,grey,ND07NU02,26,f,4,0,Psychologie,0,0,0,0,0,,V
Trial,flow.Sequence,2_26_0,2022-07-15T15:19:02.429Z,,,0,V,1830.4579999999842,completion,,,521232,521230,519366194,519405.6,519399542,521234057,,grey,ND07NU02,26,f,4,0,Psychologie,0,0,0,0,0,,V
Frame,canvas.Frame,2_26,2022-07-15T15:19:02.430Z,,,0,V,1832.5579999999609,,,,521232.30000000005,521232.1,519366194,519381.6,519399542,521234057,,grey,ND07NU02,26,f,4,0,Psychologie,0,0,0,0,0,,V
Fixation,canvas.Screen,2_27_0_0,2022-07-15T15:19:03.918Z,,,0,V,1501.878000000026,timeout,,,522720.4,522719249,521217381,521233.30000000005,521234057,522735935,,grey,ND07NU02,26,f,4,0,Psychologie,0,0,0,0,0,,V
Stimulus,canvas.Screen,2_27_0_1,2022-07-15T15:19:04.017Z,,,0,V,99.03000000002794,timeout,,,522819.4,522818.29,522719249,522720.70000000007,522735935,522834965,,grey,ND07NU02,26,f,4,0,Psychologie,0,0,0,0,0,,V
Reaction,canvas.Screen,2_27_0_2,2022-07-15T15:19:04.206Z,,,0,V,172.0349999999744,response,stim_detected,mousedown,523008.4,523007,522818.29,522819.6,522834965,523018606,,grey,ND07NU02,26,f,4,0,Psychologie,0,0,0,0,0,,V
Trial,flow.Sequence,2_27_0,2022-07-15T15:19:04.206Z,,,0,V,1772.9430000000284,completion,,,523008.80000000005,523007,521217381,521233.20000000007,521234057,523018606,,grey,ND07NU02,26,f,4,0,Psychologie,0,0,0,0,0,,V
Frame,canvas.Frame,2_27,2022-07-15T15:19:04.206Z,,,0,V,1774.9430000000284,,,,523009.20000000007,523009,521217381,521232.5,521234057,523018606,,grey,ND07NU02,26,f,4,0,Psychologie,0,0,0,0,0,,V
Fixation,canvas.Screen,2_28_0_0,2022-07-15T15:19:06.419Z,,,1,AV,2218.201999999932,timeout,,,525221.4,525220.13,523001929,523010.30000000005,523018606,525236808,,grey,ND07NU02,26,f,4,0,Psychologie,0,0,0,0,0,,V
Stimulus,canvas.Screen,2_28_0_1,2022-07-15T15:19:06.519Z,,,1,AV,99.5,timeout,,,525321.5,525319634,525220.13,525221.6,525236808,525336308,,grey,ND07NU02,26,f,4,0,Psychologie,0,0,0,0,0,,V
Reaction,canvas.Screen,2_28_0_2,2022-07-15T15:19:06.646Z,,,1,AV,110.69200000003912,response,stim_detected,mousedown,525448.4,525447,525319634,525321.7000000001,525336308,525453509,,grey,ND07NU02,26,f,4,0,Psychologie,0,0,0,0,0,,V
Trial,flow.Sequence,2_28_0,2022-07-15T15:19:06.646Z,,,1,AV,2428.393999999971,completion,,,525448.8,525447,523001929,523010.20000000007,523018606,525453509,,grey,ND07NU02,26,f,4,0,Psychologie,0,0,0,0,0,,V
Frame,canvas.Frame,2_28,2022-07-15T15:19:06.646Z,,,1,AV,2430.393999999971,,,,525449.1,525449,523001929,523009.4,523018606,525453509,,grey,ND07NU02,26,f,4,0,Psychologie,0,0,0,0,0,,V
Fixation,canvas.Screen,2_29_0_0,2022-07-15T15:19:08.854Z,,,0,V,2218.7660000000615,timeout,,,527656.6,527655593,525436832,525450.5,525453509,527672275,,grey,ND07NU02,26,f,4,0,Psychologie,0,0,0,0,0,,AV
Stimulus,canvas.Screen,2_29_0_1,2022-07-15T15:19:08.954Z,,,0,V,99.50699999998324,timeout,,,527756.5,527755104,527655593,527656.7000000001,527672275,527771782,,grey,ND07NU02,26,f,4,0,Psychologie,0,0,0,0,0,,AV
Reaction,canvas.Screen,2_29_0_2,2022-07-15T15:19:09.110Z,,,0,V,139.11800000001676,response,stim_detected,mousedown,527912.3,527910.9,527755104,527756.9,527771782,527921813,,grey,ND07NU02,26,f,4,0,Psychologie,0,0,0,0,0,,AV
Trial,flow.Sequence,2_29_0,2022-07-15T15:19:09.110Z,,,0,V,2457.3910000000615,completion,,,527912.7000000001,527910.9,525436832,525450.4,525453509,527921813,,grey,ND07NU02,26,f,4,0,Psychologie,0,0,0,0,0,,AV
Frame,canvas.Frame,2_29,2022-07-15T15:19:09.110Z,,,0,V,2459.3910000000615,,,,527913,527912.9,525436832,525449.3,525453509,527921813,,grey,ND07NU02,26,f,4,0,Psychologie,0,0,0,0,0,,AV
Fixation,canvas.Screen,2_30_0_0,2022-07-15T15:19:11.122Z,,,1,A,2017.8880000000354,timeout,,,529924.6,529923024,527905136,527935,527921813,529939701,,black,ND07NU02,26,f,4,0,Psychologie,0,0,0,0,0,,V
Stimulus,canvas.Screen,2_30_0_1,2022-07-15T15:19:11.221Z,,,1,A,99.54399999999441,timeout,,,530023.7000000001,530022573,529923024,529925,529939701,530039245,,black,ND07NU02,26,f,4,0,Psychologie,0,0,0,0,0,,V
Reaction,canvas.Screen,2_30_0_2,2022-07-15T15:19:11.419Z,,,1,A,180.55500000005122,response,stim_detected,mousedown,530221.4,530219.8,530022573,530023.9,530039245,530223269,,black,ND07NU02,26,f,4,0,Psychologie,0,0,0,0,0,,V
Trial,flow.Sequence,2_30_0,2022-07-15T15:19:11.419Z,,,1,A,2297.987000000081,completion,,,530221.8,530219.8,527905136,527934.9,527921813,530223269,,black,ND07NU02,26,f,4,0,Psychologie,0,0,0,0,0,,V
Frame,canvas.Frame,2_30,2022-07-15T15:19:11.419Z,,,1,A,2300.1870000000345,,,,530222.2000000001,530222,527905136,527913.2000000001,527921813,530223269,,black,ND07NU02,26,f,4,0,Psychologie,0,0,0,0,0,,V
Fixation,canvas.Screen,2_31_0_0,2022-07-15T15:19:13.625Z,,,1,A,2219.840000000084,timeout,,,532427.6,532426419,530206592,530223.3,530223269,532443109,,black,ND07NU02,26,f,4,0,Psychologie,0,0,0,0,0,,A
Stimulus,canvas.Screen,2_31_0_1,2022-07-15T15:19:13.723Z,,,1,A,98.38699999998789,timeout,,,532525.7000000001,532524402,532426419,532427.9,532443109,532541496,,black,ND07NU02,26,f,4,0,Psychologie,0,0,0,0,0,,A
Reaction,canvas.Screen,2_31_0_2,2022-07-15T15:19:13.848Z,,,1,A,107.10399999993388,response,stim_detected,mousedown,532650.5,532648.6,532524402,532526,532541496,532658235,,black,ND07NU02,26,f,4,0,Psychologie,0,0,0,0,0,,A
Trial,flow.Sequence,2_31_0,2022-07-15T15:19:13.848Z,,,1,A,2425.3310000000056,completion,,,532650.9,532648.6,530206592,530223.2000000001,530223269,532658235,,black,ND07NU02,26,f,4,0,Psychologie,0,0,0,0,0,,A
Frame,canvas.Frame,2_31,2022-07-15T15:19:13.848Z,,,1,A,2427.8310000000056,,,,532651.2000000001,532651.1,530206592,530222.4,530223269,532658235,,black,ND07NU02,26,f,4,0,Psychologie,0,0,0,0,0,,A
Fixation,canvas.Screen,2_32_0_0,2022-07-15T15:19:16.291Z,,,1,AV,2451.216000000015,timeout,,,535094.1,535092776,532641558,532652.3,532658235,535109451,,grey,ND07NU02,26,f,4,0,Psychologie,0,0,0,0,0,,A
Stimulus,canvas.Screen,2_32_0_1,2022-07-15T15:19:16.392Z,,,1,AV,100.42799999995623,timeout,,,535194.9,535193.1,535092776,535094.3,535109451,535209879,,grey,ND07NU02,26,f,4,0,Psychologie,0,0,0,0,0,,A
Reaction,canvas.Screen,2_32_0_2,2022-07-15T15:19:16.508Z,,,1,AV,98.82100000011269,response,stim_detected,mousedown,535310.3,535308.7000000001,535193.1,535195.1,535209879,535326618,,grey,ND07NU02,26,f,4,0,Psychologie,0,0,0,0,0,,A
Trial,flow.Sequence,2_32_0,2022-07-15T15:19:16.508Z,,,1,AV,2650.465000000084,completion,,,535310.7000000001,535308.7000000001,532641558,532652.2000000001,532658235,535326618,,grey,ND07NU02,26,f,4,0,Psychologie,0,0,0,0,0,,A
Frame,canvas.Frame,2_32,2022-07-15T15:19:16.508Z,,,1,AV,2652.5650000000605,,,,535311,535310.8,532641558,532651.4,532658235,535326618,,grey,ND07NU02,26,f,4,0,Psychologie,0,0,0,0,0,,A
Fixation,canvas.Screen,2_33_0_0,2022-07-15T15:19:18.910Z,,,1,A,2402.1110000000335,timeout,,,537713,537712048,535309941,535312.3,535326618,537728729,,black,ND07NU02,26,f,4,0,Psychologie,0,0,0,0,0,,AV
Stimulus,canvas.Screen,2_33_0_1,2022-07-15T15:19:19.010Z,,,1,A,99.60899999993853,timeout,,,537812.9,537811.66,537712048,537713.4,537728729,537828338,,black,ND07NU02,26,f,4,0,Psychologie,0,0,0,0,0,,AV
Reaction,canvas.Screen,2_33_0_2,2022-07-15T15:19:19.138Z,,,1,A,110.86200000008103,response,stim_detected,mousedown,537940.9,537939.2000000001,537811.66,537813.1,537828338,537945001,,black,ND07NU02,26,f,4,0,Psychologie,0,0,0,0,0,,AV
Trial,flow.Sequence,2_33_0,2022-07-15T15:19:19.139Z,,,1,A,2612.582000000053,completion,,,537941.3,537939.2000000001,535309941,535312.2000000001,535326618,537945001,,black,ND07NU02,26,f,4,0,Psychologie,0,0,0,0,0,,AV
Frame,canvas.Frame,2_33,2022-07-15T15:19:19.139Z,,,1,A,2614.8819999999832,,,,537941.6,537941.5,535309941,535311.2000000001,535326618,537945001,,black,ND07NU02,26,f,4,0,Psychologie,0,0,0,0,0,,AV
Fixation,canvas.Screen,2_34_0_0,2022-07-15T15:19:20.978Z,,,0,V,1851.6359999999404,timeout,,,539780.8,539779956,537928324,537942.7000000001,537945001,539796637,,grey,ND07NU02,26,f,4,0,Psychologie,0,0,0,0,0,,A
Stimulus,canvas.Screen,2_34_0_1,2022-07-15T15:19:21.078Z,,,0,V,99.51300000003539,timeout,,,539880.9,539879474,539779956,539781,539796637,539896.15,,grey,ND07NU02,26,f,4,0,Psychologie,0,0,0,0,0,,A
Reaction,canvas.Screen,2_34_0_2,2022-07-15T15:19:21.350Z,,,0,V,255.34999999997672,response,stim_detected,mousedown,540153,540151.5,539879474,539881.1,539896.15,540163103,,grey,ND07NU02,26,f,4,0,Psychologie,0,0,0,0,0,,A
Trial,flow.Sequence,2_34_0,2022-07-15T15:19:21.351Z,,,0,V,2206.4989999999525,completion,,,540153.8,540151.5,537928324,537942.6,537945001,540163103,,grey,ND07NU02,26,f,4,0,Psychologie,0,0,0,0,0,,A
Frame,canvas.Frame,2_34,2022-07-15T15:19:21.351Z,,,0,V,2208.898999999976,,,,540154.1,540153.9,537928324,537941.8,537945001,540163103,,grey,ND07NU02,26,f,4,0,Psychologie,0,0,0,0,0,,A
Fixation,canvas.Screen,2_35_0_0,2022-07-15T15:19:23.130Z,,,1,AV,1785.0219999999972,timeout,,,541932.9,541931443,540146426,540155.3,540163103,541948125,,grey,ND07NU02,26,f,4,0,Psychologie,0,0,0,0,0,,V
Stimulus,canvas.Screen,2_35_0_1,2022-07-15T15:19:23.229Z,,,1,AV,99.55099999997765,timeout,,,542031.9,542030656,541931443,541933.2000000001,541948125,542047676,,grey,ND07NU02,26,f,4,0,Psychologie,0,0,0,0,0,,V
Reaction,canvas.Screen,2_35_0_2,2022-07-15T15:19:23.338Z,,,1,AV,91.82400000002235,response,stim_detected,mousedown,542141.1,542139.5,542030656,542032.2000000001,542047676,542147738,,grey,ND07NU02,26,f,4,0,Psychologie,0,0,0,0,0,,V
Trial,flow.Sequence,2_35_0,2022-07-15T15:19:23.339Z,,,1,AV,1976.3969999999972,completion,,,542141.5,542139.5,540146426,540155.2000000001,540163103,542147738,,grey,ND07NU02,26,f,4,0,Psychologie,0,0,0,0,0,,V
Frame,canvas.Frame,2_35,2022-07-15T15:19:23.339Z,,,1,AV,1978.597000000067,,,,542141.8,542141.7000000001,540146426,540154.3,540163103,542147738,,grey,ND07NU02,26,f,4,0,Psychologie,0,0,0,0,0,,V
Fixation,canvas.Screen,2_36_0_0,2022-07-15T15:19:25.765Z,,,1,AV,2435.621000000043,timeout,,,544568.1,544566677,542131061,542142.8,542147738,544583359,,grey,ND07NU02,26,f,4,0,Psychologie,0,0,0,0,0,,AV
Stimulus,canvas.Screen,2_36_0_1,2022-07-15T15:19:25.865Z,,,1,AV,99.00599999993574,timeout,,,544667.3,544665.69,544566677,544568.3,544583359,544682365,,grey,ND07NU02,26,f,4,0,Psychologie,0,0,0,0,0,,AV
Reaction,canvas.Screen,2_36_0_2,2022-07-15T15:19:25.990Z,,,1,AV,109.93500000005588,response,stim_detected,mousedown,544793.2000000001,544792.3,544665.69,544667.6,544682365,544799475,,grey,ND07NU02,26,f,4,0,Psychologie,0,0,0,0,0,,AV
Trial,flow.Sequence,2_36_0,2022-07-15T15:19:25.991Z,,,1,AV,2644.5620000000345,completion,,,544793.5,544792.3,542131061,542142.8,542147738,544799475,,grey,ND07NU02,26,f,4,0,Psychologie,0,0,0,0,0,,AV
Frame,canvas.Frame,2_36,2022-07-15T15:19:25.991Z,,,1,AV,2645.8619999999646,,,,544793.7000000001,544793.6,542131061,542142,542147738,544799475,,grey,ND07NU02,26,f,4,0,Psychologie,0,0,0,0,0,,AV
Fixation,canvas.Screen,2_37_0_0,2022-07-15T15:19:28.366Z,,,1,AV,2384.204000000027,timeout,,,547168.3,547167006,544782798,544794.4,544799475,547183679,,grey,ND07NU02,26,f,4,0,Psychologie,0,0,0,0,0,,AV
Stimulus,canvas.Screen,2_37_0_1,2022-07-15T15:19:28.466Z,,,1,AV,100.15700000000652,timeout,,,547268.4,547267163,547167006,547168.8,547183679,547283836,,grey,ND07NU02,26,f,4,0,Psychologie,0,0,0,0,0,,AV
Reaction,canvas.Screen,2_37_0_2,2022-07-15T15:19:28.583Z,,,1,AV,100.56400000001304,response,stim_detected,mousedown,547386.1,547384.4,547267163,547268.7000000001,547283836,547401161,,grey,ND07NU02,26,f,4,0,Psychologie,0,0,0,0,0,,AV
Trial,flow.Sequence,2_37_0,2022-07-15T15:19:28.584Z,,,1,AV,2584.9250000000466,completion,,,547386.6,547384.4,544782798,544794.3,544799475,547401161,,grey,ND07NU02,26,f,4,0,Psychologie,0,0,0,0,0,,AV
Frame,canvas.Frame,2_37,2022-07-15T15:19:28.584Z,,,1,AV,2587.32500000007,,,,547387,547386.8,544782798,544793.8,544799475,547401161,,grey,ND07NU02,26,f,4,0,Psychologie,0,0,0,0,0,,AV
Fixation,canvas.Screen,2_38_0_0,2022-07-15T15:19:30.801Z,,,1,A,2218.624000000069,timeout,,,549604.2000000001,549603104,547384484,547388.2000000001,547401161,549619785,,black,ND07NU02,26,f,4,0,Psychologie,0,0,0,0,0,,AV
Stimulus,canvas.Screen,2_38_0_1,2022-07-15T15:19:30.901Z,,,1,A,99.34199999994598,timeout,,,549704.2000000001,549702452,549603104,549604.4,549619785,549719127,,black,ND07NU02,26,f,4,0,Psychologie,0,0,0,0,0,,AV
Reaction,canvas.Screen,2_38_0_2,2022-07-15T15:19:31.024Z,,,1,A,106.17300000006799,response,stim_detected,mousedown,549826.8,549825.3,549702452,549704.4,549719127,549836074,,black,ND07NU02,26,f,4,0,Psychologie,0,0,0,0,0,,AV
Trial,flow.Sequence,2_38_0,2022-07-15T15:19:31.024Z,,,1,A,2424.139000000083,completion,,,549827.1,549825.3,547384484,547388.1,547401161,549836074,,black,ND07NU02,26,f,4,0,Psychologie,0,0,0,0,0,,AV
Frame,canvas.Frame,2_38,2022-07-15T15:19:31.025Z,,,1,A,2426.139000000083,,,,549827.7000000001,549827.3,547384484,547387.2000000001,547401161,549836074,,black,ND07NU02,26,f,4,0,Psychologie,0,0,0,0,0,,AV
Fixation,canvas.Screen,2_39_0_0,2022-07-15T15:19:32.652Z,,,1,A,1634.9830000000075,timeout,,,551455.2000000001,551454374,549819397,549828.9,549836074,551471057,,black,ND07NU02,26,f,4,0,Psychologie,0,0,0,0,0,,A
Stimulus,canvas.Screen,2_39_0_1,2022-07-15T15:19:32.752Z,,,1,A,99.47600000002421,timeout,,,551555.2000000001,551553856,551454374,551455.5,551471057,551570533,,black,ND07NU02,26,f,4,0,Psychologie,0,0,0,0,0,,A
Reaction,canvas.Screen,2_39_0_2,2022-07-15T15:19:32.858Z,,,1,A,88.76699999999255,response,stim_detected,mousedown,551660.7000000001,551659.3,551553856,551555.5,551570533,551687254,,black,ND07NU02,26,f,4,0,Psychologie,0,0,0,0,0,,A
Trial,flow.Sequence,2_39_0,2022-07-15T15:19:32.858Z,,,1,A,1823.2260000000242,completion,,,551661.1,551659.3,549819397,549828.7000000001,549836074,551687254,,black,ND07NU02,26,f,4,0,Psychologie,0,0,0,0,0,,A
Frame,canvas.Frame,2_39,2022-07-15T15:19:32.859Z,,,1,A,1825.1260000000475,,,,551661.4,551661.2000000001,549819397,549827.9,549836074,551687254,,black,ND07NU02,26,f,4,0,Psychologie,0,0,0,0,0,,A
Fixation,canvas.Screen,2_40_0_0,2022-07-15T15:19:34.488Z,,,1,A,1635.5920000000624,timeout,,,553290.3,553289468,551670578,551662.5,551687254,553322846,,black,ND07NU02,26,f,4,0,Psychologie,0,0,0,0,0,,A
Stimulus,canvas.Screen,2_40_0_1,2022-07-15T15:19:34.602Z,,,1,A,98.24399999994785,timeout,,,553404.9,553404419,553289468,553290.5,553322846,553421.09,,black,ND07NU02,26,f,4,0,Psychologie,0,0,0,0,0,,A
Reaction,canvas.Screen,2_40_0_2,2022-07-15T15:19:34.706Z,,,1,A,86.11000000010245,response,stim_detected,mousedown,553508.7000000001,553507.2000000001,553404419,553405.1,553421.09,553521824,,black,ND07NU02,26,f,4,0,Psychologie,0,0,0,0,0,,A
Trial,flow.Sequence,2_40_0,2022-07-15T15:19:34.706Z,,,1,A,1819.9460000001127,completion,,,553509,553507.2000000001,551670578,551662.3,551687254,553521824,,black,ND07NU02,26,f,4,0,Psychologie,0,0,0,0,0,,A
Frame,canvas.Frame,2_40,2022-07-15T15:19:34.707Z,,,1,A,1821.8460000000196,,,,553509.4,553509.1,551670578,551661.6,551687254,553521824,,black,ND07NU02,26,f,4,0,Psychologie,0,0,0,0,0,,A
Fixation,canvas.Screen,2_41_0_0,2022-07-15T15:19:37.056Z,,,1,AV,2351.7609999999404,timeout,,,555858.6,555856906,553505147,553510.4,553521824,555873585,,grey,ND07NU02,26,f,4,0,Psychologie,0,0,0,0,0,,A
Stimulus,canvas.Screen,2_41_0_1,2022-07-15T15:19:37.156Z,,,1,AV,99.67000000004191,timeout,,,555958.4,555956579,555856906,555859,555873585,555973255,,grey,ND07NU02,26,f,4,0,Psychologie,0,0,0,0,0,,A
Reaction,canvas.Screen,2_41_0_2,2022-07-15T15:19:37.260Z,,,1,AV,87.74499999999534,response,stim_detected,mousedown,556062.8,556061,555956579,555958.8,555973255,556073449,,grey,ND07NU02,26,f,4,0,Psychologie,0,0,0,0,0,,A
Trial,flow.Sequence,2_41_0,2022-07-15T15:19:37.260Z,,,1,AV,2539.1759999999776,completion,,,556063.1,556061,553505147,553510.3,553521824,556073449,,grey,ND07NU02,26,f,4,0,Psychologie,0,0,0,0,0,,A
Frame,canvas.Frame,2_41,2022-07-15T15:19:37.261Z,,,1,AV,2541.3760000000475,,,,556063.4,556063.2000000001,553505147,553509.5,553521824,556073449,,grey,ND07NU02,26,f,4,0,Psychologie,0,0,0,0,0,,A
Fixation,canvas.Screen,2_42_0_0,2022-07-15T15:19:39.125Z,,,0,V,1869.0659999999916,timeout,,,557927.6,557925827,556056772,556064.5,556073449,557942515,,grey,ND07NU02,26,f,4,0,Psychologie,0,0,0,0,0,,AV
Stimulus,canvas.Screen,2_42_0_1,2022-07-15T15:19:39.223Z,,,0,V,98.93299999996088,timeout,,,558025.4,558024107,557925827,557927.9,557942515,558041448,,grey,ND07NU02,26,f,4,0,Psychologie,0,0,0,0,0,,AV
Reaction,canvas.Screen,2_42_0_2,2022-07-15T15:19:39.370Z,,,0,V,129.55200000002515,response,stim_detected,mousedown,558172.5,558171,558024107,558025.7000000001,558041448,558174864,,grey,ND07NU02,26,f,4,0,Psychologie,0,0,0,0,0,,AV
Trial,flow.Sequence,2_42_0,2022-07-15T15:19:39.370Z,,,0,V,2097.5509999999776,completion,,,558173,558171,556056772,556064.4,556073449,558174864,,grey,ND07NU02,26,f,4,0,Psychologie,0,0,0,0,0,,AV
Frame,canvas.Frame,2_42,2022-07-15T15:19:39.371Z,,,0,V,2099.6509999999544,,,,558173.3,558173.1,556056772,556063.6,556073449,558174864,,grey,ND07NU02,26,f,4,0,Psychologie,0,0,0,0,0,,AV
Fixation,canvas.Screen,2_43_0_0,2022-07-15T15:19:41.492Z,,,1,AV,2134.945000000065,timeout,,,560294.5,560293.13,558158187,558174.4,558174864,560309809,,grey,ND07NU02,26,f,4,0,Psychologie,0,0,0,0,0,,V
Stimulus,canvas.Screen,2_43_0_1,2022-07-15T15:19:41.592Z,,,1,AV,99.8519999999553,timeout,,,560394.6,560392888,560293.13,560294.8,560309809,560409661,,grey,ND07NU02,26,f,4,0,Psychologie,0,0,0,0,0,,V
Reaction,canvas.Screen,2_43_0_2,2022-07-15T15:19:41.717Z,,,1,AV,108.53900000010617,response,stim_detected,mousedown,560519.8,560518.2000000001,560392888,560394.8,560409661,560526.4,,grey,ND07NU02,26,f,4,0,Psychologie,0,0,0,0,0,,V
Trial,flow.Sequence,2_43_0,2022-07-15T15:19:41.717Z,,,1,AV,2343.3360000001267,completion,,,560520.2000000001,560518.2000000001,558158187,558174.3,558174864,560526.4,,grey,ND07NU02,26,f,4,0,Psychologie,0,0,0,0,0,,V
Frame,canvas.Frame,2_43,2022-07-15T15:19:41.718Z,,,1,AV,2345.4360000001034,,,,560520.5,560520.3,558158187,558173.5,558174864,560526.4,,grey,ND07NU02,26,f,4,0,Psychologie,0,0,0,0,0,,V
Fixation,canvas.Screen,2_44_0_0,2022-07-15T15:19:43.743Z,,,0,V,2034.6030000000028,timeout,,,562545.7000000001,562544326,560509723,560521.7000000001,560526.4,562561003,,grey,ND07NU02,26,f,4,0,Psychologie,0,0,0,0,0,,AV
Stimulus,canvas.Screen,2_44_0_1,2022-07-15T15:19:43.843Z,,,0,V,99.97199999995064,timeout,,,562645.6,562644299,562544326,562545.9,562561003,562660975,,grey,ND07NU02,26,f,4,0,Psychologie,0,0,0,0,0,,AV
Reaction,canvas.Screen,2_44_0_2,2022-07-15T15:19:44.012Z,,,0,V,152.82500000006985,response,stim_detected,mousedown,562814.6,562813.8,562644299,562645.8,562660975,562827891,,grey,ND07NU02,26,f,4,0,Psychologie,0,0,0,0,0,,AV
Trial,flow.Sequence,2_44_0,2022-07-15T15:19:44.012Z,,,0,V,2287.4000000000233,completion,,,562814.8,562813.8,560509723,560521.5,560526.4,562827891,,grey,ND07NU02,26,f,4,0,Psychologie,0,0,0,0,0,,AV
Frame,canvas.Frame,2_44,2022-07-15T15:19:44.012Z,,,0,V,2288.5,,,,562815,562814.9,560509723,560520.7000000001,560526.4,562827891,,grey,ND07NU02,26,f,4,0,Psychologie,0,0,0,0,0,,AV
Fixation,canvas.Screen,2_45_0_0,2022-07-15T15:19:45.929Z,,,1,A,1918.780000000028,timeout,,,564731.7000000001,564729986,562811214,562815.5,562827891,564746671,,black,ND07NU02,26,f,4,0,Psychologie,0,0,0,0,0,,V
Stimulus,canvas.Screen,2_45_0_1,2022-07-15T15:19:46.027Z,,,1,A,98.31000000005588,timeout,,,564829.6,564828311,564729986,564732,564746671,564844981,,black,ND07NU02,26,f,4,0,Psychologie,0,0,0,0,0,,V
Reaction,canvas.Screen,2_45_0_2,2022-07-15T15:19:46.160Z,,,1,A,115.91899999999441,response,stim_detected,mousedown,564962.3,564960.9,564828311,564829.9,564844981,564979306,,black,ND07NU02,26,f,4,0,Psychologie,0,0,0,0,0,,V
Trial,flow.Sequence,2_45_0,2022-07-15T15:19:46.160Z,,,1,A,2133.0090000000782,completion,,,564962.8,564960.9,562811214,562815.5,562827891,564979306,,black,ND07NU02,26,f,4,0,Psychologie,0,0,0,0,0,,V
Frame,canvas.Frame,2_45,2022-07-15T15:19:46.160Z,,,1,A,2135.0090000000782,,,,564963.1,564962.9,562811214,562815.1,562827891,564979306,,black,ND07NU02,26,f,4,0,Psychologie,0,0,0,0,0,,V
Fixation,canvas.Screen,2_46_0_0,2022-07-15T15:19:47.995Z,,,1,A,1833.9949999999953,timeout,,,566797.7000000001,566796628,564962629,564964.1,564979306,566813301,,black,ND07NU02,26,f,4,0,Psychologie,0,0,0,0,0,,A
Stimulus,canvas.Screen,2_46_0_1,2022-07-15T15:19:48.096Z,,,1,A,100.49800000002142,timeout,,,566898.8,566897123,566796628,566798.2000000001,566813301,566913799,,black,ND07NU02,26,f,4,0,Psychologie,0,0,0,0,0,,A
Reaction,canvas.Screen,2_46_0_2,2022-07-15T15:19:48.237Z,,,1,A,124.0010000000475,response,stim_detected,mousedown,567039.4,567037.8,566897123,566899.1,566913799,567047327,,black,ND07NU02,26,f,4,0,Psychologie,0,0,0,0,0,,A
Trial,flow.Sequence,2_46_0,2022-07-15T15:19:48.237Z,,,1,A,2058.4940000000643,completion,,,567039.8,567037.8,564962629,564964,564979306,567047327,,black,ND07NU02,26,f,4,0,Psychologie,0,0,0,0,0,,A
Frame,canvas.Frame,2_46,2022-07-15T15:19:48.237Z,,,1,A,2060.594000000041,,,,567040.2000000001,567039.9,564962629,564963.2000000001,564979306,567047327,,black,ND07NU02,26,f,4,0,Psychologie,0,0,0,0,0,,A
Fixation,canvas.Screen,2_47_0_0,2022-07-15T15:19:50.564Z,,,1,A,2334.1809999999823,timeout,,,569366,569364835,567030.65,567041.3,567047327,569381508,,black,ND07NU02,26,f,4,0,Psychologie,0,0,0,0,0,,A
Stimulus,canvas.Screen,2_47_0_1,2022-07-15T15:19:50.665Z,,,1,A,100.61599999992177,timeout,,,569466.8,569465448,569364835,569366.2000000001,569381508,569482124,,black,ND07NU02,26,f,4,0,Psychologie,0,0,0,0,0,,A
Reaction,canvas.Screen,2_47_0_2,2022-07-15T15:19:50.815Z,,,1,A,132.67600000009406,response,stim_detected,mousedown,569616.4,569614.8,569465448,569467.2000000001,569482124,569632282,,black,ND07NU02,26,f,4,0,Psychologie,0,0,0,0,0,,A
Trial,flow.Sequence,2_47_0,2022-07-15T15:19:50.815Z,,,1,A,2567.472999999998,completion,,,569616.9,569614.8,567030.65,567041.2000000001,567047327,569632282,,black,ND07NU02,26,f,4,0,Psychologie,0,0,0,0,0,,A
Frame,canvas.Frame,2_47,2022-07-15T15:19:50.815Z,,,1,A,2569.6729999999516,,,,569617.2000000001,569617,567030.65,567040.4,567047327,569632282,,black,ND07NU02,26,f,4,0,Psychologie,0,0,0,0,0,,A
Fixation,canvas.Screen,2_48_0_0,2022-07-15T15:19:52.918Z,,,1,A,2102.9640000000363,timeout,,,571719.9,571718556,569615605,569618.4,569632282,571735246,,black,ND07NU02,26,f,4,0,Psychologie,0,0,0,0,0,,A
Stimulus,canvas.Screen,2_48_0_1,2022-07-15T15:19:53.016Z,,,1,A,97.93599999998696,timeout,,,571817.4,571816509,571718556,571720.2000000001,571735246,571833182,,black,ND07NU02,26,f,4,0,Psychologie,0,0,0,0,0,,A
Reaction,canvas.Screen,2_48_0_2,2022-07-15T15:19:53.145Z,,,1,A,112.61800000001676,response,stim_detected,mousedown,571947.1,571945.8,571816509,571817.6,571833182,571950501,,black,ND07NU02,26,f,4,0,Psychologie,0,0,0,0,0,,A
Trial,flow.Sequence,2_48_0,2022-07-15T15:19:53.146Z,,,1,A,2313.51800000004,completion,,,571947.6,571945.8,569615605,569618.3,569632282,571950501,,black,ND07NU02,26,f,4,0,Psychologie,0,0,0,0,0,,A
Frame,canvas.Frame,2_48,2022-07-15T15:19:53.146Z,,,1,A,2315.4180000000633,,,,571947.9,571947.7000000001,569615605,569617.4,569632282,571950501,,black,ND07NU02,26,f,4,0,Psychologie,0,0,0,0,0,,A
Fixation,canvas.Screen,2_49_0_0,2022-07-15T15:19:55.367Z,,,0,V,2233.576999999932,timeout,,,574168.9,574167409,571933824,571949.4,571950501,574184078,,grey,ND07NU02,26,f,4,0,Psychologie,0,0,0,0,0,,A
Stimulus,canvas.Screen,2_49_0_1,2022-07-15T15:19:55.468Z,,,0,V,101.33900000003632,timeout,,,574269.8,574268739,574167409,574169.2000000001,574184078,574285417,,grey,ND07NU02,26,f,4,0,Psychologie,0,0,0,0,0,,A
Reaction,canvas.Screen,2_49_0_2,2022-07-15T15:19:56.969Z,,,0,V,1500.863000000012,timeout,,,575771,575769603,574268739,574270.1,574285417,575786.28,,grey,ND07NU02,26,f,4,0,Psychologie,0,0,0,0,0,,A
Trial,flow.Sequence,2_49_0,2022-07-15T15:19:56.970Z,,,0,V,3819.1019999999553,completion,,,575771.3,575769603,571933824,571949.2000000001,571950501,575786.28,,grey,ND07NU02,26,f,4,0,Psychologie,0,0,0,0,0,,A
Frame,canvas.Frame,2_49,2022-07-15T15:19:56.970Z,,,0,V,3820.898999999976,,,,575771.6,575771.4,571933824,571948.1,571950501,575802957,,grey,ND07NU02,26,f,4,0,Psychologie,0,0,0,0,0,,A
Fixation,canvas.Screen,2_50_0_0,2022-07-15T15:19:58.920Z,,,1,AV,1934.469999999972,timeout,,,577722,577720751,575786.28,575772.6,575802957,577737427,,grey,ND07NU02,26,f,4,0,Psychologie,0,0,0,0,0,,V
Stimulus,canvas.Screen,2_50_0_1,2022-07-15T15:19:59.020Z,,,1,AV,100.30099999997765,timeout,,,577821.6,577821044,577720751,577722.2000000001,577737427,577837728,,grey,ND07NU02,26,f,4,0,Psychologie,0,0,0,0,0,,V
Reaction,canvas.Screen,2_50_0_2,2022-07-15T15:19:59.137Z,,,1,AV,99.87199999997392,response,stim_detected,mousedown,577939.2000000001,577937.6,577821044,577821.6,577837728,577954355,,grey,ND07NU02,26,f,4,0,Psychologie,0,0,0,0,0,,V
Trial,flow.Sequence,2_50_0,2022-07-15T15:19:59.138Z,,,1,AV,2134.6429999999236,completion,,,577939.5,577937.6,575786.28,575772.5,575802957,577954355,,grey,ND07NU02,26,f,4,0,Psychologie,0,0,0,0,0,,V
Frame,canvas.Frame,2_50,2022-07-15T15:19:59.138Z,,,1,AV,2136.7430000000168,,,,577939.8,577939.7000000001,575786.28,575771.8,575802957,577954355,,grey,ND07NU02,26,f,4,0,Psychologie,0,0,0,0,0,,V
Fixation,canvas.Screen,2_51_0_0,2022-07-15T15:20:00.806Z,,,1,AV,1668.6570000000065,timeout,,,579608.2000000001,579606326,577937679,577940.9,577954355,579623012,,grey,ND07NU02,26,f,4,0,Psychologie,0,0,0,0,0,,AV
Stimulus,canvas.Screen,2_51_0_1,2022-07-15T15:20:00.905Z,,,1,AV,99.23699999996461,timeout,,,579707,579705539,579606326,579608.4,579623012,579722249,,grey,ND07NU02,26,f,4,0,Psychologie,0,0,0,0,0,,AV
Reaction,canvas.Screen,2_51_0_2,2022-07-15T15:20:01.074Z,,,1,AV,152.2510000000475,response,stim_detected,mousedown,579875.9,579874.5,579705539,579707.4,579722249,579889029,,grey,ND07NU02,26,f,4,0,Psychologie,0,0,0,0,0,,AV
Trial,flow.Sequence,2_51_0,2022-07-15T15:20:01.075Z,,,1,AV,1920.1450000000186,completion,,,579876.4,579874.5,577937679,577940.8,577954355,579889029,,grey,ND07NU02,26,f,4,0,Psychologie,0,0,0,0,0,,AV
Frame,canvas.Frame,2_51,2022-07-15T15:20:01.075Z,,,1,AV,1922.1450000000186,,,,579876.7000000001,579876.5,577937679,577940,577954355,579889029,,grey,ND07NU02,26,f,4,0,Psychologie,0,0,0,0,0,,AV
Fixation,canvas.Screen,2_52_0_0,2022-07-15T15:20:03.156Z,,,0,V,2084.7519999999786,timeout,,,581958.2000000001,581957103,579872351,579877.8,579889029,581973781,,grey,ND07NU02,26,f,4,0,Psychologie,0,0,0,0,0,,AV
Stimulus,canvas.Screen,2_52_0_1,2022-07-15T15:20:03.256Z,,,0,V,100.05400000000373,timeout,,,582058.2000000001,582057157,581957103,581958.5,581973781,582073835,,grey,ND07NU02,26,f,4,0,Psychologie,0,0,0,0,0,,AV
Reaction,canvas.Screen,2_52_0_2,2022-07-15T15:20:03.389Z,,,0,V,115.56500000006054,response,stim_detected,mousedown,582191,582189.4,582057157,582058.4,582073835,582207185,,grey,ND07NU02,26,f,4,0,Psychologie,0,0,0,0,0,,AV
Trial,flow.Sequence,2_52_0,2022-07-15T15:20:03.390Z,,,0,V,2300.371000000043,completion,,,582191.3,582189.4,579872351,579877.7000000001,579889029,582207185,,grey,ND07NU02,26,f,4,0,Psychologie,0,0,0,0,0,,AV
Frame,canvas.Frame,2_52,2022-07-15T15:20:03.390Z,,,0,V,2302.371000000043,,,,582191.7000000001,582191.4,579872351,579876.8,579889029,582207185,,grey,ND07NU02,26,f,4,0,Psychologie,0,0,0,0,0,,AV
Fixation,canvas.Screen,2_53_0_0,2022-07-15T15:20:05.823Z,,,0,V,2433.7419999999693,timeout,,,584625.3,584624257,582190508,582192.8,582207185,584640927,,grey,ND07NU02,26,f,4,0,Psychologie,0,0,0,0,0,,V
Stimulus,canvas.Screen,2_53_0_1,2022-07-15T15:20:05.926Z,,,0,V,101.41099999996368,timeout,,,584727.3,584725659,584624257,584625.5,584640927,584742338,,grey,ND07NU02,26,f,4,0,Psychologie,0,0,0,0,0,,V
Reaction,canvas.Screen,2_53_0_2,2022-07-15T15:20:06.082Z,,,0,V,140.06200000003446,response,stim_detected,mousedown,584884,584882.4,584725659,584727.5,584742338,584908961,,grey,ND07NU02,26,f,4,0,Psychologie,0,0,0,0,0,,V
Trial,flow.Sequence,2_53_0,2022-07-15T15:20:06.083Z,,,0,V,2675.2149999999674,completion,,,584884.4,584882.4,582190508,582192.7000000001,582207185,584908961,,grey,ND07NU02,26,f,4,0,Psychologie,0,0,0,0,0,,V
Frame,canvas.Frame,2_53,2022-07-15T15:20:06.083Z,,,0,V,2677.314999999944,,,,584884.7000000001,584884.5,582190508,582191.8,582207185,584908961,,grey,ND07NU02,26,f,4,0,Psychologie,0,0,0,0,0,,V
Fixation,canvas.Screen,2_54_0_0,2022-07-15T15:20:07.693Z,,,1,AV,1600.89300000004,timeout,,,586494.4,586493178,584875607,584885.9,584908961,586509854,,grey,ND07NU02,26,f,4,0,Psychologie,0,0,0,0,0,,V
Stimulus,canvas.Screen,2_54_0_1,2022-07-15T15:20:07.792Z,,,1,AV,99.75899999996182,timeout,,,586593.9,586592.94,586493178,586494.8,586509854,586609613,,grey,ND07NU02,26,f,4,0,Psychologie,0,0,0,0,0,,V
Reaction,canvas.Screen,2_54_0_2,2022-07-15T15:20:07.936Z,,,1,AV,127.58700000005774,response,stim_detected,mousedown,586737.9,586737.2000000001,586592.94,586594,586609613,586743444,,grey,ND07NU02,26,f,4,0,Psychologie,0,0,0,0,0,,V
Trial,flow.Sequence,2_54_0,2022-07-15T15:20:07.936Z,,,1,AV,1828.2390000000596,completion,,,586738.1,586737.2000000001,584875607,584885.8,584908961,586743444,,grey,ND07NU02,26,f,4,0,Psychologie,0,0,0,0,0,,V
Frame,canvas.Frame,2_54,2022-07-15T15:20:07.936Z,,,1,AV,1829.1389999999665,,,,586738.2000000001,586738.1,584875607,584884.8,584908961,586743444,,grey,ND07NU02,26,f,4,0,Psychologie,0,0,0,0,0,,V
Fixation,canvas.Screen,2_55_0_0,2022-07-15T15:20:09.528Z,,,1,AV,1601.4309999999823,timeout,,,588329.3,588328194,586726767,586738.6,586743444,588344875,,grey,ND07NU02,26,f,4,0,Psychologie,0,0,0,0,0,,AV
Stimulus,canvas.Screen,2_55_0_1,2022-07-15T15:20:09.628Z,,,1,AV,99.73100000002887,timeout,,,588429.3,588427928,588328194,588329.6,588344875,588444606,,grey,ND07NU02,26,f,4,0,Psychologie,0,0,0,0,0,,AV
Reaction,canvas.Screen,2_55_0_2,2022-07-15T15:20:09.772Z,,,1,AV,127.6940000000177,response,stim_detected,mousedown,588573.7000000001,588572.3,588427928,588429.5,588444606,588578016,,grey,ND07NU02,26,f,4,0,Psychologie,0,0,0,0,0,,AV
Trial,flow.Sequence,2_55_0,2022-07-15T15:20:09.772Z,,,1,AV,1828.8560000000289,completion,,,588574.1,588572.3,586726767,586738.6,586743444,588578016,,grey,ND07NU02,26,f,4,0,Psychologie,0,0,0,0,0,,AV
Frame,canvas.Frame,2_55,2022-07-15T15:20:09.773Z,,,1,AV,1830.7560000000522,,,,588574.5,588574.2000000001,586726767,586738.3,586743444,588578016,,grey,ND07NU02,26,f,4,0,Psychologie,0,0,0,0,0,,AV
Fixation,canvas.Screen,2_56_0_0,2022-07-15T15:20:11.312Z,,,0,V,1550.9710000000196,timeout,,,590113.3,590112.31,588561339,588575.6,588578016,590128987,,grey,ND07NU02,26,f,4,0,Psychologie,0,0,0,0,0,,AV
Stimulus,canvas.Screen,2_56_0_1,2022-07-15T15:20:11.404Z,,,0,V,91.98700000008103,timeout,,,590205.4,590204299,590112.31,590113.7000000001,590128987,590220974,,grey,ND07NU02,26,f,4,0,Psychologie,0,0,0,0,0,,AV
Reaction,canvas.Screen,2_56_0_2,2022-07-15T15:20:11.548Z,,,0,V,127.22600000002421,response,stim_detected,mousedown,590349.6,590348.2000000001,590204299,590205.6,590220974,590362509,,grey,ND07NU02,26,f,4,0,Psychologie,0,0,0,0,0,,AV
Trial,flow.Sequence,2_56_0,2022-07-15T15:20:11.548Z,,,0,V,1770.1840000001248,completion,,,590350,590348.2000000001,588561339,588575.5,588578016,590362509,,grey,ND07NU02,26,f,4,0,Psychologie,0,0,0,0,0,,AV
Frame,canvas.Frame,2_56,2022-07-15T15:20:11.549Z,,,0,V,1772.0840000000317,,,,590350.3,590350.1,588561339,588574.6,588578016,590362509,,grey,ND07NU02,26,f,4,0,Psychologie,0,0,0,0,0,,AV
Fixation,canvas.Screen,2_57_0_0,2022-07-15T15:20:13.596Z,,,1,AV,2050.2110000000102,timeout,,,592397.6,592396051,590345832,590351.5,590362509,592412.72,,grey,ND07NU02,26,f,4,0,Psychologie,0,0,0,0,0,,V
Stimulus,canvas.Screen,2_57_0_1,2022-07-15T15:20:13.697Z,,,1,AV,101.20799999998417,timeout,,,592498.6,592497249,592396051,592397.9,592412.72,592513928,,grey,ND07NU02,26,f,4,0,Psychologie,0,0,0,0,0,,V
Reaction,canvas.Screen,2_57_0_2,2022-07-15T15:20:13.804Z,,,1,AV,90.17200000002049,response,stim_detected,mousedown,592605.6,592604.1,592497249,592498.9,592513928,592613941,,grey,ND07NU02,26,f,4,0,Psychologie,0,0,0,0,0,,V
Trial,flow.Sequence,2_57_0,2022-07-15T15:20:13.804Z,,,1,AV,2241.591000000015,completion,,,592606,592604.1,590345832,590351.4,590362509,592613941,,grey,ND07NU02,26,f,4,0,Psychologie,0,0,0,0,0,,V
Frame,canvas.Frame,2_57,2022-07-15T15:20:13.805Z,,,1,AV,2243.591000000015,,,,592606.3,592606.1,590345832,590350.5,590362509,592613941,,grey,ND07NU02,26,f,4,0,Psychologie,0,0,0,0,0,,V
Fixation,canvas.Screen,2_58_0_0,2022-07-15T15:20:15.649Z,,,1,AV,1852.3050000000512,timeout,,,594450.6,594449559,592597264,592607.3,592613941,594466246,,grey,ND07NU02,26,f,4,0,Psychologie,0,0,0,0,0,,AV
Stimulus,canvas.Screen,2_58_0_1,2022-07-15T15:20:15.748Z,,,1,AV,98.99699999997392,timeout,,,594549.5,594548337,594449559,594450.9,594466246,594565243,,grey,ND07NU02,26,f,4,0,Psychologie,0,0,0,0,0,,AV
Reaction,canvas.Screen,2_58_0_2,2022-07-15T15:20:15.893Z,,,1,AV,127.85699999995995,response,stim_detected,mousedown,594694.6,594693.1,594548337,594549.7000000001,594565243,594715336,,grey,ND07NU02,26,f,4,0,Psychologie,0,0,0,0,0,,AV
Trial,flow.Sequence,2_58_0,2022-07-15T15:20:15.893Z,,,1,AV,2079.158999999985,completion,,,594694.9,594693.1,592597264,592607.2000000001,592613941,594715336,,grey,ND07NU02,26,f,4,0,Psychologie,0,0,0,0,0,,AV
Frame,canvas.Frame,2_58,2022-07-15T15:20:15.893Z,,,1,AV,2081.158999999985,,,,594695.3,594695.1,592597264,592606.5,592613941,594715336,,grey,ND07NU02,26,f,4,0,Psychologie,0,0,0,0,0,,AV
Fixation,canvas.Screen,2_59_0_0,2022-07-15T15:20:18.150Z,,,1,AV,2251.5479999999516,timeout,,,596951.7000000001,596950206,594681982,594696.3,594715336,596966884,,grey,ND07NU02,26,f,4,0,Psychologie,0,0,0,0,0,,AV
Stimulus,canvas.Screen,2_59_0_1,2022-07-15T15:20:18.250Z,,,1,AV,99.95100000000093,timeout,,,597052.1,597050158,596950206,596952,596966884,597066835,,grey,ND07NU02,26,f,4,0,Psychologie,0,0,0,0,0,,AV
Reaction,canvas.Screen,2_59_0_2,2022-07-15T15:20:18.371Z,,,1,AV,104.16500000003725,response,stim_detected,mousedown,597172.6,597171,597050158,597052.3,597066835,597183.62,,grey,ND07NU02,26,f,4,0,Psychologie,0,0,0,0,0,,AV
Trial,flow.Sequence,2_59_0,2022-07-15T15:20:18.371Z,,,1,AV,2455.6639999999898,completion,,,597172.9,597171,594681982,594696.2000000001,594715336,597183.62,,grey,ND07NU02,26,f,4,0,Psychologie,0,0,0,0,0,,AV
Frame,canvas.Frame,2_59,2022-07-15T15:20:18.372Z,,,1,AV,2457.7639999999665,,,,597173.3,597173.1,594681982,594695.4,594715336,597183.62,,grey,ND07NU02,26,f,4,0,Psychologie,0,0,0,0,0,,AV
Fixation,canvas.Screen,2_60_0_0,2022-07-15T15:20:20.418Z,,,1,A,2051.4159999999683,timeout,,,599219.7000000001,599218358,597166943,597174.3,597183.62,599235036,,black,ND07NU02,26,f,4,0,Psychologie,0,0,0,0,0,,AV
Stimulus,canvas.Screen,2_60_0_1,2022-07-15T15:20:20.518Z,,,1,A,99.89600000006612,timeout,,,599319.6,599318256,599218358,599219.9,599235036,599334932,,black,ND07NU02,26,f,4,0,Psychologie,0,0,0,0,0,,AV
Reaction,canvas.Screen,2_60_0_2,2022-07-15T15:20:20.703Z,,,1,A,168.0679999999702,response,stim_detected,mousedown,599504.5,599503,599318256,599319.9,599334932,599518467,,black,ND07NU02,26,f,4,0,Psychologie,0,0,0,0,0,,AV
Trial,flow.Sequence,2_60_0,2022-07-15T15:20:20.703Z,,,1,A,2319.3800000000047,completion,,,599504.8,599503,597166943,597174.2000000001,597183.62,599518467,,black,ND07NU02,26,f,4,0,Psychologie,0,0,0,0,0,,AV
Frame,canvas.Frame,2_60,2022-07-15T15:20:20.703Z,,,1,A,2321.3800000000047,,,,599505.2000000001,599505,597166943,597173.4,597183.62,599518467,,black,ND07NU02,26,f,4,0,Psychologie,0,0,0,0,0,,AV
Fixation,canvas.Screen,2_61_0_0,2022-07-15T15:20:23.120Z,,,1,AV,2419.106000000029,timeout,,,601921.9,601920.89,599501.79,599506.2000000001,599518467,601937573,,grey,ND07NU02,26,f,4,0,Psychologie,0,0,0,0,0,,A
Stimulus,canvas.Screen,2_61_0_1,2022-07-15T15:20:23.219Z,,,1,AV,99.11200000008103,timeout,,,602020.9,602020009,601920.89,601922.1,601937573,602036685,,grey,ND07NU02,26,f,4,0,Psychologie,0,0,0,0,0,,A
Reaction,canvas.Screen,2_61_0_2,2022-07-15T15:20:23.327Z,,,1,AV,90.31499999994412,response,stim_detected,mousedown,602128.5,602127,602020009,602021.2000000001,602036685,602136831,,grey,ND07NU02,26,f,4,0,Psychologie,0,0,0,0,0,,A
Trial,flow.Sequence,2_61_0,2022-07-15T15:20:23.327Z,,,1,AV,2608.533000000054,completion,,,602128.9,602127,599501.79,599506.1,599518467,602136831,,grey,ND07NU02,26,f,4,0,Psychologie,0,0,0,0,0,,A
Frame,canvas.Frame,2_61,2022-07-15T15:20:23.327Z,,,1,AV,2610.533000000054,,,,602129.1,602129,599501.79,599505.4,599518467,602136831,,grey,ND07NU02,26,f,4,0,Psychologie,0,0,0,0,0,,A
Fixation,canvas.Screen,2_62_0_0,2022-07-15T15:20:25.188Z,,,1,A,1868.439000000013,timeout,,,603989.8,603988588,602120154,602130.4,602136831,604005.27,,black,ND07NU02,26,f,4,0,Psychologie,0,0,0,0,0,,AV
Stimulus,canvas.Screen,2_62_0_1,2022-07-15T15:20:25.288Z,,,1,A,99.60999999998603,timeout,,,604089.8,604088202,603988588,603990,604005.27,604104.88,,black,ND07NU02,26,f,4,0,Psychologie,0,0,0,0,0,,AV
Reaction,canvas.Screen,2_62_0_2,2022-07-15T15:20:25.503Z,,,1,A,198.02000000001863,response,stim_detected,mousedown,604304.3,604302.9,604088202,604090.2000000001,604104.88,604321601,,black,ND07NU02,26,f,4,0,Psychologie,0,0,0,0,0,,AV
Trial,flow.Sequence,2_62_0,2022-07-15T15:20:25.503Z,,,1,A,2166.0690000000177,completion,,,604304.7000000001,604302.9,602120154,602130.3,602136831,604321601,,black,ND07NU02,26,f,4,0,Psychologie,0,0,0,0,0,,AV
Frame,canvas.Frame,2_62,2022-07-15T15:20:25.503Z,,,1,A,2168.0690000000177,,,,604305,604304.9,602120154,602129.3,602136831,604321601,,black,ND07NU02,26,f,4,0,Psychologie,0,0,0,0,0,,AV
Fixation,canvas.Screen,2_63_0_0,2022-07-15T15:20:27.289Z,,,1,AV,1784.6990000000224,timeout,,,606091,606089621,604304924,604306.2000000001,604321601,606106.3,,grey,ND07NU02,26,f,4,0,Psychologie,0,0,0,0,0,,A
Stimulus,canvas.Screen,2_63_0_1,2022-07-15T15:20:27.389Z,,,1,AV,99.84099999989849,timeout,,,606190.6,606189464,606089621,606091.3,606106.3,606206141,,grey,ND07NU02,26,f,4,0,Psychologie,0,0,0,0,0,,A
Reaction,canvas.Screen,2_63_0_2,2022-07-15T15:20:27.510Z,,,1,AV,104.65900000010151,response,stim_detected,mousedown,606312.2000000001,606310.8,606189464,606191,606206141,606322866,,grey,ND07NU02,26,f,4,0,Psychologie,0,0,0,0,0,,A
Trial,flow.Sequence,2_63_0,2022-07-15T15:20:27.511Z,,,1,AV,1989.1990000000224,completion,,,606312.6,606310.8,604304924,604306,604321601,606322866,,grey,ND07NU02,26,f,4,0,Psychologie,0,0,0,0,0,,A
Frame,canvas.Frame,2_63,2022-07-15T15:20:27.511Z,,,1,AV,1991.0990000000456,,,,606313,606312.7000000001,604304924,604305.2000000001,604321601,606322866,,grey,ND07NU02,26,f,4,0,Psychologie,0,0,0,0,0,,A
Fixation,canvas.Screen,2_64_0_0,2022-07-15T15:20:29.091Z,,,1,A,1585.548999999999,timeout,,,607892.8,607891726,606306.19,606314,606322866,607908415,,black,ND07NU02,26,f,4,0,Psychologie,0,0,0,0,0,,AV
Stimulus,canvas.Screen,2_64_0_1,2022-07-15T15:20:29.190Z,,,1,A,98.91599999996834,timeout,,,607992,607990654,607891726,607893,607908415,608007331,,black,ND07NU02,26,f,4,0,Psychologie,0,0,0,0,0,,AV
Reaction,canvas.Screen,2_64_0_2,2022-07-15T15:20:29.361Z,,,1,A,154.36900000006426,response,stim_detected,mousedown,608163.2000000001,608161.7000000001,607990654,607992.2000000001,608007331,608174056,,black,ND07NU02,26,f,4,0,Psychologie,0,0,0,0,0,,AV
Trial,flow.Sequence,2_64_0,2022-07-15T15:20:29.362Z,,,1,A,1838.8340000000317,completion,,,608163.7000000001,608161.7000000001,606306.19,606314,606322866,608174056,,black,ND07NU02,26,f,4,0,Psychologie,0,0,0,0,0,,AV
Frame,canvas.Frame,2_64,2022-07-15T15:20:29.362Z,,,1,A,1840.9340000000084,,,,608163.9,608163.8,606306.19,606313.1,606322866,608174056,,black,ND07NU02,26,f,4,0,Psychologie,0,0,0,0,0,,AV
Fixation,canvas.Screen,2_65_0_0,2022-07-15T15:20:30.976Z,,,1,A,1619.0380000000587,timeout,,,609778,609776404,608157.38,608164.9,608174056,609793094,,black,ND07NU02,26,f,4,0,Psychologie,0,0,0,0,0,,A
Stimulus,canvas.Screen,2_65_0_1,2022-07-15T15:20:31.075Z,,,1,A,98.79699999990407,timeout,,,609877,609875214,609776404,609778.4,609793094,609891891,,black,ND07NU02,26,f,4,0,Psychologie,0,0,0,0,0,,A
Reaction,canvas.Screen,2_65_0_2,2022-07-15T15:20:31.224Z,,,1,A,131.8090000001248,response,stim_detected,mousedown,610025.3,610023.7000000001,609875214,609877.3,609891891,610041948,,black,ND07NU02,26,f,4,0,Psychologie,0,0,0,0,0,,A
Trial,flow.Sequence,2_65_0,2022-07-15T15:20:31.224Z,,,1,A,1849.6440000000875,completion,,,610025.7000000001,610023.7000000001,608157.38,608164.8,608174056,610041948,,black,ND07NU02,26,f,4,0,Psychologie,0,0,0,0,0,,A
Frame,canvas.Frame,2_65,2022-07-15T15:20:31.224Z,,,1,A,1851.7440000000643,,,,610026,610025.8,608157.38,608164.1,608174056,610041948,,black,ND07NU02,26,f,4,0,Psychologie,0,0,0,0,0,,A
Fixation,canvas.Screen,2_66_0_0,2022-07-15T15:20:32.793Z,,,1,AV,1569.045000000042,timeout,,,611595,611594302,610025272,610027,610041948,611610993,,grey,ND07NU02,26,f,4,0,Psychologie,0,0,0,0,0,,A
Stimulus,canvas.Screen,2_66_0_1,2022-07-15T15:20:32.892Z,,,1,AV,98.6589999999851,timeout,,,611693.9,611692976,611594302,611595.4,611610993,611709652,,grey,ND07NU02,26,f,4,0,Psychologie,0,0,0,0,0,,A
Reaction,canvas.Screen,2_66_0_2,2022-07-15T15:20:33.031Z,,,1,AV,121.94799999997485,response,stim_detected,mousedown,611833.1,611831.6,611692976,611694.3,611709652,611843.18,,grey,ND07NU02,26,f,4,0,Psychologie,0,0,0,0,0,,A
Trial,flow.Sequence,2_66_0,2022-07-15T15:20:33.032Z,,,1,AV,1789.6520000000019,completion,,,611833.5,611831.6,610025272,610026.9,610041948,611843.18,,grey,ND07NU02,26,f,4,0,Psychologie,0,0,0,0,0,,A
Frame,canvas.Frame,2_66,2022-07-15T15:20:33.032Z,,,1,AV,1791.752000000095,,,,611833.8,611833.7000000001,610025272,610026.2000000001,610041948,611843.18,,grey,ND07NU02,26,f,4,0,Psychologie,0,0,0,0,0,,A
Fixation,canvas.Screen,2_67_0_0,2022-07-15T15:20:34.927Z,,,0,V,1900.9349999999395,timeout,,,613729.1,613727.44,611826503,611834.8,611843.18,613744115,,grey,ND07NU02,26,f,4,0,Psychologie,0,0,0,0,0,,AV
Stimulus,canvas.Screen,2_67_0_1,2022-07-15T15:20:35.047Z,,,0,V,100.38300000003073,timeout,,,613848.5000000001,613827821,613727.44,613729.4,613744115,613844498,,grey,ND07NU02,26,f,4,0,Psychologie,0,0,0,0,0,,AV
Reaction,canvas.Screen,2_67_0_2,2022-07-15T15:20:35.195Z,,,0,V,150.90200000000186,response,stim_detected,mousedown,613996.7999999999,613995.4,613827821,613848.7999999999,613844498,614011226,,grey,ND07NU02,26,f,4,0,Psychologie,0,0,0,0,0,,AV
Trial,flow.Sequence,2_67_0,2022-07-15T15:20:35.195Z,,,0,V,2152.219999999972,completion,,,613997.2000000001,613995.4,611826503,611834.8,611843.18,614011226,,grey,ND07NU02,26,f,4,0,Psychologie,0,0,0,0,0,,AV
Frame,canvas.Frame,2_67,2022-07-15T15:20:35.196Z,,,0,V,2154.119999999879,,,,613997.4,613997.2999999999,611826503,611834,611843.18,614011226,,grey,ND07NU02,26,f,4,0,Psychologie,0,0,0,0,0,,AV
Fixation,canvas.Screen,2_68_0_0,2022-07-15T15:20:37.578Z,,,1,A,2384.3469999999506,timeout,,,616380.1,616378899,613994549,613998.2999999999,614011226,616395573,,black,ND07NU02,26,f,4,0,Psychologie,0,0,0,0,0,,V
Stimulus,canvas.Screen,2_68_0_1,2022-07-15T15:20:37.679Z,,,1,A,100.63699999998789,timeout,,,616481.0000000001,616479529,616378899,616380.4,616395573,616496.21,,black,ND07NU02,26,f,4,0,Psychologie,0,0,0,0,0,,V
Reaction,canvas.Screen,2_68_0_2,2022-07-15T15:20:37.818Z,,,1,A,122.39000000001397,response,stim_detected,mousedown,616619.7999999999,616618.6,616479529,616481.2000000001,616496.21,616629595,,black,ND07NU02,26,f,4,0,Psychologie,0,0,0,0,0,,V
Trial,flow.Sequence,2_68_0,2022-07-15T15:20:37.818Z,,,1,A,2607.3739999999525,completion,,,616620.1,616618.6,613994549,613998.1,614011226,616629595,,black,ND07NU02,26,f,4,0,Psychologie,0,0,0,0,0,,V
Frame,canvas.Frame,2_68,2022-07-15T15:20:37.819Z,,,1,A,2608.9740000000456,,,,616620.4,616620.2000000001,613994549,613997.5000000001,614011226,616629595,,black,ND07NU02,26,f,4,0,Psychologie,0,0,0,0,0,,V
Fixation,canvas.Screen,2_69_0_0,2022-07-15T15:20:39.648Z,,,0,V,1835.6539999999804,timeout,,,618450.0000000001,618448562,616612918,616621.4,616629595,618465249,,grey,ND07NU02,26,f,4,0,Psychologie,0,0,0,0,0,,A
Stimulus,canvas.Screen,2_69_0_1,2022-07-15T15:20:39.747Z,,,0,V,98.15900000010151,timeout,,,618548.5000000001,618546738,618448562,618450.1,618465249,618563408,,grey,ND07NU02,26,f,4,0,Psychologie,0,0,0,0,0,,A
Reaction,canvas.Screen,2_69_0_2,2022-07-15T15:20:39.965Z,,,0,V,202.0920000000624,response,stim_detected,mousedown,618767.0000000001,618765.5000000001,618546738,618548.7000000001,618563408,618780994,,grey,ND07NU02,26,f,4,0,Psychologie,0,0,0,0,0,,A
Trial,flow.Sequence,2_69_0,2022-07-15T15:20:39.966Z,,,0,V,2135.9050000001444,completion,,,618767.4,618765.5000000001,616612918,616621.2999999999,616629595,618780994,,grey,ND07NU02,26,f,4,0,Psychologie,0,0,0,0,0,,A
Frame,canvas.Frame,2_69,2022-07-15T15:20:39.966Z,,,0,V,2138.0050000000047,,,,618767.7000000001,618767.6,616612918,616620.5000000001,616629595,618780994,,grey,ND07NU02,26,f,4,0,Psychologie,0,0,0,0,0,,A
Fixation,canvas.Screen,2_70_0_0,2022-07-15T15:20:41.949Z,,,1,A,1984.9820000000764,timeout,,,620750.4,620749296,618764317,618768.9,618780994,620765976,,black,ND07NU02,26,f,4,0,Psychologie,0,0,0,0,0,,V
Stimulus,canvas.Screen,2_70_0_1,2022-07-15T15:20:42.049Z,,,1,A,99.84499999997206,timeout,,,620850.5000000001,620849143,620749296,620750.6,620765976,620865821,,black,ND07NU02,26,f,4,0,Psychologie,0,0,0,0,0,,V
Reaction,canvas.Screen,2_70_0_2,2022-07-15T15:20:42.177Z,,,1,A,111.57900000002701,response,stim_detected,mousedown,620979.0000000001,620977.4,620849143,620850.7000000001,620865821,620999138,,black,ND07NU02,26,f,4,0,Psychologie,0,0,0,0,0,,V
Trial,flow.Sequence,2_70_0,2022-07-15T15:20:42.178Z,,,1,A,2196.4060000000754,completion,,,620979.4,620977.4,618764317,618768.7999999999,618780994,620999138,,black,ND07NU02,26,f,4,0,Psychologie,0,0,0,0,0,,V
Frame,canvas.Frame,2_70,2022-07-15T15:20:42.178Z,,,1,A,2198.5060000001686,,,,620979.6,620979.5000000001,618764317,618767.9,618780994,620999138,,black,ND07NU02,26,f,4,0,Psychologie,0,0,0,0,0,,V
Fixation,canvas.Screen,2_71_0_0,2022-07-15T15:20:44.418Z,,,0,V,2235.6990000000224,timeout,,,623219.4,623218153,620965784,620980.7000000001,620999138,623234837,,grey,ND07NU02,26,f,4,0,Psychologie,0,0,0,0,0,,A
Stimulus,canvas.Screen,2_71_0_1,2022-07-15T15:20:44.517Z,,,0,V,98.76499999989755,timeout,,,623318.5000000001,623316928,623218153,623219.7999999999,623234837,623333602,,grey,ND07NU02,26,f,4,0,Psychologie,0,0,0,0,0,,A
Reaction,canvas.Screen,2_71_0_2,2022-07-15T15:20:44.681Z,,,0,V,147.798000000068,response,stim_detected,mousedown,623482.7999999999,623481.4,623316928,623318.7999999999,623333602,623500736,,grey,ND07NU02,26,f,4,0,Psychologie,0,0,0,0,0,,A
Trial,flow.Sequence,2_71_0,2022-07-15T15:20:44.681Z,,,0,V,2482.261999999988,completion,,,623483.2999999999,623481.4,620965784,620980.6,620999138,623500736,,grey,ND07NU02,26,f,4,0,Psychologie,0,0,0,0,0,,A
Frame,canvas.Frame,2_71,2022-07-15T15:20:44.682Z,,,0,V,2484.261999999988,,,,623483.6,623483.4,620965784,620979.7999999999,620999138,623500736,,grey,ND07NU02,26,f,4,0,Psychologie,0,0,0,0,0,,A
Fixation,canvas.Screen,2_72_0_0,2022-07-15T15:20:47.120Z,,,1,AV,2435.954999999958,timeout,,,625921.5000000001,625920007,623484059,623485.1,623500736,625936691,,grey,ND07NU02,26,f,4,0,Psychologie,0,0,0,0,0,,V
Stimulus,canvas.Screen,2_72_0_1,2022-07-15T15:20:47.219Z,,,1,AV,98.94599999999627,timeout,,,626020.6,626018961,625920007,625921.9,625936691,626035637,,grey,ND07NU02,26,f,4,0,Psychologie,0,0,0,0,0,,V
Reaction,canvas.Screen,2_72_0_2,2022-07-15T15:20:47.379Z,,,1,AV,143.86300000012852,response,stim_detected,mousedown,626181.0000000001,626179.5000000001,626018961,626020.7000000001,626035637,626185875,,grey,ND07NU02,26,f,4,0,Psychologie,0,0,0,0,0,,V
Trial,flow.Sequence,2_72_0,2022-07-15T15:20:47.380Z,,,1,AV,2678.764000000083,completion,,,626181.2000000001,626179.5000000001,623484059,623485.0000000001,623500736,626185875,,grey,ND07NU02,26,f,4,0,Psychologie,0,0,0,0,0,,V
Frame,canvas.Frame,2_72,2022-07-15T15:20:47.380Z,,,1,AV,2680.6639999999898,,,,626181.6,626181.4,623484059,623483.7000000001,623500736,626185875,,grey,ND07NU02,26,f,4,0,Psychologie,0,0,0,0,0,,V
Fixation,canvas.Screen,2_73_0_0,2022-07-15T15:20:49.353Z,,,1,A,1984.3149999999441,timeout,,,628154.6,628153515,626169198,626182.7000000001,626185875,628170.19,,black,ND07NU02,26,f,4,0,Psychologie,0,0,0,0,0,,AV
Stimulus,canvas.Screen,2_73_0_1,2022-07-15T15:20:49.453Z,,,1,A,100.33900000003632,timeout,,,628254.7000000001,628253.79,628153515,628154.9,628170.19,628270529,,black,ND07NU02,26,f,4,0,Psychologie,0,0,0,0,0,,AV
Reaction,canvas.Screen,2_73_0_2,2022-07-15T15:20:49.620Z,,,1,A,149.6710000000894,response,stim_detected,mousedown,628421.7000000001,628420.2000000001,628253.79,628254.9,628270529,628437299,,black,ND07NU02,26,f,4,0,Psychologie,0,0,0,0,0,,AV
Trial,flow.Sequence,2_73_0,2022-07-15T15:20:49.620Z,,,1,A,2234.32500000007,completion,,,628422.1,628420.2000000001,626169198,626182.6,626185875,628437299,,black,ND07NU02,26,f,4,0,Psychologie,0,0,0,0,0,,AV
Frame,canvas.Frame,2_73,2022-07-15T15:20:49.621Z,,,1,A,2236.32500000007,,,,628422.2999999999,628422.2000000001,626169198,626181.7999999999,626185875,628437299,,black,ND07NU02,26,f,4,0,Psychologie,0,0,0,0,0,,AV
Fixation,canvas.Screen,2_74_0_0,2022-07-15T15:20:51.306Z,,,0,V,1684.5069999999832,timeout,,,630106.6,630105128,628420622,628423.4,628437299,630121806,,grey,ND07NU02,26,f,4,0,Psychologie,0,0,0,0,0,,A
Stimulus,canvas.Screen,2_74_0_1,2022-07-15T15:20:51.406Z,,,0,V,100.01800000004005,timeout,,,630206.7000000001,630205147,630105128,630106.7999999999,630121806,630221824,,grey,ND07NU02,26,f,4,0,Psychologie,0,0,0,0,0,,A
Reaction,canvas.Screen,2_74_0_2,2022-07-15T15:20:51.736Z,,,0,V,312.3760000000475,response,stim_detected,mousedown,630535.7000000001,630534.2000000001,630205147,630206.9,630221824,630555393,,grey,ND07NU02,26,f,4,0,Psychologie,0,0,0,0,0,,A
Trial,flow.Sequence,2_74_0,2022-07-15T15:20:51.736Z,,,0,V,2096.901000000071,completion,,,630536.0000000001,630534.2000000001,628420622,628423.2999999999,628437299,630555393,,grey,ND07NU02,26,f,4,0,Psychologie,0,0,0,0,0,,A
Frame,canvas.Frame,2_74,2022-07-15T15:20:51.736Z,,,0,V,2098.901000000071,,,,630536.2999999999,630536.2000000001,628420622,628422.6,628437299,630555393,,grey,ND07NU02,26,f,4,0,Psychologie,0,0,0,0,0,,A
Fixation,canvas.Screen,2_75_0_0,2022-07-15T15:20:53.441Z,,,1,A,1700.8040000000037,timeout,,,632240.7000000001,632239522,630522039,630537.6,630555393,632256197,,black,ND07NU02,26,f,4,0,Psychologie,0,0,0,0,0,,V
Stimulus,canvas.Screen,2_75_0_1,2022-07-15T15:20:53.541Z,,,1,A,100.00699999998324,timeout,,,632340.7000000001,632339.53,632239522,632241.1,632256197,632356204,,black,ND07NU02,26,f,4,0,Psychologie,0,0,0,0,0,,V
Reaction,canvas.Screen,2_75_0_2,2022-07-15T15:20:53.689Z,,,1,A,131.8959999999497,response,stim_detected,mousedown,632489.7000000001,632488.1,632339.53,632341.0000000001,632356204,632506609,,black,ND07NU02,26,f,4,0,Psychologie,0,0,0,0,0,,V
Trial,flow.Sequence,2_75_0,2022-07-15T15:20:53.690Z,,,1,A,1932.7069999999367,completion,,,632490.1,632488.1,630522039,630537.5000000001,630555393,632506609,,black,ND07NU02,26,f,4,0,Psychologie,0,0,0,0,0,,V
Frame,canvas.Frame,2_75,2022-07-15T15:20:53.690Z,,,1,A,1934.90699999989,,,,632490.4,632490.2999999999,630522039,630536.6,630555393,632506609,,black,ND07NU02,26,f,4,0,Psychologie,0,0,0,0,0,,V
Fixation,canvas.Screen,2_76_0_0,2022-07-15T15:20:55.576Z,,,1,A,1884.9899999999907,timeout,,,634375.7999999999,634374918,632489932,632491.9,632506609,634391599,,black,ND07NU02,26,f,4,0,Psychologie,0,0,0,0,0,,A
Stimulus,canvas.Screen,2_76_0_1,2022-07-15T15:20:55.676Z,,,1,A,99.67599999997765,timeout,,,634475.7000000001,634474598,634374918,634376.0000000001,634391599,634491275,,black,ND07NU02,26,f,4,0,Psychologie,0,0,0,0,0,,A
Reaction,canvas.Screen,2_76_0_2,2022-07-15T15:20:55.855Z,,,1,A,162.82499999995343,response,stim_detected,mousedown,634655.5000000001,634654.1,634474598,634476.1,634491275,634658044,,black,ND07NU02,26,f,4,0,Psychologie,0,0,0,0,0,,A
Trial,flow.Sequence,2_76_0,2022-07-15T15:20:55.856Z,,,1,A,2147.4909999999218,completion,,,634656.0000000001,634654.1,632489932,632491.7000000001,632506609,634658044,,black,ND07NU02,26,f,4,0,Psychologie,0,0,0,0,0,,A
Frame,canvas.Frame,2_76,2022-07-15T15:20:55.856Z,,,1,A,2149.591000000015,,,,634656.4,634656.2000000001,632489932,632490.6,632506609,634658044,,black,ND07NU02,26,f,4,0,Psychologie,0,0,0,0,0,,A
Fixation,canvas.Screen,2_77_0_0,2022-07-15T15:20:57.578Z,,,0,V,1734.939000000013,timeout,,,636377.7000000001,636376301,634641367,634657.7000000001,634658044,636392983,,grey,ND07NU02,26,f,4,0,Psychologie,0,0,0,0,0,,A
Stimulus,canvas.Screen,2_77_0_1,2022-07-15T15:20:57.677Z,,,0,V,99.38000000000466,timeout,,,636476.7999999999,636475688,636376301,636377.9,636392983,636492363,,grey,ND07NU02,26,f,4,0,Psychologie,0,0,0,0,0,,A
Reaction,canvas.Screen,2_77_0_2,2022-07-15T15:20:57.816Z,,,0,V,122.63700000010431,response,stim_detected,mousedown,636616.6,636615.0000000001,636475688,636477.0000000001,636492363,636626.01,,grey,ND07NU02,26,f,4,0,Psychologie,0,0,0,0,0,,A
Trial,flow.Sequence,2_77_0,2022-07-15T15:20:57.817Z,,,0,V,1956.956000000122,completion,,,636617.1,636615.0000000001,634641367,634657.6,634658044,636626.01,,grey,ND07NU02,26,f,4,0,Psychologie,0,0,0,0,0,,A
Frame,canvas.Frame,2_77,2022-07-15T15:20:57.817Z,,,0,V,1959.2559999999357,,,,636617.5000000001,636617.2999999999,634641367,634656.7000000001,634658044,636626.01,,grey,ND07NU02,26,f,4,0,Psychologie,0,0,0,0,0,,A
Fixation,canvas.Screen,2_78_0_0,2022-07-15T15:20:59.911Z,,,1,A,2100.628999999957,timeout,,,638711.0000000001,638709967,636609333,636618.5000000001,636626.01,638726639,,black,ND07NU02,26,f,4,0,Psychologie,0,0,0,0,0,,V
Stimulus,canvas.Screen,2_78_0_1,2022-07-15T15:21:00.012Z,,,1,A,100.68900000001304,timeout,,,638811.9,638810652,638709967,638711.2000000001,638726639,638827328,,black,ND07NU02,26,f,4,0,Psychologie,0,0,0,0,0,,V
Reaction,canvas.Screen,2_78_0_2,2022-07-15T15:21:00.149Z,,,1,A,120.6720000001369,response,stim_detected,mousedown,638949.4,638948.0000000001,638810652,638812.1,638827328,638960852,,black,ND07NU02,26,f,4,0,Psychologie,0,0,0,0,0,,V
Trial,flow.Sequence,2_78_0,2022-07-15T15:21:00.150Z,,,1,A,2321.990000000107,completion,,,638949.7999999999,638948.0000000001,636609333,636618.4,636626.01,638960852,,black,ND07NU02,26,f,4,0,Psychologie,0,0,0,0,0,,V
Frame,canvas.Frame,2_78,2022-07-15T15:21:00.150Z,,,1,A,2323.890000000014,,,,638950.1,638949.9,636609333,636617.7000000001,636626.01,638960852,,black,ND07NU02,26,f,4,0,Psychologie,0,0,0,0,0,,V
Fixation,canvas.Screen,2_79_0_0,2022-07-15T15:21:01.897Z,,,1,A,1751.5050000000047,timeout,,,640697.2000000001,640695676,638944175,638951.1,638960852,640712357,,black,ND07NU02,26,f,4,0,Psychologie,0,0,0,0,0,,A
Stimulus,canvas.Screen,2_79_0_1,2022-07-15T15:21:01.997Z,,,1,A,99.88600000005681,timeout,,,640797.0000000001,640795562,640695676,640697.5000000001,640712357,640812243,,black,ND07NU02,26,f,4,0,Psychologie,0,0,0,0,0,,A
Reaction,canvas.Screen,2_79_0_2,2022-07-15T15:21:02.194Z,,,1,A,180.5569999999134,response,stim_detected,mousedown,640994.4,640992.7999999999,640795562,640797.2000000001,640812243,641012201,,black,ND07NU02,26,f,4,0,Psychologie,0,0,0,0,0,,A
Trial,flow.Sequence,2_79_0,2022-07-15T15:21:02.195Z,,,1,A,2031.9479999999749,completion,,,640994.7999999999,640992.7999999999,638944175,638951.0000000001,638960852,641012201,,black,ND07NU02,26,f,4,0,Psychologie,0,0,0,0,0,,A
Frame,canvas.Frame,2_79,2022-07-15T15:21:02.195Z,,,1,A,2034.048000000068,,,,640995.1,640994.9,638944175,638950.2999999999,638960852,641012201,,black,ND07NU02,26,f,4,0,Psychologie,0,0,0,0,0,,A
Fixation,canvas.Screen,2_80_0_0,2022-07-15T15:21:04.031Z,,,0,V,1834.6030000000028,timeout,,,642831.1,642830126,640995524,640996.2000000001,641012201,642846804,,grey,ND07NU02,26,f,4,0,Psychologie,0,0,0,0,0,,A
Stimulus,canvas.Screen,2_80_0_1,2022-07-15T15:21:04.131Z,,,0,V,99.80000000004657,timeout,,,642931.0000000001,642929929,642830126,642831.4,642846804,642946604,,grey,ND07NU02,26,f,4,0,Psychologie,0,0,0,0,0,,A
Reaction,canvas.Screen,2_80_0_2,2022-07-15T15:21:04.278Z,,,0,V,130.19599999987986,response,stim_detected,mousedown,643078.2999999999,643076.7999999999,642929929,642931.2000000001,642946604,643080205,,grey,ND07NU02,26,f,4,0,Psychologie,0,0,0,0,0,,A
Trial,flow.Sequence,2_80_0,2022-07-15T15:21:04.279Z,,,0,V,2064.598999999929,completion,,,643078.7000000001,643076.7999999999,640995524,640996.1,641012201,643080205,,grey,ND07NU02,26,f,4,0,Psychologie,0,0,0,0,0,,A
Frame,canvas.Frame,2_80,2022-07-15T15:21:04.279Z,,,0,V,2066.6990000000224,,,,643079.0000000001,643078.9,640995524,640995.2999999999,641012201,643080205,,grey,ND07NU02,26,f,4,0,Psychologie,0,0,0,0,0,,A
Fixation,canvas.Screen,2_81_0_0,2022-07-15T15:21:06.667Z,,,1,A,2401.908999999985,timeout,,,645467.1,645465434,643063528,643080.4,643080205,645482114,,black,ND07NU02,26,f,4,0,Psychologie,0,0,0,0,0,,V
Stimulus,canvas.Screen,2_81_0_1,2022-07-15T15:21:06.765Z,,,1,A,98.752000000095,timeout,,,645565.1,645564195,645465434,645467.4,645482114,645580866,,black,ND07NU02,26,f,4,0,Psychologie,0,0,0,0,0,,V
Reaction,canvas.Screen,2_81_0_2,2022-07-15T15:21:06.905Z,,,1,A,122.93399999989197,response,stim_detected,mousedown,645705.2000000001,645703.7999999999,645564195,645565.4,645580866,645715258,,black,ND07NU02,26,f,4,0,Psychologie,0,0,0,0,0,,V
Trial,flow.Sequence,2_81_0,2022-07-15T15:21:06.905Z,,,1,A,2623.594999999972,completion,,,645705.6,645703.7999999999,643063528,643080.1,643080205,645715258,,black,ND07NU02,26,f,4,0,Psychologie,0,0,0,0,0,,V
Frame,canvas.Frame,2_81,2022-07-15T15:21:06.906Z,,,1,A,2625.4950000001118,,,,645705.9,645705.7000000001,643063528,643079.2999999999,643080205,645715258,,black,ND07NU02,26,f,4,0,Psychologie,0,0,0,0,0,,V
Fixation,canvas.Screen,2_82_0_0,2022-07-15T15:21:08.567Z,,,1,AV,1667.4769999999553,timeout,,,647367.2000000001,647366.06,645698581,645707.2999999999,645715258,647382735,,grey,ND07NU02,26,f,4,0,Psychologie,0,0,0,0,0,,A
Stimulus,canvas.Screen,2_82_0_1,2022-07-15T15:21:08.668Z,,,1,AV,100.34799999999814,timeout,,,647468.2000000001,647466395,647366.06,647367.5000000001,647382735,647483083,,grey,ND07NU02,26,f,4,0,Psychologie,0,0,0,0,0,,A
Reaction,canvas.Screen,2_82_0_2,2022-07-15T15:21:08.800Z,,,1,AV,115.71699999994598,response,stim_detected,mousedown,647600.2000000001,647598.7999999999,647466395,647468.4,647483083,647616499,,grey,ND07NU02,26,f,4,0,Psychologie,0,0,0,0,0,,A
Trial,flow.Sequence,2_82_0,2022-07-15T15:21:08.800Z,,,1,AV,1883.5419999998994,completion,,,647600.6,647598.7999999999,645698581,645707.2000000001,645715258,647616499,,grey,ND07NU02,26,f,4,0,Psychologie,0,0,0,0,0,,A
Frame,canvas.Frame,2_82,2022-07-15T15:21:08.801Z,,,1,AV,1885.4420000000391,,,,647600.9,647600.7000000001,645698581,645706.1,645715258,647616499,,grey,ND07NU02,26,f,4,0,Psychologie,0,0,0,0,0,,A
Fixation,canvas.Screen,2_83_0_0,2022-07-15T15:21:10.544Z,,,0,V,1717.051000000094,timeout,,,649343.7999999999,649316879,647599822,647601.9,647616499,649333.55,,grey,ND07NU02,26,f,4,0,Psychologie,0,0,0,0,0,,AV
Stimulus,canvas.Screen,2_83_0_1,2022-07-15T15:21:10.618Z,,,0,V,100.54799999995157,timeout,,,649418.2000000001,649417423,649316879,649344.1,649333.55,649434098,,grey,ND07NU02,26,f,4,0,Psychologie,0,0,0,0,0,,AV
Reaction,canvas.Screen,2_83_0_2,2022-07-15T15:21:10.787Z,,,0,V,151.701999999932,response,stim_detected,mousedown,649587.5000000001,649585.7999999999,649417423,649418.4,649434098,649601114,,grey,ND07NU02,26,f,4,0,Psychologie,0,0,0,0,0,,AV
Trial,flow.Sequence,2_83_0,2022-07-15T15:21:10.788Z,,,0,V,1969.3009999999776,completion,,,649587.9,649585.7999999999,647599822,647601.7999999999,647616499,649601114,,grey,ND07NU02,26,f,4,0,Psychologie,0,0,0,0,0,,AV
Frame,canvas.Frame,2_83,2022-07-15T15:21:10.788Z,,,0,V,1971.501000000164,,,,649588.2000000001,649588.0000000001,647599822,647601.1,647616499,649601114,,grey,ND07NU02,26,f,4,0,Psychologie,0,0,0,0,0,,AV
Fixation,canvas.Screen,2_84_0_0,2022-07-15T15:21:12.904Z,,,1,AV,2118.3690000000643,timeout,,,651704.2999999999,651702803,649584437,649589.4,649601114,651719483,,grey,ND07NU02,26,f,4,0,Psychologie,0,0,0,0,0,,V
Stimulus,canvas.Screen,2_84_0_1,2022-07-15T15:21:13.003Z,,,1,AV,99.73499999998603,timeout,,,651803.4,651802.46,651702803,651704.5000000001,651719483,651819218,,grey,ND07NU02,26,f,4,0,Psychologie,0,0,0,0,0,,V
Reaction,canvas.Screen,2_84_0_2,2022-07-15T15:21:13.160Z,,,1,AV,139.48200000007637,response,stim_detected,mousedown,651960.4,651958.7000000001,651802.46,651803.6,651819218,651969311,,grey,ND07NU02,26,f,4,0,Psychologie,0,0,0,0,0,,V
Trial,flow.Sequence,2_84_0,2022-07-15T15:21:13.161Z,,,1,AV,2357.5860000001267,completion,,,651960.7999999999,651958.7000000001,649584437,649589.2000000001,649601114,651969311,,grey,ND07NU02,26,f,4,0,Psychologie,0,0,0,0,0,,V
Frame,canvas.Frame,2_84,2022-07-15T15:21:13.161Z,,,1,AV,2359.685999999987,,,,651961.1,651960.7999999999,649584437,649588.5000000001,649601114,651969311,,grey,ND07NU02,26,f,4,0,Psychologie,0,0,0,0,0,,V
Fixation,canvas.Screen,2_85_0_0,2022-07-15T15:21:15.322Z,,,0,V,2168.0139999999665,timeout,,,654122.2999999999,654120648,651952634,651962.1,651969311,654137325,,grey,ND07NU02,26,f,4,0,Psychologie,0,0,0,0,0,,AV
Stimulus,canvas.Screen,2_85_0_1,2022-07-15T15:21:15.422Z,,,0,V,99.84700000006706,timeout,,,654221.7000000001,654220497,654120648,654122.6,654137325,654237172,,grey,ND07NU02,26,f,4,0,Psychologie,0,0,0,0,0,,AV
Reaction,canvas.Screen,2_85_0_2,2022-07-15T15:21:15.613Z,,,0,V,174.42799999995623,response,stim_detected,mousedown,654413.1,654411.6,654220497,654222.0000000001,654237172,654420939,,grey,ND07NU02,26,f,4,0,Psychologie,0,0,0,0,0,,AV
Trial,flow.Sequence,2_85_0,2022-07-15T15:21:15.613Z,,,0,V,2442.2889999999898,completion,,,654413.4,654411.6,651952634,651962.1,651969311,654420939,,grey,ND07NU02,26,f,4,0,Psychologie,0,0,0,0,0,,AV
Frame,canvas.Frame,2_85,2022-07-15T15:21:15.614Z,,,0,V,2444.1890000001295,,,,654413.7999999999,654413.5000000001,651952634,651961.2000000001,651969311,654420939,,grey,ND07NU02,26,f,4,0,Psychologie,0,0,0,0,0,,AV
Fixation,canvas.Screen,2_86_0_0,2022-07-15T15:21:17.607Z,,,1,AV,2001.3349999999627,timeout,,,656407.2999999999,656405596,654404262,654414.9,654420939,656422274,,grey,ND07NU02,26,f,4,0,Psychologie,0,0,0,0,0,,V
Stimulus,canvas.Screen,2_86_0_1,2022-07-15T15:21:17.706Z,,,1,AV,99.48400000005495,timeout,,,656506.5000000001,656505085,656405596,656407.6,656422274,656521758,,grey,ND07NU02,26,f,4,0,Psychologie,0,0,0,0,0,,V
Reaction,canvas.Screen,2_86_0_2,2022-07-15T15:21:17.853Z,,,1,AV,129.74200000008568,response,stim_detected,mousedown,656653.5000000001,656651.5000000001,656505085,656506.7999999999,656521758,656655714,,grey,ND07NU02,26,f,4,0,Psychologie,0,0,0,0,0,,V
Trial,flow.Sequence,2_86_0,2022-07-15T15:21:17.854Z,,,1,AV,2230.5610000001034,completion,,,656653.9,656651.5000000001,654404262,654414.7999999999,654420939,656655714,,grey,ND07NU02,26,f,4,0,Psychologie,0,0,0,0,0,,V
Frame,canvas.Frame,2_86,2022-07-15T15:21:17.854Z,,,1,AV,2233.0610000001034,,,,656654.1,656654.0000000001,654404262,654413.9,654420939,656655714,,grey,ND07NU02,26,f,4,0,Psychologie,0,0,0,0,0,,V
Fixation,canvas.Screen,2_87_0_0,2022-07-15T15:21:19.473Z,,,0,V,1633.591999999946,timeout,,,658273.5000000001,658272636,656639037,656655.2999999999,656655714,658289306,,grey,ND07NU02,26,f,4,0,Psychologie,0,0,0,0,0,,AV
Stimulus,canvas.Screen,2_87_0_1,2022-07-15T15:21:19.574Z,,,0,V,100.91200000001118,timeout,,,658374.5000000001,658373537,658272636,658273.7000000001,658289306,658390218,,grey,ND07NU02,26,f,4,0,Psychologie,0,0,0,0,0,,AV
Reaction,canvas.Screen,2_87_0_2,2022-07-15T15:21:19.773Z,,,0,V,181.1820000000298,response,stim_detected,mousedown,658572.7999999999,658571.4,658373537,658374.7000000001,658390218,658590317,,grey,ND07NU02,26,f,4,0,Psychologie,0,0,0,0,0,,AV
Trial,flow.Sequence,2_87_0,2022-07-15T15:21:19.773Z,,,0,V,1915.685999999987,completion,,,658573.2000000001,658571.4,656639037,656655.1,656655714,658590317,,grey,ND07NU02,26,f,4,0,Psychologie,0,0,0,0,0,,AV
Frame,canvas.Frame,2_87,2022-07-15T15:21:19.773Z,,,0,V,1917.5859999998938,,,,658573.5000000001,658573.2999999999,656639037,656654.2999999999,656655714,658590317,,grey,ND07NU02,26,f,4,0,Psychologie,0,0,0,0,0,,AV
Fixation,canvas.Screen,2_88_0_0,2022-07-15T15:21:21.625Z,,,1,A,1850.6450000000186,timeout,,,660425.6,660424289,658573.64,658574.7000000001,658590317,660440962,,black,ND07NU02,26,f,4,0,Psychologie,0,0,0,0,0,,V
Stimulus,canvas.Screen,2_88_0_1,2022-07-15T15:21:21.726Z,,,1,A,100.63199999998324,timeout,,,660526.6,660524915,660424289,660425.9,660440962,660541594,,black,ND07NU02,26,f,4,0,Psychologie,0,0,0,0,0,,V
Reaction,canvas.Screen,2_88_0_2,2022-07-15T15:21:21.847Z,,,1,A,103.90600000007544,response,stim_detected,mousedown,660647.0000000001,660645.5000000001,660524915,660526.9,660541594,660658324,,black,ND07NU02,26,f,4,0,Psychologie,0,0,0,0,0,,V
Trial,flow.Sequence,2_88_0,2022-07-15T15:21:21.847Z,,,1,A,2055.1830000000773,completion,,,660647.5000000001,660645.5000000001,658573.64,658574.7000000001,658590317,660658324,,black,ND07NU02,26,f,4,0,Psychologie,0,0,0,0,0,,V
Frame,canvas.Frame,2_88,2022-07-15T15:21:21.848Z,,,1,A,2057.2829999999376,,,,660647.9,660647.6,658573.64,658573.7000000001,658590317,660658324,,black,ND07NU02,26,f,4,0,Psychologie,0,0,0,0,0,,V
Fixation,canvas.Screen,2_89_0_0,2022-07-15T15:21:23.594Z,,,0,V,1751.0929999999935,timeout,,,662393.9,662392.74,660641647,660649.1,660658324,662409417,,grey,ND07NU02,26,f,4,0,Psychologie,0,0,0,0,0,,A
Stimulus,canvas.Screen,2_89_0_1,2022-07-15T15:21:23.694Z,,,0,V,100.16799999994691,timeout,,,662494.7000000001,662492907,662392.74,662394.2000000001,662409417,662509585,,grey,ND07NU02,26,f,4,0,Psychologie,0,0,0,0,0,,A
Reaction,canvas.Screen,2_89_0_2,2022-07-15T15:21:23.886Z,,,0,V,174.81500000006054,response,stim_detected,mousedown,662685.9,662684.4,662492907,662495.0000000001,662509585,662692985,,grey,ND07NU02,26,f,4,0,Psychologie,0,0,0,0,0,,A
Trial,flow.Sequence,2_89_0,2022-07-15T15:21:23.886Z,,,0,V,2026.076000000001,completion,,,662686.2999999999,662684.4,660641647,660649.1,660658324,662692985,,grey,ND07NU02,26,f,4,0,Psychologie,0,0,0,0,0,,A
Frame,canvas.Frame,2_89,2022-07-15T15:21:23.886Z,,,0,V,2028.176000000094,,,,662686.6,662686.5000000001,660641647,660648.2999999999,660658324,662692985,,grey,ND07NU02,26,f,4,0,Psychologie,0,0,0,0,0,,A
Fixation,canvas.Screen,2_90_0_0,2022-07-15T15:21:25.411Z,,,1,AV,1533.7710000000661,timeout,,,664211.5000000001,664210084,662676308,662687.9,662692985,664226756,,grey,ND07NU02,26,f,4,0,Psychologie,0,0,0,0,0,,V
Stimulus,canvas.Screen,2_90_0_1,2022-07-15T15:21:25.512Z,,,1,AV,100.71099999989383,timeout,,,664311.7000000001,664310789,664210084,664211.9,664226756,664327467,,grey,ND07NU02,26,f,4,0,Psychologie,0,0,0,0,0,,V
Reaction,canvas.Screen,2_90_0_2,2022-07-15T15:21:25.643Z,,,1,AV,113.73300000012387,response,stim_detected,mousedown,664442.7999999999,664441.2000000001,664310789,664311.9,664327467,664460755,,grey,ND07NU02,26,f,4,0,Psychologie,0,0,0,0,0,,V
Trial,flow.Sequence,2_90_0,2022-07-15T15:21:25.643Z,,,1,AV,1748.2150000000838,completion,,,664443.1,664441.2000000001,662676308,662687.7000000001,662692985,664460755,,grey,ND07NU02,26,f,4,0,Psychologie,0,0,0,0,0,,V
Frame,canvas.Frame,2_90,2022-07-15T15:21:25.643Z,,,1,AV,1750.3149999999441,,,,664443.4,664443.2999999999,662676308,662686.9,662692985,664460755,,grey,ND07NU02,26,f,4,0,Psychologie,0,0,0,0,0,,V
Loop,flow.Loop,2,2022-07-15T15:21:25.644Z,,,,,205233.0079999999,completion,,,664443.9,664443.2999999999,459193615,459195.4,459210292,664460755,,,ND07NU02,26,f,4,0,Psychologie,0,0,0,0,0,,AV
end,html.Page,3,2022-07-15T15:21:30.048Z,,,,,4386.844999999972,form,submission,,,668848.2999999999,668847.6,664444079,664444.1,664460755,668847296,,,ND07NU02,26,f,4,0,Psychologie,0,0,0,0,0,AV
root,flow.Sequence,,2022-07-15T15:21:30.049Z,,,,,664567154,completion,,,668849.5000000001,668847.6,4247084,4257.100000000035,4280446,668847296,,,ND07NU02,26,f,4,0,Psychologie,0,0,0,0,0,,AV
