sender,sender_type,sender_id,timestamp,meta,,aud,condition,duration,ended_on,response,response_action,time_commit,time_end,time_render,time_run,time_show,time_switch,url,vis,id,age,sex,edu,occ,ela,pat,ill,prt,pcr,pab,,pre_stim
Instructions,html.Page,0,2022-07-04T16:44:20.024Z,"{""labjs_version"":""20.2.4"",""labjs_build"":{""flavor"":""production"",""commit"":""f5b4a49f956347addd546a832a3327688c2c0fef""},""location"":""file:///C:/Users/Proband%207/Desktop/RTE/index.html"",""userAgent"":""Mozilla/5.0 (Windows NT 6.1; Win64; x64) AppleWebKit/537.36 (KHTML, like Gecko) Chrome/103.0.0.0 Safari/537.36"",""platform"":""Win32"",""language"":""de-DE"",""locale"":""de"",""timeZone"":""Europe/Berlin"",""timezoneOffset"":-120,""screen_width"":1366,""screen_height"":768,""scroll_width"":1366,""scroll_height"":609,""window_innerWidth"":1366,""window_innerHeight"":657,""devicePixelRatio"":1}",,,,1413582094,form,submission,,,1415571.7999999998,1415571,1972227,1981.5,1988906,1415578229,{},,WE27EC21,24,f,4,0,"Sustainability, Society and the Environment",0,0,0,0,0,
Change,Background,canvas.Screen,1,2022-07-04T16:44:23.008Z,,,,,2992.118999999948,timeout,,,1418555.8999999994,1418553661,1415561579,1415572.2999999998,1415578229,1418570348,,,WE27EC21,24,f,4,0,"Sustainability, Society and the Environment",0,0,0,0,0,
Fixation,canvas.Screen,2_0_0_0,2022-07-04T16:44:24.601Z,,,0,V,1593.7439999999478,timeout,,,1420148.6999999993,1420147443,1418553661,1418557.3999999994,1418570348,1420164092,,grey,WE27EC21,24,f,4,0,"Sustainability, Society and the Environment",0,0,0,0,0,,
Stimulus,canvas.Screen,2_0_0_1,2022-07-04T16:44:24.707Z,,,0,V,106.28900000010617,timeout,,,1420254.5,1420253627,1420147443,1420149,1420164092,1420270381,,grey,WE27EC21,24,f,4,0,"Sustainability, Society and the Environment",0,0,0,0,0,,
Reaction,canvas.Screen,2_0_0_2,2022-07-04T16:44:25.017Z,,,0,V,292.4189999997616,response,stim_detected,mousedown,1420564.8999999994,1420562.7999999998,1420253627,1420254.7999999998,1420270381,1420570567,,grey,WE27EC21,24,f,4,0,"Sustainability, Society and the Environment",0,0,0,0,0,,0
Trial,flow.Sequence,2_0_0,2022-07-04T16:44:25.018Z,,,0,V,1992.4519999998156,completion,,,1420565.3999999994,1420562.7999999998,1418553661,1418557.2999999998,1418570348,1420570567,,grey,WE27EC21,24,f,4,0,"Sustainability, Society and the Environment",0,0,0,0,0,,
Frame,canvas.Frame,2_0,2022-07-04T16:44:25.019Z,,,0,V,1995.3519999992568,,,,1420566,1420565.6999999993,1418553661,1418556.3999999994,1418570348,1420570567,,grey,WE27EC21,24,f,4,0,"Sustainability, Society and the Environment",0,0,0,0,0,,
Fixation,canvas.Screen,2_1_0_0,2022-07-04T16:44:26.592Z,,,1,AV,1584.436999999918,timeout,,,1422139.5,1422138326,1420553.89,1420567.2999999998,1420570567,1422155004,,grey,WE27EC21,24,f,4,0,"Sustainability, Society and the Environment",0,0,0,0,0,,
Stimulus,canvas.Screen,2_1_0_1,2022-07-04T16:44:26.692Z,,,1,AV,100.09400000004098,timeout,,,1422239.7999999998,1422238.42,1422138326,1422139.7999999998,1422155004,1422255098,,grey,WE27EC21,24,f,4,0,"Sustainability, Society and the Environment",0,0,0,0,0,,
Reaction,canvas.Screen,2_1_0_2,2022-07-04T16:44:26.924Z,,,1,AV,214.6019999992568,response,stim_detected,mousedown,1422471.5,1422469.6999999993,1422238.42,1422240.1999999993,1422255098,1422488509,,grey,WE27EC21,24,f,4,0,"Sustainability, Society and the Environment",0,0,0,0,0,,V
Trial,flow.Sequence,2_1_0,2022-07-04T16:44:26.925Z,,,1,AV,1899.1329999992158,completion,,,1422472.5,1422469.6999999993,1420553.89,1420567.1999999993,1420570567,1422488509,,grey,WE27EC21,24,f,4,0,"Sustainability, Society and the Environment",0,0,0,0,0,,V
Frame,canvas.Frame,2_1,2022-07-04T16:44:26.926Z,,,1,AV,1902.1329999992158,,,,1422473.0999999996,1422472.6999999993,1420553.89,1420566.2999999998,1420570567,1422488509,,grey,WE27EC21,24,f,4,0,"Sustainability, Society and the Environment",0,0,0,0,0,,V
Fixation,canvas.Screen,2_2_0_0,2022-07-04T16:44:29.393Z,,,1,A,2467.7009999998845,timeout,,,1424940.8999999994,1424939536,1422471832,1422474.1999999993,1422488509,1424956.21,,black,WE27EC21,24,f,4,0,"Sustainability, Society and the Environment",0,0,0,0,0,,AV
Stimulus,canvas.Screen,2_2_0_1,2022-07-04T16:44:29.495Z,,,1,A,100.69699999992736,timeout,,,1425042,1425040.23,1424939536,1424941.0999999996,1424956.21,1425056907,,black,WE27EC21,24,f,4,0,"Sustainability, Society and the Environment",0,0,0,0,0,,AV
Reaction,canvas.Screen,2_2_0_2,2022-07-04T16:44:29.861Z,,,1,A,349.79299999936484,response,stim_detected,mousedown,1425408.7999999998,1425406.6999999993,1425040.23,1425042.3999999994,1425056907,1425440458,,black,WE27EC21,24,f,4,0,"Sustainability, Society and the Environment",0,0,0,0,0,,AV
Trial,flow.Sequence,2_2_0,2022-07-04T16:44:29.862Z,,,1,A,2918.1909999991767,completion,,,1425409.1999999993,1425406.6999999993,1422471832,1422474.0999999996,1422488509,1425440458,,black,WE27EC21,24,f,4,0,"Sustainability, Society and the Environment",0,0,0,0,0,,AV
Frame,canvas.Frame,2_2,2022-07-04T16:44:29.862Z,,,1,A,2920.890999999363,,,,1425409.5999999996,1425409.3999999994,1422471832,1422473.2999999998,1422488509,1425440458,,black,WE27EC21,24,f,4,0,"Sustainability, Society and the Environment",0,0,0,0,0,,AV
Fixation,canvas.Screen,2_3_0_0,2022-07-04T16:44:32.098Z,,,1,A,2219.597999999998,timeout,,,1427645.7999999998,1427643368,1425407104,1425411,1425440458,1427660056,,black,WE27EC21,24,f,4,0,"Sustainability, Society and the Environment",0,0,0,0,0,,A
Stimulus,canvas.Screen,2_3_0_1,2022-07-04T16:44:32.196Z,,,1,A,98.57399999978952,timeout,,,1427743,1427741953,1427643368,1427646.2999999998,1427660056,1427758.63,,black,WE27EC21,24,f,4,0,"Sustainability, Society and the Environment",0,0,0,0,0,,A
Reaction,canvas.Screen,2_3_0_2,2022-07-04T16:44:32.446Z,,,1,A,233.0699999993667,response,stim_detected,mousedown,1427993.6999999993,1427991.6999999993,1427741953,1427743.1999999993,1427758.63,1428008.87,,black,WE27EC21,24,f,4,0,"Sustainability, Society and the Environment",0,0,0,0,0,,A
Trial,flow.Sequence,2_3_0,2022-07-04T16:44:32.447Z,,,1,A,2551.2419999991544,completion,,,1427994.1999999993,1427991.6999999993,1425407104,1425410.8999999994,1425440458,1428008.87,,black,WE27EC21,24,f,4,0,"Sustainability, Society and the Environment",0,0,0,0,0,,A
Frame,canvas.Frame,2_3,2022-07-04T16:44:32.447Z,,,1,A,2553.841999999713,,,,1427994.5999999996,1427994.2999999998,1425407104,1425409.7999999998,1425440458,1428008.87,,black,WE27EC21,24,f,4,0,"Sustainability, Society and the Environment",0,0,0,0,0,,A
Fixation,canvas.Screen,2_4_0_0,2022-07-04T16:44:34.781Z,,,0,V,2334.7979999999516,timeout,,,1430328,1430326991,1427992193,1427996,1428008.87,1430343668,,grey,WE27EC21,24,f,4,0,"Sustainability, Society and the Environment",0,0,0,0,0,,A
Stimulus,canvas.Screen,2_4_0_1,2022-07-04T16:44:34.881Z,,,0,V,100.26599999982864,timeout,,,1430428.8999999994,1430427255,1430326991,1430328.2999999998,1430343668,1430443934,,grey,WE27EC21,24,f,4,0,"Sustainability, Society and the Environment",0,0,0,0,0,,A
Reaction,canvas.Screen,2_4_0_2,2022-07-04T16:44:35.197Z,,,0,V,298.6659999997355,response,stim_detected,mousedown,1430744.5999999996,1430742.5999999996,1430427255,1430429.1999999993,1430443934,1430760695,,grey,WE27EC21,24,f,4,0,"Sustainability, Society and the Environment",0,0,0,0,0,,A
Trial,flow.Sequence,2_4_0,2022-07-04T16:44:35.198Z,,,0,V,2733.7299999995157,completion,,,1430745.1999999993,1430742.5999999996,1427992193,1427995.8999999994,1428008.87,1430760695,,grey,WE27EC21,24,f,4,0,"Sustainability, Society and the Environment",0,0,0,0,0,,A
Frame,canvas.Frame,2_4,2022-07-04T16:44:35.198Z,,,0,V,2736.429999999702,,,,1430745.5999999996,1430745.2999999998,1427992193,1427994.7999999998,1428008.87,1430760695,,grey,WE27EC21,24,f,4,0,"Sustainability, Society and the Environment",0,0,0,0,0,,A
Fixation,canvas.Screen,2_5_0_0,2022-07-04T16:44:37.051Z,,,1,AV,1852.219999999972,timeout,,,1432598,1432596.23,1430744018,1430746.8999999994,1430760695,1432612915,,grey,WE27EC21,24,f,4,0,"Sustainability, Society and the Environment",0,0,0,0,0,,V
Stimulus,canvas.Screen,2_5_0_1,2022-07-04T16:44:37.150Z,,,1,AV,98.98799999989569,timeout,,,1432697,1432695227,1432596.23,1432598.1999999993,1432612915,1432711903,,grey,WE27EC21,24,f,4,0,"Sustainability, Society and the Environment",0,0,0,0,0,,V
Reaction,canvas.Screen,2_5_0_2,2022-07-04T16:44:37.338Z,,,1,AV,171.59700000006706,response,stim_detected,mousedown,1432885.3999999994,1432883.5,1432695227,1432697.1999999993,1432711903,1432895469,,grey,WE27EC21,24,f,4,0,"Sustainability, Society and the Environment",0,0,0,0,0,,V
Trial,flow.Sequence,2_5_0,2022-07-04T16:44:37.339Z,,,1,AV,2122.804999999935,completion,,,1432886,1432883.5,1430744018,1430746.7999999998,1430760695,1432895469,,grey,WE27EC21,24,f,4,0,"Sustainability, Society and the Environment",0,0,0,0,0,,V
Frame,canvas.Frame,2_5,2022-07-04T16:44:37.339Z,,,1,AV,2125.5049999991897,,,,1432886.3999999994,1432886.1999999993,1430744018,1430745.6999999993,1430760695,1432895469,,grey,WE27EC21,24,f,4,0,"Sustainability, Society and the Environment",0,0,0,0,0,,V
Fixation,canvas.Screen,2_6_0_0,2022-07-04T16:44:39.702Z,,,1,AV,2369.0470000000205,timeout,,,1435249.2999999998,1435247833,1432878792,1432887.6999999993,1432895469,1435264516,,grey,WE27EC21,24,f,4,0,"Sustainability, Society and the Environment",0,0,0,0,0,,AV
Stimulus,canvas.Screen,2_6_0_1,2022-07-04T16:44:39.801Z,,,1,AV,98.87599999993108,timeout,,,1435348.2999999998,1435346717,1435247833,1435249.6999999993,1435264516,1435363392,,grey,WE27EC21,24,f,4,0,"Sustainability, Society and the Environment",0,0,0,0,0,,AV
Reaction,canvas.Screen,2_6_0_2,2022-07-04T16:44:39.989Z,,,1,AV,171.3079999992624,response,stim_detected,mousedown,1435536.3999999994,1435534.6999999993,1435346717,1435348.5,1435363392,1435547267,,grey,WE27EC21,24,f,4,0,"Sustainability, Society and the Environment",0,0,0,0,0,,AV
Trial,flow.Sequence,2_6_0,2022-07-04T16:44:39.989Z,,,1,AV,2639.230999999214,completion,,,1435536.7999999998,1435534.6999999993,1432878792,1432887.5999999996,1432895469,1435547267,,grey,WE27EC21,24,f,4,0,"Sustainability, Society and the Environment",0,0,0,0,0,,AV
Frame,canvas.Frame,2_6,2022-07-04T16:44:39.990Z,,,1,AV,2641.4309999994002,,,,1435537.0999999996,1435536.8999999994,1432878792,1432886.6999999993,1432895469,1435547267,,grey,WE27EC21,24,f,4,0,"Sustainability, Society and the Environment",0,0,0,0,0,,AV
Fixation,canvas.Screen,2_7_0_0,2022-07-04T16:44:42.086Z,,,1,A,2101.30700000003,timeout,,,1437633.1999999993,1437631897,1435530.59,1435538.2999999998,1435547267,1437648574,,black,WE27EC21,24,f,4,0,"Sustainability, Society and the Environment",0,0,0,0,0,,AV
Stimulus,canvas.Screen,2_7_0_1,2022-07-04T16:44:42.186Z,,,1,A,100.22799999988638,timeout,,,1437733.1999999993,1437732123,1437631897,1437633.3999999994,1437648574,1437748802,,black,WE27EC21,24,f,4,0,"Sustainability, Society and the Environment",0,0,0,0,0,,AV
Reaction,canvas.Screen,2_7_0_2,2022-07-04T16:44:42.514Z,,,1,A,310.79799999971874,response,stim_detected,mousedown,1438061.2999999998,1438059.5999999996,1437732123,1437733.3999999994,1437748802,1438065608,,black,WE27EC21,24,f,4,0,"Sustainability, Society and the Environment",0,0,0,0,0,,AV
Trial,flow.Sequence,2_7_0,2022-07-04T16:44:42.514Z,,,1,A,2512.332999999635,completion,,,1438061.6999999993,1438059.5999999996,1435530.59,1435538.2999999998,1435547267,1438065608,,black,WE27EC21,24,f,4,0,"Sustainability, Society and the Environment",0,0,0,0,0,,AV
Frame,canvas.Frame,2_7,2022-07-04T16:44:42.515Z,,,1,A,2514.532999999821,,,,1438062,1438061.7999999998,1435530.59,1435537.2999999998,1435547267,1438065608,,black,WE27EC21,24,f,4,0,"Sustainability, Society and the Environment",0,0,0,0,0,,AV
Fixation,canvas.Screen,2_8_0_0,2022-07-04T16:44:44.587Z,,,1,AV,2084.337999999989,timeout,,,1440134.2999999998,1440133271,1438048931,1438063.1999999993,1438065608,1440149946,,grey,WE27EC21,24,f,4,0,"Sustainability, Society and the Environment",0,0,0,0,0,,A
Stimulus,canvas.Screen,2_8_0_1,2022-07-04T16:44:44.689Z,,,1,AV,100.36100000003353,timeout,,,1440236.1999999993,1440233.63,1440133271,1440134.5,1440149946,1440250307,,grey,WE27EC21,24,f,4,0,"Sustainability, Society and the Environment",0,0,0,0,0,,A
Reaction,canvas.Screen,2_8_0_2,2022-07-04T16:44:44.876Z,,,1,AV,171.29299999959767,response,stim_detected,mousedown,1440423.2999999998,1440421.5999999996,1440233.63,1440236.5999999996,1440250307,1440450506,,grey,WE27EC21,24,f,4,0,"Sustainability, Society and the Environment",0,0,0,0,0,,A
Trial,flow.Sequence,2_8_0,2022-07-04T16:44:44.876Z,,,1,AV,2355.99199999962,completion,,,1440423.6999999993,1440421.5999999996,1438048931,1438063.0999999996,1438065608,1440450506,,grey,WE27EC21,24,f,4,0,"Sustainability, Society and the Environment",0,0,0,0,0,,A
Frame,canvas.Frame,2_8,2022-07-04T16:44:44.877Z,,,1,AV,2358.2919999994338,,,,1440424,1440423.8999999994,1438048931,1438062.1999999993,1438065608,1440450506,,grey,WE27EC21,24,f,4,0,"Sustainability, Society and the Environment",0,0,0,0,0,,A
Fixation,canvas.Screen,2_9_0_0,2022-07-04T16:44:47.390Z,,,1,A,2501.8819999999832,timeout,,,1442937.5999999996,1442935709,1440417152,1440425.3999999994,1440450506,1442952388,,black,WE27EC21,24,f,4,0,"Sustainability, Society and the Environment",0,0,0,0,0,,AV
Stimulus,canvas.Screen,2_9_0_1,2022-07-04T16:44:47.489Z,,,1,A,99.97299999999814,timeout,,,1443036.6999999993,1443035682,1442935709,1442938,1442952388,1443052361,,black,WE27EC21,24,f,4,0,"Sustainability, Society and the Environment",0,0,0,0,0,,AV
Reaction,canvas.Screen,2_9_0_2,2022-07-04T16:44:47.750Z,,,1,A,243.13899999996647,response,stim_detected,mousedown,1443297.2999999998,1443295.5,1443035682,1443036.8999999994,1443052361,1443302433,,black,WE27EC21,24,f,4,0,"Sustainability, Society and the Environment",0,0,0,0,0,,AV
Trial,flow.Sequence,2_9_0,2022-07-04T16:44:47.750Z,,,1,A,2844.993999999948,completion,,,1443297.7999999998,1443295.5,1440417152,1440425.2999999998,1440450506,1443302433,,black,WE27EC21,24,f,4,0,"Sustainability, Society and the Environment",0,0,0,0,0,,AV
Frame,canvas.Frame,2_9,2022-07-04T16:44:47.751Z,,,1,A,2847.393999999389,,,,1443298.0999999996,1443297.8999999994,1440417152,1440424.1999999993,1440450506,1443302433,,black,WE27EC21,24,f,4,0,"Sustainability, Society and the Environment",0,0,0,0,0,,AV
Fixation,canvas.Screen,2_10_0_0,2022-07-04T16:44:49.474Z,,,1,A,1734.7770000000019,timeout,,,1445021.5,1445020.53,1443285756,1443299.1999999993,1443302433,1445037.21,,black,WE27EC21,24,f,4,0,"Sustainability, Society and the Environment",0,0,0,0,0,,A
Stimulus,canvas.Screen,2_10_0_1,2022-07-04T16:44:49.574Z,,,1,A,99.82199999992736,timeout,,,1445121.5,1445120355,1445020.53,1445021.7999999998,1445037.21,1445137032,,black,WE27EC21,24,f,4,0,"Sustainability, Society and the Environment",0,0,0,0,0,,A
Reaction,canvas.Screen,2_10_0_2,2022-07-04T16:44:49.912Z,,,1,A,320.4680000001099,response,stim_detected,mousedown,1445459.5,1445457.5,1445120355,1445121.6999999993,1445137032,1445470569,,black,WE27EC21,24,f,4,0,"Sustainability, Society and the Environment",0,0,0,0,0,,A
Trial,flow.Sequence,2_10_0,2022-07-04T16:44:49.912Z,,,1,A,2155.067000000039,completion,,,1445459.7999999998,1445457.5,1443285756,1443299.0999999996,1443302433,1445470569,,black,WE27EC21,24,f,4,0,"Sustainability, Society and the Environment",0,0,0,0,0,,A
Frame,canvas.Frame,2_10,2022-07-04T16:44:49.913Z,,,1,A,2157.567000000039,,,,1445460.1999999993,1445460,1443285756,1443298.1999999993,1443302433,1445470569,,black,WE27EC21,24,f,4,0,"Sustainability, Society and the Environment",0,0,0,0,0,,A
Fixation,canvas.Screen,2_11_0_0,2022-07-04T16:44:52.327Z,,,0,V,2418.1670000001322,timeout,,,1447874.1999999993,1447872059,1445453892,1445461.2999999998,1445470569,1447888736,,grey,WE27EC21,24,f,4,0,"Sustainability, Society and the Environment",0,0,0,0,0,,A
Stimulus,canvas.Screen,2_11_0_1,2022-07-04T16:44:52.426Z,,,0,V,100.14699999988079,timeout,,,1447973.7999999998,1447972206,1447872059,1447874.3999999994,1447888736,1447988883,,grey,WE27EC21,24,f,4,0,"Sustainability, Society and the Environment",0,0,0,0,0,,A
Reaction,canvas.Screen,2_11_0_2,2022-07-04T16:44:52.795Z,,,0,V,351.5169999995269,response,stim_detected,mousedown,1448342.3999999994,1448340.3999999994,1447972206,1447974,1447988883,1448355816,,grey,WE27EC21,24,f,4,0,"Sustainability, Society and the Environment",0,0,0,0,0,,A
Trial,flow.Sequence,2_11_0,2022-07-04T16:44:52.795Z,,,0,V,2869.83099999954,completion,,,1448342.6999999993,1448340.3999999994,1445453892,1445461.1999999993,1445470569,1448355816,,grey,WE27EC21,24,f,4,0,"Sustainability, Society and the Environment",0,0,0,0,0,,A
Frame,canvas.Frame,2_11,2022-07-04T16:44:52.796Z,,,0,V,2872.33099999954,,,,1448343,1448342.8999999994,1445453892,1445460.3999999994,1445470569,1448355816,,grey,WE27EC21,24,f,4,0,"Sustainability, Society and the Environment",0,0,0,0,0,,A
Fixation,canvas.Screen,2_12_0_0,2022-07-04T16:44:55.044Z,,,1,A,2251.716999999946,timeout,,,1450591.7999999998,1450590854,1448339139,1448344.1999999993,1448355816,1450607533,,black,WE27EC21,24,f,4,0,"Sustainability, Society and the Environment",0,0,0,0,0,,V
Stimulus,canvas.Screen,2_12_0_1,2022-07-04T16:44:55.144Z,,,1,A,99.83400000003166,timeout,,,1450691.7999999998,1450690.69,1450590854,1450592,1450607533,1450707367,,black,WE27EC21,24,f,4,0,"Sustainability, Society and the Environment",0,0,0,0,0,,V
Reaction,canvas.Screen,2_12_0_2,2022-07-04T16:44:55.433Z,,,1,A,271.1329999999143,response,stim_detected,mousedown,1450980.0999999996,1450978.5,1450690.69,1450692,1450707367,1450990914,,black,WE27EC21,24,f,4,0,"Sustainability, Society and the Environment",0,0,0,0,0,,V
Trial,flow.Sequence,2_12_0,2022-07-04T16:44:55.433Z,,,1,A,2622.683999999892,completion,,,1450980.5,1450978.5,1448339139,1448344.1999999993,1448355816,1450990914,,black,WE27EC21,24,f,4,0,"Sustainability, Society and the Environment",0,0,0,0,0,,V
Frame,canvas.Frame,2_12,2022-07-04T16:44:55.433Z,,,1,A,2624.7839999995194,,,,1450980.7999999998,1450980.5999999996,1448339139,1448343.1999999993,1448355816,1450990914,,black,WE27EC21,24,f,4,0,"Sustainability, Society and the Environment",0,0,0,0,0,,V
Fixation,canvas.Screen,2_13_0_0,2022-07-04T16:44:57.562Z,,,1,AV,2134.812999999849,timeout,,,1453109.8999999994,1453109049,1450974237,1450982,1450990914,1453125727,,grey,WE27EC21,24,f,4,0,"Sustainability, Society and the Environment",0,0,0,0,0,,A
Stimulus,canvas.Screen,2_13_0_1,2022-07-04T16:44:57.662Z,,,1,AV,99.98600000003353,timeout,,,1453209.8999999994,1453209036,1453109049,1453110.1999999993,1453125727,1453225713,,grey,WE27EC21,24,f,4,0,"Sustainability, Society and the Environment",0,0,0,0,0,,A
Reaction,canvas.Screen,2_13_0_2,2022-07-04T16:44:57.881Z,,,1,AV,200.88699999963865,response,stim_detected,mousedown,1453428.2999999998,1453426.5999999996,1453209036,1453210.2999999998,1453225713,1453442555,,grey,WE27EC21,24,f,4,0,"Sustainability, Society and the Environment",0,0,0,0,0,,A
Trial,flow.Sequence,2_13_0,2022-07-04T16:44:57.881Z,,,1,AV,2435.6859999995213,completion,,,1453428.6999999993,1453426.5999999996,1450974237,1450981.8999999994,1450990914,1453442555,,grey,WE27EC21,24,f,4,0,"Sustainability, Society and the Environment",0,0,0,0,0,,A
Frame,canvas.Frame,2_13,2022-07-04T16:44:57.882Z,,,1,AV,2437.8859999997076,,,,1453429.0999999996,1453428.7999999998,1450974237,1450981,1450990914,1453442555,,grey,WE27EC21,24,f,4,0,"Sustainability, Society and the Environment",0,0,0,0,0,,A
Fixation,canvas.Screen,2_14_0_0,2022-07-04T16:44:59.481Z,,,1,A,1601.1190000001807,timeout,,,1455028,1455026996,1453425878,1453430.1999999993,1453442555,1455043674,,black,WE27EC21,24,f,4,0,"Sustainability, Society and the Environment",0,0,0,0,0,,AV
Stimulus,canvas.Screen,2_14_0_1,2022-07-04T16:44:59.581Z,,,1,A,100.03099999995902,timeout,,,1455128,1455126953,1455026996,1455028.1999999993,1455043674,1455143705,,black,WE27EC21,24,f,4,0,"Sustainability, Society and the Environment",0,0,0,0,0,,AV
Reaction,canvas.Screen,2_14_0_2,2022-07-04T16:44:59.838Z,,,1,A,239.6949999993667,response,stim_detected,mousedown,1455385.3999999994,1455383.3999999994,1455126953,1455128.1999999993,1455143705,1455410537,,black,WE27EC21,24,f,4,0,"Sustainability, Society and the Environment",0,0,0,0,0,,AV
Trial,flow.Sequence,2_14_0,2022-07-04T16:44:59.838Z,,,1,A,1940.8449999995064,completion,,,1455385.7999999998,1455383.3999999994,1453425878,1453430.0999999996,1453442555,1455410537,,black,WE27EC21,24,f,4,0,"Sustainability, Society and the Environment",0,0,0,0,0,,AV
Frame,canvas.Frame,2_14,2022-07-04T16:44:59.839Z,,,1,A,1943.3449999995064,,,,1455386.0999999996,1455385.8999999994,1453425878,1453429.2999999998,1453442555,1455410537,,black,WE27EC21,24,f,4,0,"Sustainability, Society and the Environment",0,0,0,0,0,,AV
Fixation,canvas.Screen,2_15_0_0,2022-07-04T16:45:01.598Z,,,1,A,1750.5979999999981,timeout,,,1457145.5,1457144462,1455377183,1455387.3999999994,1455410537,1457161135,,black,WE27EC21,24,f,4,0,"Sustainability, Society and the Environment",0,0,0,0,0,,A
Stimulus,canvas.Screen,2_15_0_1,2022-07-04T16:45:01.699Z,,,1,A,100.63199999998324,timeout,,,1457246,1457245.09,1457144462,1457145.7999999998,1457161135,1457261767,,black,WE27EC21,24,f,4,0,"Sustainability, Society and the Environment",0,0,0,0,0,,A
Reaction,canvas.Screen,2_15_0_2,2022-07-04T16:45:01.925Z,,,1,A,208.63299999944866,response,stim_detected,mousedown,1457472.1999999993,1457470.3999999994,1457245.09,1457246.2999999998,1457261767,1457478576,,black,WE27EC21,24,f,4,0,"Sustainability, Society and the Environment",0,0,0,0,0,,A
Trial,flow.Sequence,2_15_0,2022-07-04T16:45:01.925Z,,,1,A,2059.86299999943,completion,,,1457472.5999999996,1457470.3999999994,1455377183,1455387.2999999998,1455410537,1457478576,,black,WE27EC21,24,f,4,0,"Sustainability, Society and the Environment",0,0,0,0,0,,A
Frame,canvas.Frame,2_15,2022-07-04T16:45:01.925Z,,,1,A,2062.1629999992438,,,,1457472.8999999994,1457472.6999999993,1455377183,1455386.2999999998,1455410537,1457478576,,black,WE27EC21,24,f,4,0,"Sustainability, Society and the Environment",0,0,0,0,0,,A
Fixation,canvas.Screen,2_16_0_0,2022-07-04T16:45:04.217Z,,,0,V,2301.123000000138,timeout,,,1459764.5999999996,1459763024,1457461899,1457474.1999999993,1457478576,1459779699,,grey,WE27EC21,24,f,4,0,"Sustainability, Society and the Environment",0,0,0,0,0,,A
Stimulus,canvas.Screen,2_16_0_1,2022-07-04T16:45:04.317Z,,,0,V,100.52600000007078,timeout,,,1459864.5,1459863547,1459763024,1459764.8999999994,1459779699,1459880225,,grey,WE27EC21,24,f,4,0,"Sustainability, Society and the Environment",0,0,0,0,0,,A
Reaction,canvas.Screen,2_16_0_2,2022-07-04T16:45:04.625Z,,,0,V,290.1749999993481,response,stim_detected,mousedown,1460172.0999999996,1460170.3999999994,1459863547,1459864.7999999998,1459880225,1460180399,,grey,WE27EC21,24,f,4,0,"Sustainability, Society and the Environment",0,0,0,0,0,,A
Trial,flow.Sequence,2_16_0,2022-07-04T16:45:04.625Z,,,0,V,2691.8239999995567,completion,,,1460172.5,1460170.3999999994,1457461899,1457474,1457478576,1460180399,,grey,WE27EC21,24,f,4,0,"Sustainability, Society and the Environment",0,0,0,0,0,,A
Frame,canvas.Frame,2_16,2022-07-04T16:45:04.625Z,,,0,V,2694.023999999743,,,,1460172.7999999998,1460172.5999999996,1457461899,1457473.0999999996,1457478576,1460180399,,grey,WE27EC21,24,f,4,0,"Sustainability, Society and the Environment",0,0,0,0,0,,A
Fixation,canvas.Screen,2_17_0_0,2022-07-04T16:45:06.936Z,,,0,V,2317.9539999999106,timeout,,,1462483.3999999994,1462481677,1460163722,1460173.8999999994,1460180399,1462498353,,grey,WE27EC21,24,f,4,0,"Sustainability, Society and the Environment",0,0,0,0,0,,V
Stimulus,canvas.Screen,2_17_0_1,2022-07-04T16:45:07.036Z,,,0,V,100.39000000013039,timeout,,,1462583.2999999998,1462582065,1462481677,1462483.5,1462498353,1462598743,,grey,WE27EC21,24,f,4,0,"Sustainability, Society and the Environment",0,0,0,0,0,,V
Reaction,canvas.Screen,2_17_0_2,2022-07-04T16:45:07.339Z,,,0,V,285.556999999797,response,stim_detected,mousedown,1462886.0999999996,1462884.2999999998,1462582065,1462583.6999999993,1462598743,1462898839,,grey,WE27EC21,24,f,4,0,"Sustainability, Society and the Environment",0,0,0,0,0,,V
Trial,flow.Sequence,2_17_0,2022-07-04T16:45:07.339Z,,,0,V,2703.900999999838,completion,,,1462886.5999999996,1462884.2999999998,1460163722,1460173.8999999994,1460180399,1462898839,,grey,WE27EC21,24,f,4,0,"Sustainability, Society and the Environment",0,0,0,0,0,,V
Frame,canvas.Frame,2_17,2022-07-04T16:45:07.339Z,,,0,V,2706.300999999279,,,,1462886.8999999994,1462886.6999999993,1460163722,1460173,1460180399,1462898839,,grey,WE27EC21,24,f,4,0,"Sustainability, Society and the Environment",0,0,0,0,0,,V
Fixation,canvas.Screen,2_18_0_0,2022-07-04T16:45:09.421Z,,,0,V,2085.467000000179,timeout,,,1464968.5,1464967623,1462882162,1462888.0999999996,1462898839,1464984306,,grey,WE27EC21,24,f,4,0,"Sustainability, Society and the Environment",0,0,0,0,0,,V
Stimulus,canvas.Screen,2_18_0_1,2022-07-04T16:45:09.521Z,,,0,V,99.3269999998156,timeout,,,1465068.5,1465066956,1464967623,1464968.6999999993,1464984306,1465083633,,grey,WE27EC21,24,f,4,0,"Sustainability, Society and the Environment",0,0,0,0,0,,V
Reaction,canvas.Screen,2_18_0_2,2022-07-04T16:45:09.782Z,,,0,V,243.7669999995269,response,stim_detected,mousedown,1465329,1465327.3999999994,1465066956,1465068.6999999993,1465083633,1465333833,,grey,WE27EC21,24,f,4,0,"Sustainability, Society and the Environment",0,0,0,0,0,,V
Trial,flow.Sequence,2_18_0,2022-07-04T16:45:09.782Z,,,0,V,2428.5609999995213,completion,,,1465329.5,1465327.3999999994,1462882162,1462888,1462898839,1465333833,,grey,WE27EC21,24,f,4,0,"Sustainability, Society and the Environment",0,0,0,0,0,,V
Frame,canvas.Frame,2_18,2022-07-04T16:45:09.782Z,,,0,V,2430.7609999997076,,,,1465329.8999999994,1465329.5999999996,1462882162,1462887,1462898839,1465333833,,grey,WE27EC21,24,f,4,0,"Sustainability, Society and the Environment",0,0,0,0,0,,V
Fixation,canvas.Screen,2_19_0_0,2022-07-04T16:45:11.489Z,,,1,AV,1718.060999999987,timeout,,,1467036.6999999993,1467035214,1465317156,1465331,1465333833,1467051894,,grey,WE27EC21,24,f,4,0,"Sustainability, Society and the Environment",0,0,0,0,0,,V
Stimulus,canvas.Screen,2_19_0_1,2022-07-04T16:45:11.588Z,,,1,AV,99.44499999983236,timeout,,,1467135.5999999996,1467134665,1467035214,1467036.8999999994,1467051894,1467151339,,grey,WE27EC21,24,f,4,0,"Sustainability, Society and the Environment",0,0,0,0,0,,V
Reaction,canvas.Screen,2_19_0_2,2022-07-04T16:45:11.810Z,,,1,AV,203.96099999989383,response,stim_detected,mousedown,1467357.0999999996,1467355.2999999998,1467134665,1467135.7999999998,1467151339,1467368537,,grey,WE27EC21,24,f,4,0,"Sustainability, Society and the Environment",0,0,0,0,0,,V
Trial,flow.Sequence,2_19_0,2022-07-04T16:45:11.810Z,,,1,AV,2021.4669999997132,completion,,,1467357.3999999994,1467355.2999999998,1465317156,1465330.8999999994,1465333833,1467368537,,grey,WE27EC21,24,f,4,0,"Sustainability, Society and the Environment",0,0,0,0,0,,V
Frame,canvas.Frame,2_19,2022-07-04T16:45:11.810Z,,,1,AV,2023.6669999998994,,,,1467357.7999999998,1467357.5,1465317156,1465330,1465333833,1467368537,,grey,WE27EC21,24,f,4,0,"Sustainability, Society and the Environment",0,0,0,0,0,,V
Fixation,canvas.Screen,2_20_0_0,2022-07-04T16:45:13.390Z,,,1,AV,1584.4220000000205,timeout,,,1468937.6999999993,1468936281,1467351.86,1467359,1467368537,1468952959,,grey,WE27EC21,24,f,4,0,"Sustainability, Society and the Environment",0,0,0,0,0,,AV
Stimulus,canvas.Screen,2_20_0_1,2022-07-04T16:45:13.490Z,,,1,AV,99.92399999988265,timeout,,,1469037.6999999993,1469036207,1468936281,1468937.7999999998,1468952959,1469052883,,grey,WE27EC21,24,f,4,0,"Sustainability, Society and the Environment",0,0,0,0,0,,AV
Reaction,canvas.Screen,2_20_0_2,2022-07-04T16:45:13.678Z,,,1,AV,170.41699999989942,response,stim_detected,mousedown,1469225.2999999998,1469223.2999999998,1469036207,1469037.8999999994,1469052883,1469236436,,grey,WE27EC21,24,f,4,0,"Sustainability, Society and the Environment",0,0,0,0,0,,AV
Trial,flow.Sequence,2_20_0,2022-07-04T16:45:13.678Z,,,1,AV,1854.7629999998026,completion,,,1469225.6999999993,1469223.2999999998,1467351.86,1467358.7999999998,1467368537,1469236436,,grey,WE27EC21,24,f,4,0,"Sustainability, Society and the Environment",0,0,0,0,0,,AV
Frame,canvas.Frame,2_20,2022-07-04T16:45:13.679Z,,,1,AV,1857.36299999943,,,,1469226,1469225.8999999994,1467351.86,1467358,1467368537,1469236436,,grey,WE27EC21,24,f,4,0,"Sustainability, Society and the Environment",0,0,0,0,0,,AV
Fixation,canvas.Screen,2_21_0_0,2022-07-04T16:45:15.775Z,,,1,A,2102.1480000000447,timeout,,,1471322.7999999998,1471321901,1469219759,1469227.1999999993,1469236436,1471338584,,black,WE27EC21,24,f,4,0,"Sustainability, Society and the Environment",0,0,0,0,0,,AV
Stimulus,canvas.Screen,2_21_0_1,2022-07-04T16:45:15.875Z,,,1,A,99.26000000000931,timeout,,,1471422.6999999993,1471421167,1471321901,1471323.0999999996,1471338584,1471437844,,black,WE27EC21,24,f,4,0,"Sustainability, Society and the Environment",0,0,0,0,0,,AV
Reaction,canvas.Screen,2_21_0_2,2022-07-04T16:45:16.103Z,,,1,A,210.45599999977276,response,stim_detected,mousedown,1471650.0999999996,1471648.2999999998,1471421167,1471423,1471437844,1471654723,,black,WE27EC21,24,f,4,0,"Sustainability, Society and the Environment",0,0,0,0,0,,AV
Trial,flow.Sequence,2_21_0,2022-07-04T16:45:16.103Z,,,1,A,2411.863999999827,completion,,,1471650.5,1471648.2999999998,1469219759,1469227.0999999996,1469236436,1471654723,,black,WE27EC21,24,f,4,0,"Sustainability, Society and the Environment",0,0,0,0,0,,AV
Frame,canvas.Frame,2_21,2022-07-04T16:45:16.104Z,,,1,A,2414.263999999268,,,,1471651,1471650.6999999993,1469219759,1469226.1999999993,1469236436,1471654723,,black,WE27EC21,24,f,4,0,"Sustainability, Society and the Environment",0,0,0,0,0,,AV
Fixation,canvas.Screen,2_22_0_0,2022-07-04T16:45:18.377Z,,,0,V,2284.4459999999963,timeout,,,1473924.3999999994,1473922494,1471638046,1471652.1999999993,1471654723,1473939169,,grey,WE27EC21,24,f,4,0,"Sustainability, Society and the Environment",0,0,0,0,0,,A
Stimulus,canvas.Screen,2_22_0_1,2022-07-04T16:45:18.477Z,,,0,V,100.43699999991804,timeout,,,1474023.8999999994,1474022929,1473922494,1473924.7999999998,1473939169,1474039606,,grey,WE27EC21,24,f,4,0,"Sustainability, Society and the Environment",0,0,0,0,0,,A
Reaction,canvas.Screen,2_22_0_2,2022-07-04T16:45:18.757Z,,,0,V,262.6939999999013,response,stim_detected,mousedown,1474304,1474302.2999999998,1474022929,1474024.3999999994,1474039606,1474306497,,grey,WE27EC21,24,f,4,0,"Sustainability, Society and the Environment",0,0,0,0,0,,A
Trial,flow.Sequence,2_22_0,2022-07-04T16:45:18.757Z,,,0,V,2647.5769999998156,completion,,,1474304.5,1474302.2999999998,1471638046,1471652.0999999996,1471654723,1474306497,,grey,WE27EC21,24,f,4,0,"Sustainability, Society and the Environment",0,0,0,0,0,,A
Frame,canvas.Frame,2_22,2022-07-04T16:45:18.757Z,,,0,V,2649.777000000002,,,,1474304.7999999998,1474304.5,1471638046,1471651.1999999993,1471654723,1474306497,,grey,WE27EC21,24,f,4,0,"Sustainability, Society and the Environment",0,0,0,0,0,,A
Fixation,canvas.Screen,2_23_0_0,2022-07-04T16:45:21.079Z,,,0,V,2334625,timeout,,,1476626,1476624446,1474289.82,1474306.0999999996,1474306497,1476641122,,grey,WE27EC21,24,f,4,0,"Sustainability, Society and the Environment",0,0,0,0,0,,V
Stimulus,canvas.Screen,2_23_0_1,2022-07-04T16:45:21.179Z,,,0,V,100.36300000012852,timeout,,,1476726,1476724808,1476624446,1476626.3999999994,1476641122,1476741485,,grey,WE27EC21,24,f,4,0,"Sustainability, Society and the Environment",0,0,0,0,0,,V
Reaction,canvas.Screen,2_23_0_2,2022-07-04T16:45:21.471Z,,,0,V,274.7149999991525,response,stim_detected,mousedown,1477018,1477016.1999999993,1476724808,1476726.2999999998,1476741485,1477024969,,grey,WE27EC21,24,f,4,0,"Sustainability, Society and the Environment",0,0,0,0,0,,V
Trial,flow.Sequence,2_23_0,2022-07-04T16:45:21.471Z,,,0,V,2709.702999999281,completion,,,1477018.3999999994,1477016.1999999993,1474289.82,1474306,1474306497,1477024969,,grey,WE27EC21,24,f,4,0,"Sustainability, Society and the Environment",0,0,0,0,0,,V
Frame,canvas.Frame,2_23,2022-07-04T16:45:21.471Z,,,0,V,2712.202999999281,,,,1477018.8999999994,1477018.6999999993,1474289.82,1474304.8999999994,1474306497,1477024969,,grey,WE27EC21,24,f,4,0,"Sustainability, Society and the Environment",0,0,0,0,0,,V
Fixation,canvas.Screen,2_24_0_0,2022-07-04T16:45:23.097Z,,,1,AV,1634.9930000000168,timeout,,,1478644.0999999996,1478643279,1477008292,1477020.0999999996,1477024969,1478659962,,grey,WE27EC21,24,f,4,0,"Sustainability, Society and the Environment",0,0,0,0,0,,V
Stimulus,canvas.Screen,2_24_0_1,2022-07-04T16:45:23.197Z,,,1,AV,99.30400000000373,timeout,,,1478744.0999999996,1478742591,1478643279,1478644.3999999994,1478659962,1478759266,,grey,WE27EC21,24,f,4,0,"Sustainability, Society and the Environment",0,0,0,0,0,,V
Reaction,canvas.Screen,2_24_0_2,2022-07-04T16:45:23.408Z,,,1,AV,193.93399999919347,response,stim_detected,mousedown,1478955.1999999993,1478953.1999999993,1478742591,1478744.3999999994,1478759266,1478959617,,grey,WE27EC21,24,f,4,0,"Sustainability, Society and the Environment",0,0,0,0,0,,V
Trial,flow.Sequence,2_24_0,2022-07-04T16:45:23.408Z,,,1,AV,1928.230999999214,completion,,,1478955.5999999996,1478953.1999999993,1477008292,1477020,1477024969,1478959617,,grey,WE27EC21,24,f,4,0,"Sustainability, Society and the Environment",0,0,0,0,0,,V
Frame,canvas.Frame,2_24,2022-07-04T16:45:23.409Z,,,1,AV,1930.8309999997728,,,,1478955.8999999994,1478955.7999999998,1477008292,1477019.1999999993,1477024969,1478959617,,grey,WE27EC21,24,f,4,0,"Sustainability, Society and the Environment",0,0,0,0,0,,V
Fixation,canvas.Screen,2_25_0_0,2022-07-04T16:45:25.882Z,,,1,A,2485.3649999999907,timeout,,,1481429.3999999994,1481428302,1478942.94,1478957.2999999998,1478959617,1481444982,,black,WE27EC21,24,f,4,0,"Sustainability, Society and the Environment",0,0,0,0,0,,AV
Stimulus,canvas.Screen,2_25_0_1,2022-07-04T16:45:25.981Z,,,1,A,98.76699999999255,timeout,,,1481528.3999999994,1481527077,1481428302,1481429.6999999993,1481444982,1481543749,,black,WE27EC21,24,f,4,0,"Sustainability, Society and the Environment",0,0,0,0,0,,AV
Reaction,canvas.Screen,2_25_0_2,2022-07-04T16:45:26.225Z,,,1,A,227.45099999918602,response,stim_detected,mousedown,1481772.8999999994,1481771.1999999993,1481527077,1481528.6999999993,1481543749,1481778133,,black,WE27EC21,24,f,4,0,"Sustainability, Society and the Environment",0,0,0,0,0,,AV
Trial,flow.Sequence,2_25_0,2022-07-04T16:45:26.226Z,,,1,A,2811.5829999991693,completion,,,1481773.2999999998,1481771.1999999993,1478942.94,1478957.1999999993,1478959617,1481778133,,black,WE27EC21,24,f,4,0,"Sustainability, Society and the Environment",0,0,0,0,0,,AV
Frame,canvas.Frame,2_25,2022-07-04T16:45:26.226Z,,,1,A,2813.7829999993555,,,,1481773.5999999996,1481773.3999999994,1478942.94,1478956.1999999993,1478959617,1481778133,,black,WE27EC21,24,f,4,0,"Sustainability, Society and the Environment",0,0,0,0,0,,AV
Fixation,canvas.Screen,2_26_0_0,2022-07-04T16:45:28.518Z,,,1,A,2301.907000000123,timeout,,,1484065.2999999998,1484063.36,1481761456,1481774.8999999994,1481778133,1484080.04,,black,WE27EC21,24,f,4,0,"Sustainability, Society and the Environment",0,0,0,0,0,,A
Stimulus,canvas.Screen,2_26_0_1,2022-07-04T16:45:28.617Z,,,1,A,99.67800000007264,timeout,,,1484164.3999999994,1484163041,1484063.36,1484065.5,1484080.04,1484179718,,black,WE27EC21,24,f,4,0,"Sustainability, Society and the Environment",0,0,0,0,0,,A
Reaction,canvas.Screen,2_26_0_2,2022-07-04T16:45:28.860Z,,,1,A,225.58199999970384,response,stim_detected,mousedown,1484407,1484405.2999999998,1484163041,1484164.7999999998,1484179718,1484413244,,black,WE27EC21,24,f,4,0,"Sustainability, Society and the Environment",0,0,0,0,0,,A
Trial,flow.Sequence,2_26_0,2022-07-04T16:45:28.860Z,,,1,A,2627.1669999998994,completion,,,1484407.3999999994,1484405.2999999998,1481761456,1481774.7999999998,1481778133,1484413244,,black,WE27EC21,24,f,4,0,"Sustainability, Society and the Environment",0,0,0,0,0,,A
Frame,canvas.Frame,2_26,2022-07-04T16:45:28.860Z,,,1,A,2629.3670000000857,,,,1484407.8999999994,1484407.5,1481761456,1481773.7999999998,1481778133,1484413244,,black,WE27EC21,24,f,4,0,"Sustainability, Society and the Environment",0,0,0,0,0,,A
Fixation,canvas.Screen,2_27_0_0,2022-07-04T16:45:30.685Z,,,1,AV,1834.9930000000168,timeout,,,1486232.3999999994,1486231556,1484396567,1484409,1484413244,1486248237,,grey,WE27EC21,24,f,4,0,"Sustainability, Society and the Environment",0,0,0,0,0,,A
Stimulus,canvas.Screen,2_27_0_1,2022-07-04T16:45:30.785Z,,,1,AV,99.57199999992736,timeout,,,1486332.5,1486331132,1486231556,1486232.6999999993,1486248237,1486347809,,grey,WE27EC21,24,f,4,0,"Sustainability, Society and the Environment",0,0,0,0,0,,A
Reaction,canvas.Screen,2_27_0_2,2022-07-04T16:45:30.964Z,,,1,AV,162.2909999997355,response,stim_detected,mousedown,1486511.8999999994,1486510.0999999996,1486331132,1486332.7999999998,1486347809,1486514659,,grey,WE27EC21,24,f,4,0,"Sustainability, Society and the Environment",0,0,0,0,0,,A
Trial,flow.Sequence,2_27_0,2022-07-04T16:45:30.965Z,,,1,AV,2096.8559999996796,completion,,,1486512.3999999994,1486510.0999999996,1484396567,1484408.8999999994,1484413244,1486514659,,grey,WE27EC21,24,f,4,0,"Sustainability, Society and the Environment",0,0,0,0,0,,A
Frame,canvas.Frame,2_27,2022-07-04T16:45:30.965Z,,,1,AV,2099.3559999996796,,,,1486512.6999999993,1486512.5999999996,1484396567,1484408,1484413244,1486514659,,grey,WE27EC21,24,f,4,0,"Sustainability, Society and the Environment",0,0,0,0,0,,A
Fixation,canvas.Screen,2_28_0_0,2022-07-04T16:45:32.936Z,,,0,V,1984.3030000000726,timeout,,,1488483.5999999996,1488482287,1486497982,1486513.8999999994,1486514659,1488498962,,grey,WE27EC21,24,f,4,0,"Sustainability, Society and the Environment",0,0,0,0,0,,AV
Stimulus,canvas.Screen,2_28_0_1,2022-07-04T16:45:33.036Z,,,0,V,100.5,timeout,,,1488583.5999999996,1488582784,1488482287,1488483.8999999994,1488498962,1488599462,,grey,WE27EC21,24,f,4,0,"Sustainability, Society and the Environment",0,0,0,0,0,,AV
Reaction,canvas.Screen,2_28_0_2,2022-07-04T16:45:33.338Z,,,0,V,283.63799999956973,response,stim_detected,mousedown,1488885.5999999996,1488883.0999999996,1488582784,1488583.7999999998,1488599462,1488899596,,grey,WE27EC21,24,f,4,0,"Sustainability, Society and the Environment",0,0,0,0,0,,AV
Trial,flow.Sequence,2_28_0,2022-07-04T16:45:33.339Z,,,0,V,2368.4409999996424,completion,,,1488886.0999999996,1488883.0999999996,1486497982,1486513.7999999998,1486514659,1488899596,,grey,WE27EC21,24,f,4,0,"Sustainability, Society and the Environment",0,0,0,0,0,,AV
Frame,canvas.Frame,2_28,2022-07-04T16:45:33.339Z,,,0,V,2371.54099999927,,,,1488886.2999999998,1488886.1999999993,1486497982,1486513,1486514659,1488899596,,grey,WE27EC21,24,f,4,0,"Sustainability, Society and the Environment",0,0,0,0,0,,AV
Fixation,canvas.Screen,2_29_0_0,2022-07-04T16:45:34.888Z,,,1,AV,1551.1380000000354,timeout,,,1490435.7999999998,1490434055,1488882919,1488887.3999999994,1488899596,1490450734,,grey,WE27EC21,24,f,4,0,"Sustainability, Society and the Environment",0,0,0,0,0,,V
Stimulus,canvas.Screen,2_29_0_1,2022-07-04T16:45:34.988Z,,,1,AV,99.79900000011548,timeout,,,1490535,1490533857,1490434055,1490436,1490450734,1490550533,,grey,WE27EC21,24,f,4,0,"Sustainability, Society and the Environment",0,0,0,0,0,,V
Reaction,canvas.Screen,2_29_0_2,2022-07-04T16:45:35.182Z,,,1,AV,177.66699999920093,response,stim_detected,mousedown,1490729.6999999993,1490728.1999999993,1490533857,1490535.1999999993,1490550533,1490734158,,grey,WE27EC21,24,f,4,0,"Sustainability, Society and the Environment",0,0,0,0,0,,V
Trial,flow.Sequence,2_29_0,2022-07-04T16:45:35.183Z,,,1,AV,1828.6039999993518,completion,,,1490730.1999999993,1490728.1999999993,1488882919,1488887.2999999998,1488899596,1490734158,,grey,WE27EC21,24,f,4,0,"Sustainability, Society and the Environment",0,0,0,0,0,,V
Frame,canvas.Frame,2_29,2022-07-04T16:45:35.183Z,,,1,AV,1830.7039999999106,,,,1490730.3999999994,1490730.2999999998,1488882919,1488886.5,1488899596,1490734158,,grey,WE27EC21,24,f,4,0,"Sustainability, Society and the Environment",0,0,0,0,0,,V
Fixation,canvas.Screen,2_30_0_0,2022-07-04T16:45:37.339Z,,,0,V,2168.440999999875,timeout,,,1492886.7999999998,1492885919,1490717481,1490731.5999999996,1490734158,1492902599,,grey,WE27EC21,24,f,4,0,"Sustainability, Society and the Environment",0,0,0,0,0,,AV
Stimulus,canvas.Screen,2_30_0_1,2022-07-04T16:45:37.439Z,,,0,V,99.77700000000186,timeout,,,1492986.7999999998,1492985699,1492885919,1492887.0999999996,1492902599,1493002376,,grey,WE27EC21,24,f,4,0,"Sustainability, Society and the Environment",0,0,0,0,0,,AV
Reaction,canvas.Screen,2_30_0_2,2022-07-04T16:45:38.103Z,,,0,V,646.6240000000689,response,stim_detected,mousedown,1493650.6999999993,1493649,1492985699,1492987,1493002376,1493669391,,grey,WE27EC21,24,f,4,0,"Sustainability, Society and the Environment",0,0,0,0,0,,AV
Trial,flow.Sequence,2_30_0,2022-07-04T16:45:38.104Z,,,0,V,2914.841999999946,completion,,,1493651.1999999993,1493649,1490717481,1490731.5,1490734158,1493669391,,grey,WE27EC21,24,f,4,0,"Sustainability, Society and the Environment",0,0,0,0,0,,AV
Frame,canvas.Frame,2_30,2022-07-04T16:45:38.104Z,,,0,V,2917.1419999997597,,,,1493651.5,1493651.2999999998,1490717481,1490730.6999999993,1490734158,1493669391,,grey,WE27EC21,24,f,4,0,"Sustainability, Society and the Environment",0,0,0,0,0,,AV
Fixation,canvas.Screen,2_31_0_0,2022-07-04T16:45:40.060Z,,,1,A,1953.0239999999758,timeout,,,1495607,1495605723,1493636037,1493652.5999999996,1493669391,1495622415,,black,WE27EC21,24,f,4,0,"Sustainability, Society and the Environment",0,0,0,0,0,,V
Stimulus,canvas.Screen,2_31_0_1,2022-07-04T16:45:40.158Z,,,1,A,98.19999999995343,timeout,,,1495705.2999999998,1495703939,1495605723,1495607.1999999993,1495622415,1495720615,,black,WE27EC21,24,f,4,0,"Sustainability, Society and the Environment",0,0,0,0,0,,V
Reaction,canvas.Screen,2_31_0_2,2022-07-04T16:45:40.386Z,,,1,A,211.48499999963678,response,stim_detected,mousedown,1495933.6999999993,1495932.0999999996,1495703939,1495705.6999999993,1495720615,1495937625,,black,WE27EC21,24,f,4,0,"Sustainability, Society and the Environment",0,0,0,0,0,,V
Trial,flow.Sequence,2_31_0,2022-07-04T16:45:40.387Z,,,1,A,2262.708999999566,completion,,,1495934.0999999996,1495932.0999999996,1493636037,1493652.5,1493669391,1495937625,,black,WE27EC21,24,f,4,0,"Sustainability, Society and the Environment",0,0,0,0,0,,V
Frame,canvas.Frame,2_31,2022-07-04T16:45:40.387Z,,,1,A,2264.9089999997523,,,,1495934.5,1495934.2999999998,1493636037,1493651.6999999993,1493669391,1495937625,,black,WE27EC21,24,f,4,0,"Sustainability, Society and the Environment",0,0,0,0,0,,V
Fixation,canvas.Screen,2_32_0_0,2022-07-04T16:45:42.393Z,,,1,A,2018.34300000011,timeout,,,1497940.0999999996,1497939288,1495920948,1495935.5999999996,1495937625,1497955968,,black,WE27EC21,24,f,4,0,"Sustainability, Society and the Environment",0,0,0,0,0,,A
Stimulus,canvas.Screen,2_32_0_1,2022-07-04T16:45:42.493Z,,,1,A,99.54199999989942,timeout,,,1498040,1498038834,1497939288,1497940.2999999998,1497955968,1498055.51,,black,WE27EC21,24,f,4,0,"Sustainability, Society and the Environment",0,0,0,0,0,,A
Reaction,canvas.Screen,2_32_0_2,2022-07-04T16:45:42.780Z,,,1,A,270.58999999961816,response,stim_detected,mousedown,1498327.6999999993,1498326.0999999996,1498038834,1498040.2999999998,1498055.51,1498339231,,black,WE27EC21,24,f,4,0,"Sustainability, Society and the Environment",0,0,0,0,0,,A
Trial,flow.Sequence,2_32_0,2022-07-04T16:45:42.781Z,,,1,A,2388.4749999996275,completion,,,1498328.0999999996,1498326.0999999996,1495920948,1495935.5999999996,1495937625,1498339231,,black,WE27EC21,24,f,4,0,"Sustainability, Society and the Environment",0,0,0,0,0,,A
Frame,canvas.Frame,2_32,2022-07-04T16:45:42.781Z,,,1,A,2390.6749999998137,,,,1498328.3999999994,1498328.2999999998,1495920948,1495934.6999999993,1495937625,1498339231,,black,WE27EC21,24,f,4,0,"Sustainability, Society and the Environment",0,0,0,0,0,,A
Fixation,canvas.Screen,2_33_0_0,2022-07-04T16:45:44.844Z,,,0,V,2067.817000000039,timeout,,,1500391.5999999996,1500390372,1498322554,1498329.5999999996,1498339231,1500407048,,grey,WE27EC21,24,f,4,0,"Sustainability, Society and the Environment",0,0,0,0,0,,A
Stimulus,canvas.Screen,2_33_0_1,2022-07-04T16:45:44.945Z,,,0,V,100.20400000014342,timeout,,,1500492.5999999996,1500490575,1500390372,1500391.7999999998,1500407048,1500507252,,grey,WE27EC21,24,f,4,0,"Sustainability, Society and the Environment",0,0,0,0,0,,A
Reaction,canvas.Screen,2_33_0_2,2022-07-04T16:45:45.287Z,,,0,V,325.747999999905,response,stim_detected,mousedown,1500834.5999999996,1500833,1500490575,1500492.8999999994,1500507252,1500857.57,,grey,WE27EC21,24,f,4,0,"Sustainability, Society and the Environment",0,0,0,0,0,,A
Trial,flow.Sequence,2_33_0,2022-07-04T16:45:45.288Z,,,0,V,2493.7690000000875,completion,,,1500835.0999999996,1500833,1498322554,1498329.5,1498339231,1500857.57,,grey,WE27EC21,24,f,4,0,"Sustainability, Society and the Environment",0,0,0,0,0,,A
Frame,canvas.Frame,2_33,2022-07-04T16:45:45.288Z,,,0,V,2495.9689999993425,,,,1500835.3999999994,1500835.1999999993,1498322554,1498328.5999999996,1498339231,1500857.57,,grey,WE27EC21,24,f,4,0,"Sustainability, Society and the Environment",0,0,0,0,0,,A
Fixation,canvas.Screen,2_34_0_0,2022-07-04T16:45:46.929Z,,,1,AV,1634.2299999999814,timeout,,,1502476.1999999993,1502475124,1500840893,1500836.3999999994,1500857.57,1502491.8,,grey,WE27EC21,24,f,4,0,"Sustainability, Society and the Environment",0,0,0,0,0,,V
Stimulus,canvas.Screen,2_34_0_1,2022-07-04T16:45:47.029Z,,,1,AV,100.32799999997951,timeout,,,1502576.2999999998,1502575.45,1502475124,1502476.5,1502491.8,1502592128,,grey,WE27EC21,24,f,4,0,"Sustainability, Society and the Environment",0,0,0,0,0,,V
Reaction,canvas.Screen,2_34_0_2,2022-07-04T16:45:47.232Z,,,1,AV,185.87199999997392,response,stim_detected,mousedown,1502779.5,1502778,1502575.45,1502576.5,1502592128,1502792222,,grey,WE27EC21,24,f,4,0,"Sustainability, Society and the Environment",0,0,0,0,0,,V
Trial,flow.Sequence,2_34_0,2022-07-04T16:45:47.233Z,,,1,AV,1920.4299999999348,completion,,,1502780,1502778,1500840893,1500836.3999999994,1500857.57,1502792222,,grey,WE27EC21,24,f,4,0,"Sustainability, Society and the Environment",0,0,0,0,0,,V
Frame,canvas.Frame,2_34,2022-07-04T16:45:47.233Z,,,1,AV,1922.5299999995623,,,,1502780.2999999998,1502780.0999999996,1500840893,1500835.6999999993,1500857.57,1502792222,,grey,WE27EC21,24,f,4,0,"Sustainability, Society and the Environment",0,0,0,0,0,,V
Fixation,canvas.Screen,2_35_0_0,2022-07-04T16:45:48.780Z,,,1,AV,1550.530999999959,timeout,,,1504327.3999999994,1504326.08,1502775545,1502781.2999999998,1502792222,1504342753,,grey,WE27EC21,24,f,4,0,"Sustainability, Society and the Environment",0,0,0,0,0,,AV
Stimulus,canvas.Screen,2_35_0_1,2022-07-04T16:45:48.881Z,,,1,AV,100.65100000007078,timeout,,,1504428.2999999998,1504426726,1504326.08,1504327.5999999996,1504342753,1504443404,,grey,WE27EC21,24,f,4,0,"Sustainability, Society and the Environment",0,0,0,0,0,,AV
Reaction,canvas.Screen,2_35_0_2,2022-07-04T16:45:49.095Z,,,1,AV,197.49599999934435,response,stim_detected,mousedown,1504642.5999999996,1504640.8999999994,1504426726,1504428.6999999993,1504443404,1504660148,,grey,WE27EC21,24,f,4,0,"Sustainability, Society and the Environment",0,0,0,0,0,,AV
Trial,flow.Sequence,2_35_0,2022-07-04T16:45:49.096Z,,,1,AV,1848.6779999993742,completion,,,1504643,1504640.8999999994,1502775545,1502781.1999999993,1502792222,1504660148,,grey,WE27EC21,24,f,4,0,"Sustainability, Society and the Environment",0,0,0,0,0,,AV
Frame,canvas.Frame,2_35,2022-07-04T16:45:49.096Z,,,1,AV,1850.8779999995604,,,,1504643.2999999998,1504643.0999999996,1502775545,1502780.5,1502792222,1504660148,,grey,WE27EC21,24,f,4,0,"Sustainability, Society and the Environment",0,0,0,0,0,,AV
Fixation,canvas.Screen,2_36_0_0,2022-07-04T16:45:51.098Z,,,1,A,2000.847000000067,timeout,,,1506645.3999999994,1506644321,1504643471,1504644.8999999994,1504660148,1506660995,,black,WE27EC21,24,f,4,0,"Sustainability, Society and the Environment",0,0,0,0,0,,AV
Stimulus,canvas.Screen,2_36_0_1,2022-07-04T16:45:51.199Z,,,1,A,100.51499999989755,timeout,,,1506746.3999999994,1506744833,1506644321,1506645.6999999993,1506660995,1506761.51,,black,WE27EC21,24,f,4,0,"Sustainability, Society and the Environment",0,0,0,0,0,,AV
Reaction,canvas.Screen,2_36_0_2,2022-07-04T16:45:51.391Z,,,1,A,175.3899999994319,response,stim_detected,mousedown,1506938.5999999996,1506936.8999999994,1506744833,1506746.6999999993,1506761.51,1506961669,,black,WE27EC21,24,f,4,0,"Sustainability, Society and the Environment",0,0,0,0,0,,AV
Trial,flow.Sequence,2_36_0,2022-07-04T16:45:51.392Z,,,1,A,2276.7519999993965,completion,,,1506939,1506936.8999999994,1504643471,1504644.6999999993,1504660148,1506961669,,black,WE27EC21,24,f,4,0,"Sustainability, Society and the Environment",0,0,0,0,0,,AV
Frame,canvas.Frame,2_36,2022-07-04T16:45:51.392Z,,,1,A,2279.0519999992102,,,,1506939.3999999994,1506939.1999999993,1504643471,1504643.5,1504660148,1506961669,,black,WE27EC21,24,f,4,0,"Sustainability, Society and the Environment",0,0,0,0,0,,AV
Fixation,canvas.Screen,2_37_0_0,2022-07-04T16:45:53.350Z,,,1,A,1951.3170000000391,timeout,,,1508897.5999999996,1508896308,1506928315,1506940.5999999996,1506961669,1508912986,,black,WE27EC21,24,f,4,0,"Sustainability, Society and the Environment",0,0,0,0,0,,A
Stimulus,canvas.Screen,2_37_0_1,2022-07-04T16:45:53.450Z,,,1,A,99.62699999986216,timeout,,,1508997.6999999993,1508995939,1508896308,1508897.8999999994,1508912986,1509012613,,black,WE27EC21,24,f,4,0,"Sustainability, Society and the Environment",0,0,0,0,0,,A
Reaction,canvas.Screen,2_37_0_2,2022-07-04T16:45:53.687Z,,,1,A,219.78699999954551,response,stim_detected,mousedown,1509234.1999999993,1509232.3999999994,1508995939,1508997.8999999994,1509012613,1509246537,,black,WE27EC21,24,f,4,0,"Sustainability, Society and the Environment",0,0,0,0,0,,A
Trial,flow.Sequence,2_37_0,2022-07-04T16:45:53.687Z,,,1,A,2270.730999999447,completion,,,1509234.5,1509232.3999999994,1506928315,1506940.5,1506961669,1509246537,,black,WE27EC21,24,f,4,0,"Sustainability, Society and the Environment",0,0,0,0,0,,A
Frame,canvas.Frame,2_37,2022-07-04T16:45:53.687Z,,,1,A,2273.0309999992605,,,,1509234.7999999998,1509234.6999999993,1506928315,1506939.5999999996,1506961669,1509246537,,black,WE27EC21,24,f,4,0,"Sustainability, Society and the Environment",0,0,0,0,0,,A
Fixation,canvas.Screen,2_38_0_0,2022-07-04T16:45:55.268Z,,,1,AV,1583.530999999959,timeout,,,1510815,1510813398,1509229.86,1509236.0999999996,1509246537,1510830068,,grey,WE27EC21,24,f,4,0,"Sustainability, Society and the Environment",0,0,0,0,0,,A
Stimulus,canvas.Screen,2_38_0_1,2022-07-04T16:45:55.368Z,,,1,AV,100.9660000000149,timeout,,,1510915.5999999996,1510914355,1510813398,1510815.2999999998,1510830068,1510931034,,grey,WE27EC21,24,f,4,0,"Sustainability, Society and the Environment",0,0,0,0,0,,A
Reaction,canvas.Screen,2_38_0_2,2022-07-04T16:45:55.571Z,,,1,AV,185.9660000000149,response,stim_detected,mousedown,1511118.5,1511117,1510914355,1510915.8999999994,1510931034,1511131091,,grey,WE27EC21,24,f,4,0,"Sustainability, Society and the Environment",0,0,0,0,0,,A
Trial,flow.Sequence,2_38_0,2022-07-04T16:45:55.572Z,,,1,AV,1870.4629999999888,completion,,,1511119,1511117,1509229.86,1509235.8999999994,1509246537,1511131091,,grey,WE27EC21,24,f,4,0,"Sustainability, Society and the Environment",0,0,0,0,0,,A
Frame,canvas.Frame,2_38,2022-07-04T16:45:55.572Z,,,1,AV,1872.6629999992438,,,,1511119.2999999998,1511119.1999999993,1509229.86,1509235.0999999996,1509246537,1511131091,,grey,WE27EC21,24,f,4,0,"Sustainability, Society and the Environment",0,0,0,0,0,,A
Fixation,canvas.Screen,2_39_0_0,2022-07-04T16:45:57.353Z,,,1,AV,1785.5679999999702,timeout,,,1512900.5999999996,1512899972,1511114414,1511120.3999999994,1511131091,1512916659,,grey,WE27EC21,24,f,4,0,"Sustainability, Society and the Environment",0,0,0,0,0,,AV
Stimulus,canvas.Screen,2_39_0_1,2022-07-04T16:45:57.453Z,,,1,AV,98.85899999993853,timeout,,,1512999.8999999994,1512998842,1512899972,1512900.8999999994,1512916659,1513015518,,grey,WE27EC21,24,f,4,0,"Sustainability, Society and the Environment",0,0,0,0,0,,AV
Reaction,canvas.Screen,2_39_0_2,2022-07-04T16:45:57.733Z,,,1,AV,263.3819999995176,response,stim_detected,mousedown,1513280.5999999996,1513278.8999999994,1512998842,1513000.0999999996,1513015518,1513296154,,grey,WE27EC21,24,f,4,0,"Sustainability, Society and the Environment",0,0,0,0,0,,AV
Trial,flow.Sequence,2_39_0,2022-07-04T16:45:57.734Z,,,1,AV,2147.8089999994263,completion,,,1513281,1513278.8999999994,1511114414,1511120.3999999994,1511131091,1513296154,,grey,WE27EC21,24,f,4,0,"Sustainability, Society and the Environment",0,0,0,0,0,,AV
Frame,canvas.Frame,2_39,2022-07-04T16:45:57.734Z,,,1,AV,2150.10899999924,,,,1513281.2999999998,1513281.1999999993,1511114414,1511119.5,1511131091,1513296154,,grey,WE27EC21,24,f,4,0,"Sustainability, Society and the Environment",0,0,0,0,0,,AV
Fixation,canvas.Screen,2_40_0_0,2022-07-04T16:45:59.504Z,,,0,V,1770.9859999998007,timeout,,,1515051.7999999998,1515050462,1513279631,1513282.5,1513296154,1515067.14,,grey,WE27EC21,24,f,4,0,"Sustainability, Society and the Environment",0,0,0,0,0,,AV
Stimulus,canvas.Screen,2_40_0_1,2022-07-04T16:45:59.604Z,,,0,V,99.93800000008196,timeout,,,1515151.8999999994,1515150401,1515050462,1515052.1999999993,1515067.14,1515167078,,grey,WE27EC21,24,f,4,0,"Sustainability, Society and the Environment",0,0,0,0,0,,AV
Reaction,canvas.Screen,2_40_0_2,2022-07-04T16:45:59.943Z,,,0,V,321.7219999998342,response,stim_detected,mousedown,1515490.5999999996,1515488.7999999998,1515150401,1515152,1515167078,1515500676,,grey,WE27EC21,24,f,4,0,"Sustainability, Society and the Environment",0,0,0,0,0,,AV
Trial,flow.Sequence,2_40_0,2022-07-04T16:45:59.944Z,,,0,V,2192.645999999717,completion,,,1515491.0999999996,1515488.7999999998,1513279631,1513282.3999999994,1513296154,1515500676,,grey,WE27EC21,24,f,4,0,"Sustainability, Society and the Environment",0,0,0,0,0,,AV
Frame,canvas.Frame,2_40,2022-07-04T16:45:59.944Z,,,0,V,2195.045999999158,,,,1515491.3999999994,1515491.1999999993,1513279631,1513281.5,1513296154,1515500676,,grey,WE27EC21,24,f,4,0,"Sustainability, Society and the Environment",0,0,0,0,0,,AV
Fixation,canvas.Screen,2_41_0_0,2022-07-04T16:46:01.923Z,,,0,V,1985.6720000000205,timeout,,,1517470.8999999994,1517469662,1515483999,1515492.5999999996,1515500676,1517486348,,grey,WE27EC21,24,f,4,0,"Sustainability, Society and the Environment",0,0,0,0,0,,V
Stimulus,canvas.Screen,2_41_0_1,2022-07-04T16:46:02.023Z,,,0,V,99.08599999989383,timeout,,,1517569.8999999994,1517568757,1517469662,1517471.0999999996,1517486348,1517585434,,grey,WE27EC21,24,f,4,0,"Sustainability, Society and the Environment",0,0,0,0,0,,V
Reaction,canvas.Screen,2_41_0_2,2022-07-04T16:46:02.234Z,,,0,V,194.46599999954924,response,stim_detected,mousedown,1517781.5999999996,1517779.8999999994,1517568757,1517570.2999999998,1517585434,1517802234,,grey,WE27EC21,24,f,4,0,"Sustainability, Society and the Environment",0,0,0,0,0,,V
Trial,flow.Sequence,2_41_0,2022-07-04T16:46:02.235Z,,,0,V,2279.2239999994636,completion,,,1517782,1517779.8999999994,1515483999,1515492.5,1515500676,1517802234,,grey,WE27EC21,24,f,4,0,"Sustainability, Society and the Environment",0,0,0,0,0,,V
Frame,canvas.Frame,2_41,2022-07-04T16:46:02.235Z,,,0,V,2281.42399999965,,,,1517782.2999999998,1517782.0999999996,1515483999,1515491.5999999996,1515500676,1517802234,,grey,WE27EC21,24,f,4,0,"Sustainability, Society and the Environment",0,0,0,0,0,,V
Fixation,canvas.Screen,2_42_0_0,2022-07-04T16:46:04.492Z,,,0,V,2252.2099999999627,timeout,,,1520039.0999999996,1520037761,1517768.88,1517783.3999999994,1517802234,1520054444,,grey,WE27EC21,24,f,4,0,"Sustainability, Society and the Environment",0,0,0,0,0,,V
Stimulus,canvas.Screen,2_42_0_1,2022-07-04T16:46:04.590Z,,,0,V,98.52600000007078,timeout,,,1520137.0999999996,1520136298,1520037761,1520039.5,1520054444,1520152.97,,grey,WE27EC21,24,f,4,0,"Sustainability, Society and the Environment",0,0,0,0,0,,V
Reaction,canvas.Screen,2_42_0_2,2022-07-04T16:46:04.866Z,,,0,V,258.8299999998417,response,stim_detected,mousedown,1520413.7999999998,1520411.7999999998,1520136298,1520137.2999999998,1520152.97,1520420627,,grey,WE27EC21,24,f,4,0,"Sustainability, Society and the Environment",0,0,0,0,0,,V
Trial,flow.Sequence,2_42_0,2022-07-04T16:46:04.867Z,,,0,V,2609.565999999875,completion,,,1520414.2999999998,1520411.7999999998,1517768.88,1517783.2999999998,1517802234,1520420627,,grey,WE27EC21,24,f,4,0,"Sustainability, Society and the Environment",0,0,0,0,0,,V
Frame,canvas.Frame,2_42,2022-07-04T16:46:04.867Z,,,0,V,2612.1659999995027,,,,1520414.6999999993,1520414.3999999994,1517768.88,1517782.3999999994,1517802234,1520420627,,grey,WE27EC21,24,f,4,0,"Sustainability, Society and the Environment",0,0,0,0,0,,V
Fixation,canvas.Screen,2_43_0_0,2022-07-04T16:46:06.576Z,,,0,V,1718.309999999823,timeout,,,1522123.0999999996,1522122255,1520403.95,1520415.8999999994,1520420627,1522138937,,grey,WE27EC21,24,f,4,0,"Sustainability, Society and the Environment",0,0,0,0,0,,V
Stimulus,canvas.Screen,2_43_0_1,2022-07-04T16:46:06.676Z,,,0,V,99.62300000013784,timeout,,,1522223.0999999996,1522221883,1522122255,1522123.2999999998,1522138937,1522238.56,,grey,WE27EC21,24,f,4,0,"Sustainability, Society and the Environment",0,0,0,0,0,,V
Reaction,canvas.Screen,2_43_0_2,2022-07-04T16:46:06.900Z,,,0,V,207.23999999975786,response,stim_detected,mousedown,1522447.3999999994,1522445.7999999998,1522221883,1522223.2999999998,1522238.56,1522455.33,,grey,WE27EC21,24,f,4,0,"Sustainability, Society and the Environment",0,0,0,0,0,,V
Trial,flow.Sequence,2_43_0,2022-07-04T16:46:06.900Z,,,0,V,2025.1729999997187,completion,,,1522447.7999999998,1522445.7999999998,1520403.95,1520415.7999999998,1520420627,1522455.33,,grey,WE27EC21,24,f,4,0,"Sustainability, Society and the Environment",0,0,0,0,0,,V
Frame,canvas.Frame,2_43,2022-07-04T16:46:06.901Z,,,0,V,2027.2729999993462,,,,1522448.0999999996,1522447.8999999994,1520403.95,1520414.8999999994,1520420627,1522455.33,,grey,WE27EC21,24,f,4,0,"Sustainability, Society and the Environment",0,0,0,0,0,,V
Fixation,canvas.Screen,2_44_0_0,2022-07-04T16:46:09.095Z,,,1,AV,2202.62099999981,timeout,,,1524642.2999999998,1524641265,1522438653,1522449.2999999998,1522455.33,1524657951,,grey,WE27EC21,24,f,4,0,"Sustainability, Society and the Environment",0,0,0,0,0,,V
Stimulus,canvas.Screen,2_44_0_1,2022-07-04T16:46:09.194Z,,,1,AV,98.98200000007637,timeout,,,1524741.2999999998,1524740256,1524641265,1524642.5,1524657951,1524756933,,grey,WE27EC21,24,f,4,0,"Sustainability, Society and the Environment",0,0,0,0,0,,V
Reaction,canvas.Screen,2_44_0_2,2022-07-04T16:46:09.342Z,,,1,AV,130.86699999985285,response,stim_detected,mousedown,1524889.3999999994,1524887.7999999998,1524740256,1524741.5999999996,1524756933,1524906987,,grey,WE27EC21,24,f,4,0,"Sustainability, Society and the Environment",0,0,0,0,0,,V
Trial,flow.Sequence,2_44_0,2022-07-04T16:46:09.342Z,,,1,AV,2432.4699999997392,completion,,,1524889.8999999994,1524887.7999999998,1522438653,1522449.1999999993,1522455.33,1524906987,,grey,WE27EC21,24,f,4,0,"Sustainability, Society and the Environment",0,0,0,0,0,,V
Frame,canvas.Frame,2_44,2022-07-04T16:46:09.343Z,,,1,AV,2434.6699999999255,,,,1524890.1999999993,1524890,1522438653,1522448.1999999993,1522455.33,1524906987,,grey,WE27EC21,24,f,4,0,"Sustainability, Society and the Environment",0,0,0,0,0,,V
Fixation,canvas.Screen,2_45_0_0,2022-07-04T16:46:11.279Z,,,0,V,1934.4129999999423,timeout,,,1526826.3999999994,1526824724,1524890.31,1524891.3999999994,1524906987,1526841.4,,grey,WE27EC21,24,f,4,0,"Sustainability, Society and the Environment",0,0,0,0,0,,AV
Stimulus,canvas.Screen,2_45_0_1,2022-07-04T16:46:11.379Z,,,0,V,100.44599999999627,timeout,,,1526926.2999999998,1526925167,1526824724,1526826.5999999996,1526841.4,1526941846,,grey,WE27EC21,24,f,4,0,"Sustainability, Society and the Environment",0,0,0,0,0,,AV
Reaction,canvas.Screen,2_45_0_2,2022-07-04T16:46:11.581Z,,,0,V,184.9539999999106,response,stim_detected,mousedown,1527128.5,1527126.7999999998,1526925167,1526926.5999999996,1526941846,1527141819,,grey,WE27EC21,24,f,4,0,"Sustainability, Society and the Environment",0,0,0,0,0,,AV
Trial,flow.Sequence,2_45_0,2022-07-04T16:46:11.581Z,,,0,V,2219.812999999849,completion,,,1527128.7999999998,1527126.7999999998,1524890.31,1524891.2999999998,1524906987,1527141819,,grey,WE27EC21,24,f,4,0,"Sustainability, Society and the Environment",0,0,0,0,0,,AV
Frame,canvas.Frame,2_45,2022-07-04T16:46:11.582Z,,,0,V,2221.9129999994766,,,,1527129.1999999993,1527128.8999999994,1524890.31,1524890.3999999994,1524906987,1527141819,,grey,WE27EC21,24,f,4,0,"Sustainability, Society and the Environment",0,0,0,0,0,,AV
Fixation,canvas.Screen,2_46_0_0,2022-07-04T16:46:13.197Z,,,1,A,1618.3890000001993,timeout,,,1528744.5,1528743524,1527125142,1527130.1999999993,1527141819,1528760208,,black,WE27EC21,24,f,4,0,"Sustainability, Society and the Environment",0,0,0,0,0,,V
Stimulus,canvas.Screen,2_46_0_1,2022-07-04T16:46:13.296Z,,,1,A,99.45299999997951,timeout,,,1528843.3999999994,1528842683,1528743524,1528744.7999999998,1528760208,1528859661,,black,WE27EC21,24,f,4,0,"Sustainability, Society and the Environment",0,0,0,0,0,,V
Reaction,canvas.Screen,2_46_0_2,2022-07-04T16:46:13.504Z,,,1,A,190.03899999917485,response,stim_detected,mousedown,1529051.7999999998,1529049.6999999993,1528842683,1528843.6999999993,1528859661,1529076462,,black,WE27EC21,24,f,4,0,"Sustainability, Society and the Environment",0,0,0,0,0,,V
Trial,flow.Sequence,2_46_0,2022-07-04T16:46:13.505Z,,,1,A,1907.8809999993537,completion,,,1529052.0999999996,1529049.6999999993,1527125142,1527130.1999999993,1527141819,1529076462,,black,WE27EC21,24,f,4,0,"Sustainability, Society and the Environment",0,0,0,0,0,,V
Frame,canvas.Frame,2_46,2022-07-04T16:46:13.505Z,,,1,A,1910.4809999999125,,,,1529052.3999999994,1529052.2999999998,1527125142,1527129.2999999998,1527141819,1529076462,,black,WE27EC21,24,f,4,0,"Sustainability, Society and the Environment",0,0,0,0,0,,V
Fixation,canvas.Screen,2_47_0_0,2022-07-04T16:46:15.465Z,,,0,V,1951.2929999998305,timeout,,,1531012.5999999996,1531011077,1529043108,1529076,1529076462,1531027755,,grey,WE27EC21,24,f,4,0,"Sustainability, Society and the Environment",0,0,0,0,0,,A
Stimulus,canvas.Screen,2_47_0_1,2022-07-04T16:46:15.564Z,,,0,V,99.58700000005774,timeout,,,1531111.6999999993,1531110668,1531011077,1531012.8999999994,1531027755,1531127342,,grey,WE27EC21,24,f,4,0,"Sustainability, Society and the Environment",0,0,0,0,0,,A
Reaction,canvas.Screen,2_47_0_2,2022-07-04T16:46:15.781Z,,,0,V,199.45799999986775,response,stim_detected,mousedown,1531328.3999999994,1531326.7999999998,1531110668,1531112,1531127342,1531344644,,grey,WE27EC21,24,f,4,0,"Sustainability, Society and the Environment",0,0,0,0,0,,A
Trial,flow.Sequence,2_47_0,2022-07-04T16:46:15.781Z,,,0,V,2250.337999999756,completion,,,1531328.7999999998,1531326.7999999998,1529043108,1529075.8999999994,1529076462,1531344644,,grey,WE27EC21,24,f,4,0,"Sustainability, Society and the Environment",0,0,0,0,0,,A
Frame,canvas.Frame,2_47,2022-07-04T16:46:15.782Z,,,0,V,2252.5379999999423,,,,1531329.2999999998,1531329,1529043108,1529052.6999999993,1529076462,1531344644,,grey,WE27EC21,24,f,4,0,"Sustainability, Society and the Environment",0,0,0,0,0,,A
Fixation,canvas.Screen,2_48_0_0,2022-07-04T16:46:18.165Z,,,1,AV,2383.378999999957,timeout,,,1533712.5999999996,1533711355,1531327967,1531330.2999999998,1531344644,1533728023,,grey,WE27EC21,24,f,4,0,"Sustainability, Society and the Environment",0,0,0,0,0,,V
Stimulus,canvas.Screen,2_48_0_1,2022-07-04T16:46:18.267Z,,,1,AV,101.53599999984726,timeout,,,1533813.6999999993,1533812882,1533711355,1533712.8999999994,1533728023,1533829559,,grey,WE27EC21,24,f,4,0,"Sustainability, Society and the Environment",0,0,0,0,0,,V
Reaction,canvas.Screen,2_48_0_2,2022-07-04T16:46:18.404Z,,,1,AV,119.24099999992177,response,stim_detected,mousedown,1533950.5,1533948.7999999998,1533812882,1533813.8999999994,1533829559,1533963064,,grey,WE27EC21,24,f,4,0,"Sustainability, Society and the Environment",0,0,0,0,0,,V
Trial,flow.Sequence,2_48_0,2022-07-04T16:46:18.404Z,,,1,AV,2604.155999999726,completion,,,1533950.7999999998,1533948.7999999998,1531327967,1531330.1999999993,1531344644,1533963064,,grey,WE27EC21,24,f,4,0,"Sustainability, Society and the Environment",0,0,0,0,0,,V
Frame,canvas.Frame,2_48,2022-07-04T16:46:18.405Z,,,1,AV,2606.3559999999125,,,,1533951.1999999993,1533951,1531327967,1531329.3999999994,1531344644,1533963064,,grey,WE27EC21,24,f,4,0,"Sustainability, Society and the Environment",0,0,0,0,0,,V
Fixation,canvas.Screen,2_49_0_0,2022-07-04T16:46:20.402Z,,,0,V,2001.2439999999478,timeout,,,1535948.7999999998,1535947631,1533946387,1533952.1999999993,1533963064,1535964308,,grey,WE27EC21,24,f,4,0,"Sustainability, Society and the Environment",0,0,0,0,0,,AV
Stimulus,canvas.Screen,2_49_0_1,2022-07-04T16:46:20.502Z,,,0,V,99.89500000001863,timeout,,,1536048.3999999994,1536047528,1535947631,1535949,1535964308,1536064203,,grey,WE27EC21,24,f,4,0,"Sustainability, Society and the Environment",0,0,0,0,0,,AV
Reaction,canvas.Screen,2_49_0_2,2022-07-04T16:46:20.733Z,,,0,V,213.49699999927543,response,stim_detected,mousedown,1536279.2999999998,1536277.6999999993,1536047528,1536048.5,1536064203,1536281258,,grey,WE27EC21,24,f,4,0,"Sustainability, Society and the Environment",0,0,0,0,0,,AV
Trial,flow.Sequence,2_49_0,2022-07-04T16:46:20.733Z,,,0,V,2314.635999999242,completion,,,1536279.7999999998,1536277.6999999993,1533946387,1533952.1999999993,1533963064,1536281258,,grey,WE27EC21,24,f,4,0,"Sustainability, Society and the Environment",0,0,0,0,0,,AV
Frame,canvas.Frame,2_49,2022-07-04T16:46:20.733Z,,,0,V,2316.7359999998007,,,,1536280,1536279.7999999998,1533946387,1533951.2999999998,1533963064,1536281258,,grey,WE27EC21,24,f,4,0,"Sustainability, Society and the Environment",0,0,0,0,0,,AV
Fixation,canvas.Screen,2_50_0_0,2022-07-04T16:46:22.320Z,,,0,V,1600.9820000000764,timeout,,,1537866.8999999994,1537865563,1536264581,1536281.1999999993,1536281258,1537882.24,,grey,WE27EC21,24,f,4,0,"Sustainability, Society and the Environment",0,0,0,0,0,,V
Stimulus,canvas.Screen,2_50_0_1,2022-07-04T16:46:22.420Z,,,0,V,99.89199999999255,timeout,,,1537966.7999999998,1537965457,1537865563,1537867.0999999996,1537882.24,1537982132,,grey,WE27EC21,24,f,4,0,"Sustainability, Society and the Environment",0,0,0,0,0,,V
Reaction,canvas.Screen,2_50_0_2,2022-07-04T16:46:22.674Z,,,0,V,236.46799999964423,response,stim_detected,mousedown,1538220.2999999998,1538218.5999999996,1537965457,1537967.0999999996,1537982132,1538232571,,grey,WE27EC21,24,f,4,0,"Sustainability, Society and the Environment",0,0,0,0,0,,V
Trial,flow.Sequence,2_50_0,2022-07-04T16:46:22.674Z,,,0,V,1937.3419999997132,completion,,,1538220.6999999993,1538218.5999999996,1536264581,1536281.0999999996,1536281258,1538232571,,grey,WE27EC21,24,f,4,0,"Sustainability, Society and the Environment",0,0,0,0,0,,V
Frame,canvas.Frame,2_50,2022-07-04T16:46:22.674Z,,,0,V,1939.5419999998994,,,,1538220.8999999994,1538220.7999999998,1536264581,1536280.1999999993,1536281258,1538232571,,grey,WE27EC21,24,f,4,0,"Sustainability, Society and the Environment",0,0,0,0,0,,V
Fixation,canvas.Screen,2_51_0_0,2022-07-04T16:46:24.238Z,,,0,V,1568.0770000000484,timeout,,,1539785.0999999996,1539783967,1538215894,1538222.0999999996,1538232571,1539800648,,grey,WE27EC21,24,f,4,0,"Sustainability, Society and the Environment",0,0,0,0,0,,V
Stimulus,canvas.Screen,2_51_0_1,2022-07-04T16:46:24.338Z,,,0,V,99.42699999990873,timeout,,,1539885.0999999996,1539883.4,1539783967,1539785.2999999998,1539800648,1539900075,,grey,WE27EC21,24,f,4,0,"Sustainability, Society and the Environment",0,0,0,0,0,,V
Reaction,canvas.Screen,2_51_0_2,2022-07-04T16:46:24.547Z,,,0,V,191.42500000004657,response,stim_detected,mousedown,1540093.1999999993,1540091.5,1539883.4,1539885.2999999998,1539900075,1540100.47,,grey,WE27EC21,24,f,4,0,"Sustainability, Society and the Environment",0,0,0,0,0,,V
Trial,flow.Sequence,2_51_0,2022-07-04T16:46:24.547Z,,,0,V,1858.9290000000037,completion,,,1540093.6999999993,1540091.5,1538215894,1538222.0999999996,1538232571,1540100.47,,grey,WE27EC21,24,f,4,0,"Sustainability, Society and the Environment",0,0,0,0,0,,V
Frame,canvas.Frame,2_51,2022-07-04T16:46:24.547Z,,,0,V,1861.2289999998175,,,,1540093.8999999994,1540093.7999999998,1538215894,1538221.0999999996,1538232571,1540100.47,,grey,WE27EC21,24,f,4,0,"Sustainability, Society and the Environment",0,0,0,0,0,,V
Fixation,canvas.Screen,2_52_0_0,2022-07-04T16:46:26.290Z,,,0,V,1751.9560000000056,timeout,,,1541837.0999999996,1541835741,1540083793,1540095.0999999996,1540100.47,1541852426,,grey,WE27EC21,24,f,4,0,"Sustainability, Society and the Environment",0,0,0,0,0,,V
Stimulus,canvas.Screen,2_52_0_1,2022-07-04T16:46:26.389Z,,,0,V,99.3389999999199,timeout,,,1541936.0999999996,1541935087,1541835741,1541837.2999999998,1541852426,1541951765,,grey,WE27EC21,24,f,4,0,"Sustainability, Society and the Environment",0,0,0,0,0,,V
Reaction,canvas.Screen,2_52_0_2,2022-07-04T16:46:26.577Z,,,0,V,169.83499999972992,response,stim_detected,mousedown,1542123.1999999993,1542121.5999999996,1541935087,1541936.2999999998,1541951765,1542135192,,grey,WE27EC21,24,f,4,0,"Sustainability, Society and the Environment",0,0,0,0,0,,V
Trial,flow.Sequence,2_52_0,2022-07-04T16:46:26.577Z,,,0,V,2021.1299999996554,completion,,,1542123.5999999996,1542121.5999999996,1540083793,1540095,1540100.47,1542135192,,grey,WE27EC21,24,f,4,0,"Sustainability, Society and the Environment",0,0,0,0,0,,V
Frame,canvas.Frame,2_52,2022-07-04T16:46:26.577Z,,,0,V,2023.2299999992829,,,,1542123.8999999994,1542123.6999999993,1540083793,1540094.0999999996,1540100.47,1542135192,,grey,WE27EC21,24,f,4,0,"Sustainability, Society and the Environment",0,0,0,0,0,,V
Fixation,canvas.Screen,2_53_0_0,2022-07-04T16:46:28.974Z,,,1,AV,2400.7099999999627,timeout,,,1544520.1999999993,1544519.23,1542118515,1542125.1999999993,1542135192,1544535902,,grey,WE27EC21,24,f,4,0,"Sustainability, Society and the Environment",0,0,0,0,0,,V
Stimulus,canvas.Screen,2_53_0_1,2022-07-04T16:46:29.075Z,,,1,AV,101.15200000000186,timeout,,,1544621.0999999996,1544620375,1544519.23,1544520.3999999994,1544535902,1544637054,,grey,WE27EC21,24,f,4,0,"Sustainability, Society and the Environment",0,0,0,0,0,,V
Reaction,canvas.Screen,2_53_0_2,2022-07-04T16:46:29.257Z,,,1,AV,164.54599999962375,response,stim_detected,mousedown,1544803.1999999993,1544801.5999999996,1544620375,1544621.3999999994,1544637054,1544820317,,grey,WE27EC21,24,f,4,0,"Sustainability, Society and the Environment",0,0,0,0,0,,V
Trial,flow.Sequence,2_53_0,2022-07-04T16:46:29.257Z,,,1,AV,2666.4079999995884,completion,,,1544803.5999999996,1544801.5999999996,1542118515,1542125.0999999996,1542135192,1544820317,,grey,WE27EC21,24,f,4,0,"Sustainability, Society and the Environment",0,0,0,0,0,,V
Frame,canvas.Frame,2_53,2022-07-04T16:46:29.257Z,,,1,AV,2668.507999999216,,,,1544804,1544803.6999999993,1542118515,1542124.0999999996,1542135192,1544820317,,grey,WE27EC21,24,f,4,0,"Sustainability, Society and the Environment",0,0,0,0,0,,V
Fixation,canvas.Screen,2_54_0_0,2022-07-04T16:46:30.876Z,,,1,A,1617.5649999999441,timeout,,,1546422.1999999993,1546421206,1544803.64,1544805.1999999993,1544820317,1546437882,,black,WE27EC21,24,f,4,0,"Sustainability, Society and the Environment",0,0,0,0,0,,AV
Stimulus,canvas.Screen,2_54_0_1,2022-07-04T16:46:30.976Z,,,1,A,99.8389999999199,timeout,,,1546522.1999999993,1546521047,1546421206,1546422.3999999994,1546437882,1546537721,,black,WE27EC21,24,f,4,0,"Sustainability, Society and the Environment",0,0,0,0,0,,AV
Reaction,canvas.Screen,2_54_0_2,2022-07-04T16:46:31.279Z,,,1,A,285.87899999972433,response,stim_detected,mousedown,1546825.3999999994,1546823.5999999996,1546521047,1546522.5,1546537721,1546838323,,black,WE27EC21,24,f,4,0,"Sustainability, Society and the Environment",0,0,0,0,0,,AV
Trial,flow.Sequence,2_54_0,2022-07-04T16:46:31.279Z,,,1,A,2003.2829999995884,completion,,,1546825.7999999998,1546823.5999999996,1544803.64,1544805.0999999996,1544820317,1546838323,,black,WE27EC21,24,f,4,0,"Sustainability, Society and the Environment",0,0,0,0,0,,AV
Frame,canvas.Frame,2_54,2022-07-04T16:46:31.279Z,,,1,A,2005.582999999402,,,,1546826.0999999996,1546825.8999999994,1544803.64,1544804.1999999993,1544820317,1546838323,,black,WE27EC21,24,f,4,0,"Sustainability, Society and the Environment",0,0,0,0,0,,AV
Fixation,canvas.Screen,2_55_0_0,2022-07-04T16:46:33.427Z,,,1,AV,2150.583999999799,timeout,,,1548973.5999999996,1548972235,1546821646,1546827.1999999993,1546838323,1548988907,,grey,WE27EC21,24,f,4,0,"Sustainability, Society and the Environment",0,0,0,0,0,,A
Stimulus,canvas.Screen,2_55_0_1,2022-07-04T16:46:33.528Z,,,1,AV,100.94700000016019,timeout,,,1549074.5,1549073176,1548972235,1548974,1548988907,1549089854,,grey,WE27EC21,24,f,4,0,"Sustainability, Society and the Environment",0,0,0,0,0,,A
Reaction,canvas.Screen,2_55_0_2,2022-07-04T16:46:33.717Z,,,1,AV,171.74599999957718,response,stim_detected,mousedown,1549263.1999999993,1549261.5999999996,1549073176,1549074.6999999993,1549089854,1549273264,,grey,WE27EC21,24,f,4,0,"Sustainability, Society and the Environment",0,0,0,0,0,,A
Trial,flow.Sequence,2_55_0,2022-07-04T16:46:33.717Z,,,1,AV,2423.276999999536,completion,,,1549263.5999999996,1549261.5999999996,1546821646,1546827.0999999996,1546838323,1549273264,,grey,WE27EC21,24,f,4,0,"Sustainability, Society and the Environment",0,0,0,0,0,,A
Frame,canvas.Frame,2_55,2022-07-04T16:46:33.717Z,,,1,AV,2425.3769999991637,,,,1549263.8999999994,1549263.6999999993,1546821646,1546826.1999999993,1546838323,1549273264,,grey,WE27EC21,24,f,4,0,"Sustainability, Society and the Environment",0,0,0,0,0,,A
Fixation,canvas.Screen,2_56_0_0,2022-07-04T16:46:35.931Z,,,0,V,2219.4610000001267,timeout,,,1551477.6999999993,1551476038,1549256587,1549265,1549273264,1551492725,,grey,WE27EC21,24,f,4,0,"Sustainability, Society and the Environment",0,0,0,0,0,,AV
Stimulus,canvas.Screen,2_56_0_1,2022-07-04T16:46:36.029Z,,,0,V,98.78599999984726,timeout,,,1551575.6999999993,1551574301,1551476038,1551478,1551492725,1551591511,,grey,WE27EC21,24,f,4,0,"Sustainability, Society and the Environment",0,0,0,0,0,,AV
Reaction,canvas.Screen,2_56_0_2,2022-07-04T16:46:36.313Z,,,0,V,265.9890000000596,response,stim_detected,mousedown,1551859.5,1551857.5,1551574301,1551575.8999999994,1551591511,1551875.02,,grey,WE27EC21,24,f,4,0,"Sustainability, Society and the Environment",0,0,0,0,0,,AV
Trial,flow.Sequence,2_56_0,2022-07-04T16:46:36.313Z,,,0,V,2584.2360000000335,completion,,,1551859.8999999994,1551857.5,1549256587,1549265,1549273264,1551875.02,,grey,WE27EC21,24,f,4,0,"Sustainability, Society and the Environment",0,0,0,0,0,,AV
Frame,canvas.Frame,2_56,2022-07-04T16:46:36.314Z,,,0,V,2586.835999999661,,,,1551860.1999999993,1551860.0999999996,1549256587,1549264,1549273264,1551875.02,,grey,WE27EC21,24,f,4,0,"Sustainability, Society and the Environment",0,0,0,0,0,,AV
Fixation,canvas.Screen,2_57_0_0,2022-07-04T16:46:38.531Z,,,1,A,2218.4830000000075,timeout,,,1554077.6999999993,1554076823,1551858343,1551861.3999999994,1551875.02,1554093503,,black,WE27EC21,24,f,4,0,"Sustainability, Society and the Environment",0,0,0,0,0,,V
Stimulus,canvas.Screen,2_57_0_1,2022-07-04T16:46:38.631Z,,,1,A,99.6480000000447,timeout,,,1554177.5999999996,1554176474,1554076823,1554078,1554093503,1554193151,,black,WE27EC21,24,f,4,0,"Sustainability, Society and the Environment",0,0,0,0,0,,V
Reaction,canvas.Screen,2_57_0_2,2022-07-04T16:46:38.824Z,,,1,A,175.34899999992922,response,stim_detected,mousedown,1554370.0999999996,1554368.5,1554176474,1554177.8999999994,1554193151,1554376.71,,black,WE27EC21,24,f,4,0,"Sustainability, Society and the Environment",0,0,0,0,0,,V
Trial,flow.Sequence,2_57_0,2022-07-04T16:46:38.824Z,,,1,A,2493.4799999999814,completion,,,1554370.5,1554368.5,1551858343,1551861.2999999998,1551875.02,1554376.71,,black,WE27EC21,24,f,4,0,"Sustainability, Society and the Environment",0,0,0,0,0,,V
Frame,canvas.Frame,2_57,2022-07-04T16:46:38.824Z,,,1,A,2495.6799999992363,,,,1554370.8999999994,1554370.6999999993,1551858343,1551860.3999999994,1551875.02,1554376.71,,black,WE27EC21,24,f,4,0,"Sustainability, Society and the Environment",0,0,0,0,0,,V
Fixation,canvas.Screen,2_58_0_0,2022-07-04T16:46:40.399Z,,,1,A,1584.8200000000652,timeout,,,1555945.7999999998,1555944848,1554360033,1554372.0999999996,1554376.71,1555961.53,,black,WE27EC21,24,f,4,0,"Sustainability, Society and the Environment",0,0,0,0,0,,A
Stimulus,canvas.Screen,2_58_0_1,2022-07-04T16:46:40.499Z,,,1,A,99.25900000007823,timeout,,,1556045.7999999998,1556044115,1555944848,1555946,1555961.53,1556060789,,black,WE27EC21,24,f,4,0,"Sustainability, Society and the Environment",0,0,0,0,0,,A
Reaction,canvas.Screen,2_58_0_2,2022-07-04T16:46:40.815Z,,,1,A,298.91099999914877,response,stim_detected,mousedown,1556361.5999999996,1556359.6999999993,1556044115,1556046,1556060789,1556378017,,black,WE27EC21,24,f,4,0,"Sustainability, Society and the Environment",0,0,0,0,0,,A
Trial,flow.Sequence,2_58_0,2022-07-04T16:46:40.815Z,,,1,A,1982.9899999992922,completion,,,1556362,1556359.6999999993,1554360033,1554371.8999999994,1554376.71,1556378017,,black,WE27EC21,24,f,4,0,"Sustainability, Society and the Environment",0,0,0,0,0,,A
Frame,canvas.Frame,2_58,2022-07-04T16:46:40.816Z,,,1,A,1985.3899999996647,,,,1556362.2999999998,1556362.0999999996,1554360033,1554371,1554376.71,1556378017,,black,WE27EC21,24,f,4,0,"Sustainability, Society and the Environment",0,0,0,0,0,,A
Fixation,canvas.Screen,2_59_0_0,2022-07-04T16:46:42.986Z,,,0,V,2169.216000000015,timeout,,,1558532.6999999993,1558530547,1556361.34,1556363.3999999994,1556378017,1558547233,,grey,WE27EC21,24,f,4,0,"Sustainability, Society and the Environment",0,0,0,0,0,,A
Stimulus,canvas.Screen,2_59_0_1,2022-07-04T16:46:43.083Z,,,0,V,98.57599999988452,timeout,,,1558630,1558629135,1558530547,1558532.8999999994,1558547233,1558645809,,grey,WE27EC21,24,f,4,0,"Sustainability, Society and the Environment",0,0,0,0,0,,A
Reaction,canvas.Screen,2_59_0_2,2022-07-04T16:46:43.325Z,,,0,V,224.59099999954924,response,stim_detected,mousedown,1558872.0999999996,1558870.3999999994,1558629135,1558630.2999999998,1558645809,1558879682,,grey,WE27EC21,24,f,4,0,"Sustainability, Society and the Environment",0,0,0,0,0,,A
Trial,flow.Sequence,2_59_0,2022-07-04T16:46:43.326Z,,,0,V,2492.3829999994487,completion,,,1558872.5,1558870.3999999994,1556361.34,1556363.3999999994,1556378017,1558879682,,grey,WE27EC21,24,f,4,0,"Sustainability, Society and the Environment",0,0,0,0,0,,A
Frame,canvas.Frame,2_59,2022-07-04T16:46:43.326Z,,,0,V,2494.582999999635,,,,1558872.7999999998,1558872.5999999996,1556361.34,1556362.3999999994,1556378017,1558879682,,grey,WE27EC21,24,f,4,0,"Sustainability, Society and the Environment",0,0,0,0,0,,A
Fixation,canvas.Screen,2_60_0_0,2022-07-04T16:46:45.020Z,,,1,AV,1702.3619999999646,timeout,,,1560567,1560565356,1558863005,1558873.8999999994,1558879682,1560582044,,grey,WE27EC21,24,f,4,0,"Sustainability, Society and the Environment",0,0,0,0,0,,V
Stimulus,canvas.Screen,2_60_0_1,2022-07-04T16:46:45.118Z,,,1,AV,98.86199999996461,timeout,,,1560665,1560663941,1560565356,1560567.0999999996,1560582044,1560680906,,grey,WE27EC21,24,f,4,0,"Sustainability, Society and the Environment",0,0,0,0,0,,V
Reaction,canvas.Screen,2_60_0_2,2022-07-04T16:46:45.395Z,,,1,AV,258.594000000041,response,stim_detected,mousedown,1560941.3999999994,1560939.5,1560663941,1560665.2999999998,1560680906,1560947738,,grey,WE27EC21,24,f,4,0,"Sustainability, Society and the Environment",0,0,0,0,0,,V
Trial,flow.Sequence,2_60_0,2022-07-04T16:46:45.395Z,,,1,AV,2059.81799999997,completion,,,1560941.7999999998,1560939.5,1558863005,1558873.6999999993,1558879682,1560947738,,grey,WE27EC21,24,f,4,0,"Sustainability, Society and the Environment",0,0,0,0,0,,V
Frame,canvas.Frame,2_60,2022-07-04T16:46:45.396Z,,,1,AV,2062.2179999994114,,,,1560942.0999999996,1560941.8999999994,1558863005,1558872.8999999994,1558879682,1560947738,,grey,WE27EC21,24,f,4,0,"Sustainability, Society and the Environment",0,0,0,0,0,,V
Fixation,canvas.Screen,2_61_0_0,2022-07-04T16:46:47.354Z,,,1,A,1968.6020000001881,timeout,,,1562901.0999999996,1562899657,1560931061,1560943.2999999998,1560947738,1562916.34,,black,WE27EC21,24,f,4,0,"Sustainability, Society and the Environment",0,0,0,0,0,,AV
Stimulus,canvas.Screen,2_61_0_1,2022-07-04T16:46:47.454Z,,,1,A,98.96999999997206,timeout,,,1563000.0999999996,1562998636,1562899657,1562901.3999999994,1562916.34,1563015.31,,black,WE27EC21,24,f,4,0,"Sustainability, Society and the Environment",0,0,0,0,0,,AV
Reaction,canvas.Screen,2_61_0_2,2022-07-04T16:46:47.710Z,,,1,A,239.08999999938533,response,stim_detected,mousedown,1563256.2999999998,1563254.3999999994,1562998636,1563000.5,1563015.31,1563265966,,black,WE27EC21,24,f,4,0,"Sustainability, Society and the Environment",0,0,0,0,0,,AV
Trial,flow.Sequence,2_61_0,2022-07-04T16:46:47.710Z,,,1,A,2306.6619999995455,completion,,,1563256.6999999993,1563254.3999999994,1560931061,1560943.0999999996,1560947738,1563265966,,black,WE27EC21,24,f,4,0,"Sustainability, Society and the Environment",0,0,0,0,0,,AV
Frame,canvas.Frame,2_61,2022-07-04T16:46:47.710Z,,,1,A,2309.061999999918,,,,1563257,1563256.7999999998,1560931061,1560942.2999999998,1560947738,1563265966,,black,WE27EC21,24,f,4,0,"Sustainability, Society and the Environment",0,0,0,0,0,,AV
Fixation,canvas.Screen,2_62_0_0,2022-07-04T16:46:49.638Z,,,0,V,1933.4820000000764,timeout,,,1565184.1999999993,1565182779,1563249289,1563258.2999999998,1563265966,1565199448,,grey,WE27EC21,24,f,4,0,"Sustainability, Society and the Environment",0,0,0,0,0,,A
Stimulus,canvas.Screen,2_62_0_1,2022-07-04T16:46:49.739Z,,,0,V,100.92799999983981,timeout,,,1565285.0999999996,1565283701,1565182779,1565184.3999999994,1565199448,1565300376,,grey,WE27EC21,24,f,4,0,"Sustainability, Society and the Environment",0,0,0,0,0,,A
Reaction,canvas.Screen,2_62_0_2,2022-07-04T16:46:49.970Z,,,0,V,215.02399999951012,response,stim_detected,mousedown,1565517.0999999996,1565515.3999999994,1565283701,1565285.3999999994,1565300376,1565534155,,grey,WE27EC21,24,f,4,0,"Sustainability, Society and the Environment",0,0,0,0,0,,A
Trial,flow.Sequence,2_62_0,2022-07-04T16:46:49.971Z,,,0,V,2249.4339999994263,completion,,,1565517.5,1565515.3999999994,1563249289,1563258.0999999996,1563265966,1565534155,,grey,WE27EC21,24,f,4,0,"Sustainability, Society and the Environment",0,0,0,0,0,,A
Frame,canvas.Frame,2_62,2022-07-04T16:46:49.971Z,,,0,V,2251.73399999924,,,,1565517.7999999998,1565517.6999999993,1563249289,1563257.1999999993,1563265966,1565534155,,grey,WE27EC21,24,f,4,0,"Sustainability, Society and the Environment",0,0,0,0,0,,A
Fixation,canvas.Screen,2_63_0_0,2022-07-04T16:46:51.974Z,,,0,V,2002.0149999998976,timeout,,,1567520.2999999998,1567519487,1565517478,1565519.0999999996,1565534155,1567536.17,,grey,WE27EC21,24,f,4,0,"Sustainability, Society and the Environment",0,0,0,0,0,,V
Stimulus,canvas.Screen,2_63_0_1,2022-07-04T16:46:52.073Z,,,0,V,99.0480000001844,timeout,,,1567619.3999999994,1567618543,1567519487,1567520.5999999996,1567536.17,1567635218,,grey,WE27EC21,24,f,4,0,"Sustainability, Society and the Environment",0,0,0,0,0,,V
Reaction,canvas.Screen,2_63_0_2,2022-07-04T16:46:52.266Z,,,0,V,176.1819999993313,response,stim_detected,mousedown,1567813,1567811.3999999994,1567618543,1567619.5999999996,1567635218,1567819059,,grey,WE27EC21,24,f,4,0,"Sustainability, Society and the Environment",0,0,0,0,0,,V
Trial,flow.Sequence,2_63_0,2022-07-04T16:46:52.267Z,,,0,V,2277.2449999994133,completion,,,1567813.3999999994,1567811.3999999994,1565517478,1565518.8999999994,1565534155,1567819059,,grey,WE27EC21,24,f,4,0,"Sustainability, Society and the Environment",0,0,0,0,0,,V
Frame,canvas.Frame,2_63,2022-07-04T16:46:52.267Z,,,0,V,2279.4449999995995,,,,1567813.7999999998,1567813.5999999996,1565517478,1565517.8999999994,1565534155,1567819059,,grey,WE27EC21,24,f,4,0,"Sustainability, Society and the Environment",0,0,0,0,0,,V
Fixation,canvas.Screen,2_64_0_0,2022-07-04T16:46:54.508Z,,,1,A,2250.6500000001397,timeout,,,1570054.2999999998,1570053037,1567802382,1567814.7999999998,1567819059,1570069709,,black,WE27EC21,24,f,4,0,"Sustainability, Society and the Environment",0,0,0,0,0,,V
Stimulus,canvas.Screen,2_64_0_1,2022-07-04T16:46:54.608Z,,,1,A,100.18900000001304,timeout,,,1570154.2999999998,1570153225,1570053037,1570054.5999999996,1570069709,1570169898,,black,WE27EC21,24,f,4,0,"Sustainability, Society and the Environment",0,0,0,0,0,,V
Reaction,canvas.Screen,2_64_0_2,2022-07-04T16:46:54.838Z,,,1,A,212.5019999993965,response,stim_detected,mousedown,1570384.2999999998,1570382.3999999994,1570153225,1570154.5999999996,1570169898,1570387405,,black,WE27EC21,24,f,4,0,"Sustainability, Society and the Environment",0,0,0,0,0,,V
Trial,flow.Sequence,2_64_0,2022-07-04T16:46:54.838Z,,,1,A,2563.3409999995492,completion,,,1570384.7999999998,1570382.3999999994,1567802382,1567814.7999999998,1567819059,1570387405,,black,WE27EC21,24,f,4,0,"Sustainability, Society and the Environment",0,0,0,0,0,,V
Frame,canvas.Frame,2_64,2022-07-04T16:46:54.839Z,,,1,A,2565.941000000108,,,,1570385.0999999996,1570385,1567802382,1567814,1567819059,1570387405,,black,WE27EC21,24,f,4,0,"Sustainability, Society and the Environment",0,0,0,0,0,,V
Fixation,canvas.Screen,2_65_0_0,2022-07-04T16:46:56.927Z,,,0,V,2101.162000000011,timeout,,,1572473.5,1572471891,1570370728,1570386.5999999996,1570387405,1572488567,,grey,WE27EC21,24,f,4,0,"Sustainability, Society and the Environment",0,0,0,0,0,,A
Stimulus,canvas.Screen,2_65_0_1,2022-07-04T16:46:57.028Z,,,0,V,100.2730000000447,timeout,,,1572574.2999999998,1572572163,1572471891,1572473.6999999993,1572488567,1572588.84,,grey,WE27EC21,24,f,4,0,"Sustainability, Society and the Environment",0,0,0,0,0,,A
Reaction,canvas.Screen,2_65_0_2,2022-07-04T16:46:57.219Z,,,0,V,175.45999999972992,response,stim_detected,mousedown,1572766,1572764.2999999998,1572572163,1572574.5,1572588.84,1572772303,,grey,WE27EC21,24,f,4,0,"Sustainability, Society and the Environment",0,0,0,0,0,,A
Trial,flow.Sequence,2_65_0,2022-07-04T16:46:57.220Z,,,0,V,2376.894999999786,completion,,,1572766.5,1572764.2999999998,1570370728,1570386.5,1570387405,1572772303,,grey,WE27EC21,24,f,4,0,"Sustainability, Society and the Environment",0,0,0,0,0,,A
Frame,canvas.Frame,2_65,2022-07-04T16:46:57.220Z,,,0,V,2379.094999999972,,,,1572766.6999999993,1572766.5,1570370728,1570385.2999999998,1570387405,1572772303,,grey,WE27EC21,24,f,4,0,"Sustainability, Society and the Environment",0,0,0,0,0,,A
Fixation,canvas.Screen,2_66_0_0,2022-07-04T16:46:59.430Z,,,1,AV,2219.4599999999627,timeout,,,1574976.5999999996,1574975076,1572755626,1572767.8999999994,1572772303,1574991763,,grey,WE27EC21,24,f,4,0,"Sustainability, Society and the Environment",0,0,0,0,0,,V
Stimulus,canvas.Screen,2_66_0_1,2022-07-04T16:46:59.528Z,,,1,AV,98.69900000002235,timeout,,,1575074.5,1575073785,1574975076,1574976.7999999998,1574991763,1575090462,,grey,WE27EC21,24,f,4,0,"Sustainability, Society and the Environment",0,0,0,0,0,,V
Reaction,canvas.Screen,2_66_0_2,2022-07-04T16:46:59.703Z,,,1,AV,157.837999999756,response,stim_detected,mousedown,1575250,1575248.2999999998,1575073785,1575074.6999999993,1575090462,1575274014,,grey,WE27EC21,24,f,4,0,"Sustainability, Society and the Environment",0,0,0,0,0,,V
Trial,flow.Sequence,2_66_0,2022-07-04T16:46:59.704Z,,,1,AV,2475.996999999741,completion,,,1575250.3999999994,1575248.2999999998,1572755626,1572767.7999999998,1572772303,1575274014,,grey,WE27EC21,24,f,4,0,"Sustainability, Society and the Environment",0,0,0,0,0,,V
Frame,canvas.Frame,2_66,2022-07-04T16:46:59.704Z,,,1,AV,2478.1969999999274,,,,1575250.6999999993,1575250.5,1572755626,1572767,1572772303,1575274014,,grey,WE27EC21,24,f,4,0,"Sustainability, Society and the Environment",0,0,0,0,0,,V
Fixation,canvas.Screen,2_67_0_0,2022-07-04T16:47:02.096Z,,,1,A,2384.347999999998,timeout,,,1577643,1577641688,1575240.66,1575276.5,1575274014,1577658362,,black,WE27EC21,24,f,4,0,"Sustainability, Society and the Environment",0,0,0,0,0,,AV
Stimulus,canvas.Screen,2_67_0_1,2022-07-04T16:47:02.198Z,,,1,A,100.65700000012293,timeout,,,1577744.5999999996,1577742341,1577641688,1577643.3999999994,1577658362,1577759019,,black,WE27EC21,24,f,4,0,"Sustainability, Society and the Environment",0,0,0,0,0,,AV
Reaction,canvas.Screen,2_67_0_2,2022-07-04T16:47:02.428Z,,,1,A,213.2809999997262,response,stim_detected,mousedown,1577974.1999999993,1577972.2999999998,1577742341,1577744.6999999993,1577759019,1577975827,,black,WE27EC21,24,f,4,0,"Sustainability, Society and the Environment",0,0,0,0,0,,AV
Trial,flow.Sequence,2_67_0,2022-07-04T16:47:02.428Z,,,1,A,2698.2859999998473,completion,,,1577974.6999999993,1577972.2999999998,1575240.66,1575276.3999999994,1575274014,1577975827,,black,WE27EC21,24,f,4,0,"Sustainability, Society and the Environment",0,0,0,0,0,,AV
Frame,canvas.Frame,2_67,2022-07-04T16:47:02.428Z,,,1,A,2700.7859999998473,,,,1577975,1577974.7999999998,1575240.66,1575250.8999999994,1575274014,1577975827,,black,WE27EC21,24,f,4,0,"Sustainability, Society and the Environment",0,0,0,0,0,,AV
Fixation,canvas.Screen,2_68_0_0,2022-07-04T16:47:04.398Z,,,1,AV,1984.5629999998491,timeout,,,1579944.7999999998,1579943713,1577959.15,1577976.1999999993,1577975827,1579960.39,,grey,WE27EC21,24,f,4,0,"Sustainability, Society and the Environment",0,0,0,0,0,,A
Stimulus,canvas.Screen,2_68_0_1,2022-07-04T16:47:04.498Z,,,1,AV,99.96000000019558,timeout,,,1580044.8999999994,1580043674,1579943713,1579945,1579960.39,1580060.35,,grey,WE27EC21,24,f,4,0,"Sustainability, Society and the Environment",0,0,0,0,0,,A
Reaction,canvas.Screen,2_68_0_2,2022-07-04T16:47:04.672Z,,,1,AV,156.9499999997206,response,stim_detected,mousedown,1580219,1580217.2999999998,1580043674,1580045.0999999996,1580060.35,1580227312,,grey,WE27EC21,24,f,4,0,"Sustainability, Society and the Environment",0,0,0,0,0,,A
Trial,flow.Sequence,2_68_0,2022-07-04T16:47:04.673Z,,,1,AV,2241.4729999997653,completion,,,1580219.2999999998,1580217.2999999998,1577959.15,1577976.0999999996,1577975827,1580227312,,grey,WE27EC21,24,f,4,0,"Sustainability, Society and the Environment",0,0,0,0,0,,A
Frame,canvas.Frame,2_68,2022-07-04T16:47:04.673Z,,,1,AV,2243.6729999999516,,,,1580219.6999999993,1580219.5,1577959.15,1577975.1999999993,1577975827,1580227312,,grey,WE27EC21,24,f,4,0,"Sustainability, Society and the Environment",0,0,0,0,0,,A
Fixation,canvas.Screen,2_69_0_0,2022-07-04T16:47:06.816Z,,,1,AV,2151.340000000084,timeout,,,1582363,1582361975,1580210635,1580220.7999999998,1580227312,1582378652,,grey,WE27EC21,24,f,4,0,"Sustainability, Society and the Environment",0,0,0,0,0,,AV
Stimulus,canvas.Screen,2_69_0_1,2022-07-04T16:47:06.916Z,,,1,AV,100.12999999988824,timeout,,,1582463,1582462105,1582361975,1582363.1999999993,1582378652,1582478782,,grey,WE27EC21,24,f,4,0,"Sustainability, Society and the Environment",0,0,0,0,0,,AV
Reaction,canvas.Screen,2_69_0_2,2022-07-04T16:47:07.073Z,,,1,AV,139.51799999992363,response,stim_detected,mousedown,1582619.8999999994,1582618.2999999998,1582462105,1582463.3999999994,1582478782,1582628925,,grey,WE27EC21,24,f,4,0,"Sustainability, Society and the Environment",0,0,0,0,0,,AV
Trial,flow.Sequence,2_69_0,2022-07-04T16:47:07.074Z,,,1,AV,2390.9879999998957,completion,,,1582620.2999999998,1582618.2999999998,1580210635,1580220.6999999993,1580227312,1582628925,,grey,WE27EC21,24,f,4,0,"Sustainability, Society and the Environment",0,0,0,0,0,,AV
Frame,canvas.Frame,2_69,2022-07-04T16:47:07.074Z,,,1,AV,2393.188000000082,,,,1582620.5999999996,1582620.5,1580210635,1580219.7999999998,1580227312,1582628925,,grey,WE27EC21,24,f,4,0,"Sustainability, Society and the Environment",0,0,0,0,0,,AV
Fixation,canvas.Screen,2_70_0_0,2022-07-04T16:47:09.085Z,,,1,AV,2018.3149999999441,timeout,,,1584632,1584630.56,1582612248,1582621.6999999993,1582628925,1584647.24,,grey,WE27EC21,24,f,4,0,"Sustainability, Society and the Environment",0,0,0,0,0,,AV
Stimulus,canvas.Screen,2_70_0_1,2022-07-04T16:47:09.184Z,,,1,AV,99.57300000009127,timeout,,,1584731.0999999996,1584730137,1584630.56,1584632.2999999998,1584647.24,1584746813,,grey,WE27EC21,24,f,4,0,"Sustainability, Society and the Environment",0,0,0,0,0,,AV
Reaction,canvas.Screen,2_70_0_2,2022-07-04T16:47:09.383Z,,,1,AV,181.38699999917299,response,stim_detected,mousedown,1584930,1584928.1999999993,1584730137,1584731.2999999998,1584746813,1584947.15,,grey,WE27EC21,24,f,4,0,"Sustainability, Society and the Environment",0,0,0,0,0,,AV
Trial,flow.Sequence,2_70_0,2022-07-04T16:47:09.384Z,,,1,AV,2299.2749999992084,completion,,,1584930.2999999998,1584928.1999999993,1582612248,1582621.5999999996,1582628925,1584947.15,,grey,WE27EC21,24,f,4,0,"Sustainability, Society and the Environment",0,0,0,0,0,,AV
Frame,canvas.Frame,2_70,2022-07-04T16:47:09.384Z,,,1,AV,2301.5749999999534,,,,1584930.6999999993,1584930.5,1582612248,1582620.7999999998,1582628925,1584947.15,,grey,WE27EC21,24,f,4,0,"Sustainability, Society and the Environment",0,0,0,0,0,,AV
Fixation,canvas.Screen,2_71_0_0,2022-07-04T16:47:11.186Z,,,1,A,1800.3919999999925,timeout,,,1586732.1999999993,1586730871,1584930473,1584931.8999999994,1584947.15,1586747542,,black,WE27EC21,24,f,4,0,"Sustainability, Society and the Environment",0,0,0,0,0,,AV
Stimulus,canvas.Screen,2_71_0_1,2022-07-04T16:47:11.287Z,,,1,A,101.02000000001863,timeout,,,1586833.1999999993,1586831883,1586730871,1586732.5,1586747542,1586848562,,black,WE27EC21,24,f,4,0,"Sustainability, Society and the Environment",0,0,0,0,0,,AV
Reaction,canvas.Screen,2_71_0_2,2022-07-04T16:47:11.806Z,,,1,A,502.6379999993369,response,stim_detected,mousedown,1587352.8999999994,1587351.1999999993,1586831883,1586833.3999999994,1586848562,1587365421,,black,WE27EC21,24,f,4,0,"Sustainability, Society and the Environment",0,0,0,0,0,,AV
Trial,flow.Sequence,2_71_0,2022-07-04T16:47:11.807Z,,,1,A,2404.049999999348,completion,,,1587353.3999999994,1587351.1999999993,1584930473,1584931.7999999998,1584947.15,1587365421,,black,WE27EC21,24,f,4,0,"Sustainability, Society and the Environment",0,0,0,0,0,,AV
Frame,canvas.Frame,2_71,2022-07-04T16:47:11.807Z,,,1,A,2406.350000000093,,,,1587353.6999999993,1587353.5,1584930473,1584930.7999999998,1584947.15,1587365421,,black,WE27EC21,24,f,4,0,"Sustainability, Society and the Environment",0,0,0,0,0,,AV
Fixation,canvas.Screen,2_72_0_0,2022-07-04T16:47:13.554Z,,,1,A,1750.8349999999627,timeout,,,1589100.3999999994,1589099581,1587348744,1587355,1587365421,1589116256,,black,WE27EC21,24,f,4,0,"Sustainability, Society and the Environment",0,0,0,0,0,,A
Stimulus,canvas.Screen,2_72_0_1,2022-07-04T16:47:13.655Z,,,1,A,100.33700000005774,timeout,,,1589201.2999999998,1589199916,1589099581,1589100.5999999996,1589116256,1589216593,,black,WE27EC21,24,f,4,0,"Sustainability, Society and the Environment",0,0,0,0,0,,A
Reaction,canvas.Screen,2_72_0_2,2022-07-04T16:47:13.876Z,,,1,A,204.60699999914505,response,stim_detected,mousedown,1589422.7999999998,1589421.1999999993,1589199916,1589201.5999999996,1589216593,1589433441,,black,WE27EC21,24,f,4,0,"Sustainability, Society and the Environment",0,0,0,0,0,,A
Trial,flow.Sequence,2_72_0,2022-07-04T16:47:13.877Z,,,1,A,2055.7789999991655,completion,,,1589423.1999999993,1589421.1999999993,1587348744,1587354.7999999998,1587365421,1589433441,,black,WE27EC21,24,f,4,0,"Sustainability, Society and the Environment",0,0,0,0,0,,A
Frame,canvas.Frame,2_72,2022-07-04T16:47:13.877Z,,,1,A,2057.8789999997243,,,,1589423.5999999996,1589423.2999999998,1587348744,1587353.8999999994,1587365421,1589433441,,black,WE27EC21,24,f,4,0,"Sustainability, Society and the Environment",0,0,0,0,0,,A
Fixation,canvas.Screen,2_73_0_0,2022-07-04T16:47:15.540Z,,,1,AV,1668.0499999998137,timeout,,,1591086.2999999998,1591084811,1589416764,1589424.8999999994,1589433441,1591101491,,grey,WE27EC21,24,f,4,0,"Sustainability, Society and the Environment",0,0,0,0,0,,A
Stimulus,canvas.Screen,2_73_0_1,2022-07-04T16:47:15.639Z,,,1,AV,99.6820000000298,timeout,,,1591185.2999999998,1591184497,1591084811,1591086.5999999996,1591101491,1591201173,,grey,WE27EC21,24,f,4,0,"Sustainability, Society and the Environment",0,0,0,0,0,,A
Reaction,canvas.Screen,2_73_0_2,2022-07-04T16:47:15.858Z,,,1,AV,201.02699999930337,response,stim_detected,mousedown,1591404.0999999996,1591402.1999999993,1591184497,1591185.7999999998,1591201173,1591418133,,grey,WE27EC21,24,f,4,0,"Sustainability, Society and the Environment",0,0,0,0,0,,A
Trial,flow.Sequence,2_73_0,2022-07-04T16:47:15.858Z,,,1,AV,1968.758999999147,completion,,,1591404.5,1591402.1999999993,1589416764,1589424.7999999998,1589433441,1591418133,,grey,WE27EC21,24,f,4,0,"Sustainability, Society and the Environment",0,0,0,0,0,,A
Frame,canvas.Frame,2_73,2022-07-04T16:47:15.858Z,,,1,AV,1971.258999999147,,,,1591404.7999999998,1591404.6999999993,1589416764,1589423.8999999994,1589433441,1591418133,,grey,WE27EC21,24,f,4,0,"Sustainability, Society and the Environment",0,0,0,0,0,,A
Fixation,canvas.Screen,2_74_0_0,2022-07-04T16:47:17.374Z,,,1,A,1517.6140000000596,timeout,,,1592920.5,1592919.07,1591401456,1591406,1591418133,1592935747,,black,WE27EC21,24,f,4,0,"Sustainability, Society and the Environment",0,0,0,0,0,,AV
Stimulus,canvas.Screen,2_74_0_1,2022-07-04T16:47:17.474Z,,,1,A,100.11199999996461,timeout,,,1593020.5,1593019182,1592919.07,1592920.7999999998,1592935747,1593035859,,black,WE27EC21,24,f,4,0,"Sustainability, Society and the Environment",0,0,0,0,0,,AV
Reaction,canvas.Screen,2_74_0_2,2022-07-04T16:47:17.851Z,,,1,A,360.24099999968894,response,stim_detected,mousedown,1593397.6999999993,1593396.0999999996,1593019182,1593020.7999999998,1593035859,1593402756,,black,WE27EC21,24,f,4,0,"Sustainability, Society and the Environment",0,0,0,0,0,,AV
Trial,flow.Sequence,2_74_0,2022-07-04T16:47:17.851Z,,,1,A,1977.9669999997132,completion,,,1593398.0999999996,1593396.0999999996,1591401456,1591406,1591418133,1593402756,,black,WE27EC21,24,f,4,0,"Sustainability, Society and the Environment",0,0,0,0,0,,AV
Frame,canvas.Frame,2_74,2022-07-04T16:47:17.852Z,,,1,A,1980.0669999993406,,,,1593398.3999999994,1593398.1999999993,1591401456,1591405,1591418133,1593402756,,black,WE27EC21,24,f,4,0,"Sustainability, Society and the Environment",0,0,0,0,0,,AV
Fixation,canvas.Screen,2_75_0_0,2022-07-04T16:47:19.344Z,,,1,A,1501.9279999998398,timeout,,,1594889.8999999994,1594887996,1593386079,1593399.5,1593402756,1594904684,,black,WE27EC21,24,f,4,0,"Sustainability, Society and the Environment",0,0,0,0,0,,A
Stimulus,canvas.Screen,2_75_0_1,2022-07-04T16:47:19.443Z,,,1,A,99.12600000016391,timeout,,,1594988.5999999996,1594987133,1594887996,1594890.1999999993,1594904684,1595003.81,,black,WE27EC21,24,f,4,0,"Sustainability, Society and the Environment",0,0,0,0,0,,A
Reaction,canvas.Screen,2_75_0_2,2022-07-04T16:47:19.781Z,,,1,A,321.38999999919906,response,stim_detected,mousedown,1595326.7999999998,1595325.1999999993,1594987133,1594988.8999999994,1595003.81,1595337422,,black,WE27EC21,24,f,4,0,"Sustainability, Society and the Environment",0,0,0,0,0,,A
Trial,flow.Sequence,2_75_0,2022-07-04T16:47:19.781Z,,,1,A,1922.4439999992028,completion,,,1595327.1999999993,1595325.1999999993,1593386079,1593399.3999999994,1593402756,1595337422,,black,WE27EC21,24,f,4,0,"Sustainability, Society and the Environment",0,0,0,0,0,,A
Frame,canvas.Frame,2_75,2022-07-04T16:47:19.782Z,,,1,A,1924.5439999997616,,,,1595327.5,1595327.2999999998,1593386079,1593398.5999999996,1593402756,1595337422,,black,WE27EC21,24,f,4,0,"Sustainability, Society and the Environment",0,0,0,0,0,,A
Fixation,canvas.Screen,2_76_0_0,2022-07-04T16:47:22.010Z,,,1,AV,2233.3279999999795,timeout,,,1597556,1597554082,1595320745,1595328.5,1595337422,1597570.75,,grey,WE27EC21,24,f,4,0,"Sustainability, Society and the Environment",0,0,0,0,0,,A
Stimulus,canvas.Screen,2_76_0_1,2022-07-04T16:47:22.111Z,,,1,AV,101.5910000000149,timeout,,,1597656.8999999994,1597655663,1597554082,1597556.3999999994,1597570.75,1597672341,,grey,WE27EC21,24,f,4,0,"Sustainability, Society and the Environment",0,0,0,0,0,,A
