sender,sender_type,sender_id,timestamp,meta,,aud,condition,duration,ended_on,response,response_action,time_commit,time_end,time_render,time_run,time_show,time_switch,url,vis
Instructions,html.Page,0,2022-07-04T15:24:44.307Z,"{""labjs_version"":""20.2.4"",""labjs_build"":{""flavor"":""production"",""commit"":""f5b4a49f956347addd546a832a3327688c2c0fef""},""location"":""file:///C:/Users/Proband%207/Desktop/RTE/index.html"",""userAgent"":""Mozilla/5.0 (Windows NT 6.1; Win64; x64) AppleWebKit/537.36 (KHTML, like Gecko) Chrome/103.0.0.0 Safari/537.36"",""platform"":""Win32"",""language"":""de-DE"",""locale"":""de"",""timeZone"":""Europe/Berlin"",""timezoneOffset"":-120,""screen_width"":1366,""screen_height"":768,""scroll_width"":1366,""scroll_height"":609,""window_innerWidth"":1366,""window_innerHeight"":657,""devicePixelRatio"":1}",,,,454630.84599999996,form submission,,,457709,457707.69999999995,3043.491,3049.8000000000466,3076.854,457732.422,{},
Change Background,canvas.Screen,1,2022-07-04T15:24:47.318Z,,,,,3002.142999999982,timeout,,,460719.90000000014,460717.886,457699.068,457709.69999999995,457732.422,460734.565,,
Fixation,canvas.Screen,2_0_0_0,2022-07-04T15:24:49.415Z,,,1,AV,2097.5869999999995,timeout,,,462817,462815.489,460717.886,460721,460734.565,462832.152,,grey
Stimulus,canvas.Screen,2_0_0_1,2022-07-04T15:24:49.519Z,,,1,AV,103.57199999998556,timeout,,,462920.6000000001,462919.047,462815.489,462817.40000000014,462832.152,462935.724,,grey
Reaction,canvas.Screen,2_0_0_2,2022-07-04T15:24:49.778Z,,,1,AV,242.77600000001257,response,stim_detected,mousedown,463180.5,463178.5,462919.047,462920.90000000014,462935.724,463185.995,,grey
Trial,flow.Sequence,2_0_0,2022-07-04T15:24:49.779Z,,,1,AV,2443.9349999999977,completion,,,463181.19999999995,463178.5,460717.886,460720.90000000014,460734.565,463185.995,,grey
Frame,canvas.Frame,2_0,2022-07-04T15:24:49.780Z,,,1,AV,2446.9349999999977,,,,463181.90000000014,463181.5,460717.886,460720.19999999995,460734.565,463185.995,,grey
Fixation,canvas.Screen,2_1_0_0,2022-07-04T15:24:51.453Z,,,0,V,1684.2550000000047,timeout,,,464854.90000000014,464853.574,463169.318,463183.1000000001,463185.995,464870.25,,grey
Stimulus,canvas.Screen,2_1_0_1,2022-07-04T15:24:51.553Z,,,0,V,100.39899999997579,timeout,,,464955.19999999995,464953.969,464853.574,464855.19999999995,464870.25,464970.649,,grey
Reaction,canvas.Screen,2_1_0_2,2022-07-04T15:24:51.766Z,,,0,V,194.85100000002421,response,stim_detected,mousedown,465168.40000000014,465165.5,464953.969,464955.69999999995,464970.649,465187.382,,grey
Trial,flow.Sequence,2_1_0,2022-07-04T15:24:51.768Z,,,0,V,1979.5050000000047,completion,,,465169.90000000014,465165.5,463169.318,463183,463185.995,465187.382,,grey
Frame,canvas.Frame,2_1,2022-07-04T15:24:51.769Z,,,0,V,1984.1050000000978,,,,465170.6000000001,465170.1000000001,463169.318,463182.19999999995,463185.995,465187.382,,grey
Fixation,canvas.Screen,2_2_0_0,2022-07-04T15:24:54.038Z,,,1,AV,2268.342000000004,timeout,,,467440.19999999995,467439.045,465170.705,465173.90000000014,465187.382,467455.724,,grey
Stimulus,canvas.Screen,2_2_0_1,2022-07-04T15:24:54.138Z,,,1,AV,99.93599999998696,timeout,,,467540.19999999995,467538.982,467439.045,467440.40000000014,467455.724,467555.66,,grey
Reaction,canvas.Screen,2_2_0_2,2022-07-04T15:24:54.366Z,,,1,AV,210.94000000011874,response,stim_detected,mousedown,467768.1000000001,467766.6000000001,467538.982,467540.6000000001,467555.66,467789.064,,grey
Trial,flow.Sequence,2_2_0,2022-07-04T15:24:54.367Z,,,1,AV,2579.21800000011,completion,,,467768.69999999995,467766.6000000001,465170.705,465173.80000000005,465187.382,467789.064,,grey
Frame,canvas.Frame,2_2,2022-07-04T15:24:54.367Z,,,1,AV,2581.4180000000633,,,,467769,467768.80000000005,465170.705,465172,465187.382,467789.064,,grey
Fixation,canvas.Screen,2_3_0_0,2022-07-04T15:24:55.906Z,,,1,AV,1534.7270000000135,timeout,,,469308.19999999995,469307.11,467755.71,467770.1000000001,467789.064,469323.791,,grey
Stimulus,canvas.Screen,2_3_0_1,2022-07-04T15:24:56.006Z,,,1,AV,99.75799999997253,timeout,,,469408,469406.87,469307.11,469308.5,469323.791,469423.549,,grey
Reaction,canvas.Screen,2_3_0_2,2022-07-04T15:24:56.174Z,,,1,AV,150.95100000000093,response,stim_detected,mousedown,469576.19999999995,469574.5,469406.87,469408.19999999995,469423.549,469590.263,,grey
Trial,flow.Sequence,2_3_0,2022-07-04T15:24:56.175Z,,,1,AV,1785.435999999987,completion,,,469576.69999999995,469574.5,467755.71,467770,467789.064,469590.263,,grey
Frame,canvas.Frame,2_3,2022-07-04T15:24:56.175Z,,,1,AV,1787.8360000001267,,,,469577.19999999995,469576.90000000014,467755.71,467769.30000000005,467789.064,469590.263,,grey
Fixation,canvas.Screen,2_4_0_0,2022-07-04T15:24:58.626Z,,,1,AV,2453.5109999999986,timeout,,,472028.40000000014,472027.084,469573.586,469578.6000000001,469590.263,472043.774,,grey
Stimulus,canvas.Screen,2_4_0_1,2022-07-04T15:24:58.725Z,,,1,AV,98.08200000005309,timeout,,,472126.69999999995,472125.18,472027.084,472028.69999999995,472043.774,472141.856,,grey
Reaction,canvas.Screen,2_4_0_2,2022-07-04T15:24:58.896Z,,,1,AV,154.54400000011083,response,stim_detected,mousedown,472298.19999999995,472296.40000000014,472125.18,472126.80000000005,472141.856,472308.774,,grey
Trial,flow.Sequence,2_4_0,2022-07-04T15:24:58.897Z,,,1,AV,2706.1370000001625,completion,,,472298.6000000001,472296.40000000014,469573.586,469578.40000000014,469590.263,472308.774,,grey
Frame,canvas.Frame,2_4,2022-07-04T15:24:58.897Z,,,1,AV,2708.5370000000694,,,,472299,472298.80000000005,469573.586,469577.5,469590.263,472308.774,,grey
Fixation,canvas.Screen,2_5_0_0,2022-07-04T15:25:01.160Z,,,1,A,2268.8310000000056,timeout,,,474562.40000000014,474560.923,472292.097,472300.19999999995,472308.774,474577.605,,black
Stimulus,canvas.Screen,2_5_0_1,2022-07-04T15:25:01.259Z,,,1,A,99.41600000002654,timeout,,,474661.40000000014,474660.344,474560.923,474562.69999999995,474577.605,474677.021,,black
Reaction,canvas.Screen,2_5_0_2,2022-07-04T15:25:01.481Z,,,1,A,204.37900000013178,response,stim_detected,mousedown,474883,474881.40000000014,474660.344,474661.69999999995,474677.021,474893.886,,black
Trial,flow.Sequence,2_5_0,2022-07-04T15:25:01.481Z,,,1,A,2572.626000000164,completion,,,474883.5,474881.40000000014,472292.097,472300.1000000001,472308.774,474893.886,,black
Frame,canvas.Frame,2_5,2022-07-04T15:25:01.482Z,,,1,A,2574.8260000001173,,,,474883.90000000014,474883.6000000001,472292.097,472299.19999999995,472308.774,474893.886,,black
Fixation,canvas.Screen,2_6_0_0,2022-07-04T15:25:03.126Z,,,1,AV,1650.2050000000163,timeout,,,476528.40000000014,476527.421,474877.208,474885.19999999995,474893.886,476544.091,,grey
Stimulus,canvas.Screen,2_6_0_1,2022-07-04T15:25:03.227Z,,,1,AV,100.98300000000745,timeout,,,476629.6000000001,476628.396,476527.421,476528.90000000014,476544.091,476645.074,,grey
Reaction,canvas.Screen,2_6_0_2,2022-07-04T15:25:03.534Z,,,1,AV,289.1259999999311,response,stim_detected,mousedown,476936.30000000005,476934.19999999995,476628.396,476629.90000000014,476645.074,476961.858,,grey
Trial,flow.Sequence,2_6_0,2022-07-04T15:25:03.535Z,,,1,AV,2040.3139999999548,completion,,,476936.80000000005,476934.19999999995,474877.208,474885.1000000001,474893.886,476961.858,,grey
Frame,canvas.Frame,2_6,2022-07-04T15:25:03.535Z,,,1,AV,2043.014000000141,,,,476937.19999999995,476936.90000000014,474877.208,474884.19999999995,474893.886,476961.858,,grey
Fixation,canvas.Screen,2_7_0_0,2022-07-04T15:25:05.130Z,,,1,AV,1584.6909999999916,timeout,,,478531.6000000001,478529.869,476945.181,476938.30000000005,476961.858,478546.549,,grey
Stimulus,canvas.Screen,2_7_0_1,2022-07-04T15:25:05.229Z,,,1,AV,99.77000000001863,timeout,,,478630.80000000005,478629.642,478529.869,478531.80000000005,478546.549,478646.319,,grey
Reaction,canvas.Screen,2_7_0_2,2022-07-04T15:25:05.434Z,,,1,AV,187.98100000002887,response,stim_detected,mousedown,478835.90000000014,478834.30000000005,478629.642,478631.1000000001,478646.319,478846.458,,grey
Trial,flow.Sequence,2_7_0,2022-07-04T15:25:05.434Z,,,1,AV,1872.4420000000391,completion,,,478836.30000000005,478834.30000000005,476945.181,476938.19999999995,476961.858,478846.458,,grey
Frame,canvas.Frame,2_7,2022-07-04T15:25:05.435Z,,,1,AV,1874.6419999999925,,,,478836.80000000005,478836.5,476945.181,476937.40000000014,476961.858,478846.458,,grey
Fixation,canvas.Screen,2_8_0_0,2022-07-04T15:25:07.916Z,,,0,V,2486.439000000013,timeout,,,481317.80000000005,481316.21,478829.781,478838,478846.458,481332.897,,grey
Stimulus,canvas.Screen,2_8_0_1,2022-07-04T15:25:08.015Z,,,0,V,98.75900000002002,timeout,,,481416.80000000005,481414.978,481316.21,481318.1000000001,481332.897,481431.656,,grey
Reaction,canvas.Screen,2_8_0_2,2022-07-04T15:25:08.226Z,,,0,V,194.64400000002934,response,stim_detected,mousedown,481627.80000000005,481626.30000000005,481414.978,481417,481431.656,481631.711,,grey
Trial,flow.Sequence,2_8_0,2022-07-04T15:25:08.226Z,,,0,V,2779.8420000000624,completion,,,481628.19999999995,481626.30000000005,478829.781,478837.80000000005,478846.458,481631.711,,grey
Frame,canvas.Frame,2_8,2022-07-04T15:25:08.227Z,,,0,V,2781.9420000001555,,,,481628.6000000001,481628.40000000014,478829.781,478836.90000000014,478846.458,481631.711,,grey
Fixation,canvas.Screen,2_9_0_0,2022-07-04T15:25:10.015Z,,,1,AV,1800.7629999999772,timeout,,,483416.80000000005,483415.8,481615.034,481629.90000000014,481631.711,483432.474,,grey
Stimulus,canvas.Screen,2_9_0_1,2022-07-04T15:25:10.116Z,,,1,AV,100.47000000003027,timeout,,,483517.80000000005,483516.267,483415.8,483417,483432.474,483532.944,,grey
Reaction,canvas.Screen,2_9_0_2,2022-07-04T15:25:10.297Z,,,1,AV,164.456000000122,response,stim_detected,mousedown,483698.80000000005,483697.40000000014,483516.267,483518,483532.944,483716.442,,grey
Trial,flow.Sequence,2_9_0,2022-07-04T15:25:10.297Z,,,1,AV,2065.6890000001295,completion,,,483699.19999999995,483697.40000000014,481615.034,481629.80000000005,481631.711,483716.442,,grey
Frame,canvas.Frame,2_9,2022-07-04T15:25:10.298Z,,,1,AV,2067.6890000001295,,,,483699.5,483699.40000000014,481615.034,481628.69999999995,481631.711,483716.442,,grey
Fixation,canvas.Screen,2_10_0_0,2022-07-04T15:25:12.601Z,,,1,A,2301.2760000000126,timeout,,,486003.1000000001,486001.042,483699.765,483700.69999999995,483716.442,486017.718,,black
Stimulus,canvas.Screen,2_10_0_1,2022-07-04T15:25:12.701Z,,,1,A,100.22500000003492,timeout,,,486103.1000000001,486101.266,486001.042,486003.30000000005,486017.718,486117.943,,black
Reaction,canvas.Screen,2_10_0_2,2022-07-04T15:25:12.868Z,,,1,A,150.4570000001113,response,stim_detected,mousedown,486270.30000000005,486268.40000000014,486101.266,486103.30000000005,486117.943,486284.786,,black
Trial,flow.Sequence,2_10_0,2022-07-04T15:25:12.869Z,,,1,A,2551.958000000159,completion,,,486270.69999999995,486268.40000000014,483699.765,483700.6000000001,483716.442,486284.786,,black
Frame,canvas.Frame,2_10,2022-07-04T15:25:12.869Z,,,1,A,2554.3580000000657,,,,486271,486270.80000000005,483699.765,483699.69999999995,483716.442,486284.786,,black
Fixation,canvas.Screen,2_11_0_0,2022-07-04T15:25:15.120Z,,,0,V,2252.2449999999953,timeout,,,488522,488520.348,486268.109,486272.19999999995,486284.786,488537.031,,grey
Stimulus,canvas.Screen,2_11_0_1,2022-07-04T15:25:15.218Z,,,0,V,98.80900000000838,timeout,,,488620.1000000001,488619.166,488520.348,488522.30000000005,488537.031,488635.84,,grey
Reaction,canvas.Screen,2_11_0_2,2022-07-04T15:25:15.445Z,,,0,V,209.5600000001141,response,stim_detected,mousedown,488846.90000000014,488845.40000000014,488619.166,488620.40000000014,488635.84,488853.185,,grey
Trial,flow.Sequence,2_11_0,2022-07-04T15:25:15.445Z,,,0,V,2560.614000000118,completion,,,488847.30000000005,488845.40000000014,486268.109,486272.1000000001,486284.786,488853.185,,grey
Frame,canvas.Frame,2_11,2022-07-04T15:25:15.446Z,,,0,V,2562.713999999978,,,,488847.69999999995,488847.5,486268.109,486271.19999999995,486284.786,488853.185,,grey
Fixation,canvas.Screen,2_12_0_0,2022-07-04T15:25:17.021Z,,,1,AV,1584.8150000000023,timeout,,,490423.1000000001,490421.318,488836.508,488849,488853.185,490438,,grey
Stimulus,canvas.Screen,2_12_0_1,2022-07-04T15:25:17.120Z,,,1,AV,99.25599999999395,timeout,,,490522.19999999995,490520.582,490421.318,490423.40000000014,490438,490537.256,,grey
Reaction,canvas.Screen,2_12_0_2,2022-07-04T15:25:17.298Z,,,1,AV,161.04400000005262,response,stim_detected,mousedown,490699.80000000005,490698.30000000005,490520.582,490522.40000000014,490537.256,490721.088,,grey
Trial,flow.Sequence,2_12_0,2022-07-04T15:25:17.298Z,,,1,AV,1845.115000000049,completion,,,490700.19999999995,490698.30000000005,488836.508,488848.80000000005,488853.185,490721.088,,grey
Frame,canvas.Frame,2_12,2022-07-04T15:25:17.298Z,,,1,AV,1847.115000000049,,,,490700.5,490700.30000000005,488836.508,488847.90000000014,488853.185,490721.088,,grey
Fixation,canvas.Screen,2_13_0_0,2022-07-04T15:25:19.255Z,,,1,AV,1951.9060000000172,timeout,,,492657.19999999995,492656.311,490687.734,490701.6000000001,490721.088,492672.994,,grey
Stimulus,canvas.Screen,2_13_0_1,2022-07-04T15:25:19.354Z,,,1,AV,98.99599999998463,timeout,,,492756.19999999995,492755.316,492656.311,492657.6000000001,492672.994,492771.99,,grey
Reaction,canvas.Screen,2_13_0_2,2022-07-04T15:25:19.520Z,,,1,AV,148.20999999996275,response,stim_detected,mousedown,492921.80000000005,492920.19999999995,492755.316,492756.5,492771.99,492939.233,,grey
Trial,flow.Sequence,2_13_0,2022-07-04T15:25:19.520Z,,,1,AV,2199.1119999999646,completion,,,492922.30000000005,492920.19999999995,490687.734,490701.5,490721.088,492939.233,,grey
Frame,canvas.Frame,2_13,2022-07-04T15:25:19.521Z,,,1,AV,2201.312000000151,,,,492922.69999999995,492922.40000000014,490687.734,490700.69999999995,490721.088,492939.233,,grey
Fixation,canvas.Screen,2_14_0_0,2022-07-04T15:25:21.574Z,,,0,V,2052.3369999999995,timeout,,,494976.30000000005,494974.885,492922.556,492923.80000000005,492939.233,494991.57,,grey
Stimulus,canvas.Screen,2_14_0_1,2022-07-04T15:25:21.673Z,,,0,V,99.09899999998743,timeout,,,495075.40000000014,495073.992,494974.885,494976.6000000001,494991.57,495090.669,,grey
Reaction,canvas.Screen,2_14_0_2,2022-07-04T15:25:21.862Z,,,0,V,171.53099999995902,response,stim_detected,mousedown,495263.80000000005,495262.19999999995,495073.992,495075.69999999995,495090.669,495274.093,,grey
Trial,flow.Sequence,2_14_0,2022-07-04T15:25:21.862Z,,,0,V,2322.966999999946,completion,,,495264.19999999995,495262.19999999995,492922.556,492923.69999999995,492939.233,495274.093,,grey
Frame,canvas.Frame,2_14,2022-07-04T15:25:21.862Z,,,0,V,2325.067000000039,,,,495264.5,495264.30000000005,492922.556,492922.90000000014,492939.233,495274.093,,grey
Fixation,canvas.Screen,2_15_0_0,2022-07-04T15:25:23.376Z,,,1,AV,1519.3940000000293,timeout,,,496778.40000000014,496776.793,495257.416,495265.69999999995,495274.093,496793.487,,grey
Stimulus,canvas.Screen,2_15_0_1,2022-07-04T15:25:23.474Z,,,1,AV,98.44399999995949,timeout,,,496876.40000000014,496875.254,496776.793,496778.69999999995,496793.487,496891.931,,grey
Reaction,canvas.Screen,2_15_0_2,2022-07-04T15:25:23.651Z,,,1,AV,159.26899999997113,response,stim_detected,mousedown,497052.80000000005,497051.19999999995,496875.254,496876.6000000001,496891.931,497058.675,,grey
Trial,flow.Sequence,2_15_0,2022-07-04T15:25:23.651Z,,,1,AV,1777.10699999996,completion,,,497053.19999999995,497051.19999999995,495257.416,495265.69999999995,495274.093,497058.675,,grey
Frame,canvas.Frame,2_15,2022-07-04T15:25:23.652Z,,,1,AV,1779.207000000053,,,,497053.5,497053.30000000005,495257.416,495264.6000000001,495274.093,497058.675,,grey
Fixation,canvas.Screen,2_16_0_0,2022-07-04T15:25:25.359Z,,,0,V,1718.3570000000182,timeout,,,498761.40000000014,498760.349,497041.998,497054.90000000014,497058.675,498777.032,,grey
Stimulus,canvas.Screen,2_16_0_1,2022-07-04T15:25:25.459Z,,,0,V,98.76600000000326,timeout,,,498860.5,498859.127,498760.349,498761.69999999995,498777.032,498875.798,,grey
Reaction,canvas.Screen,2_16_0_2,2022-07-04T15:25:25.610Z,,,0,V,134.40199999994365,response,stim_detected,mousedown,499011.69999999995,499010.19999999995,498859.127,498860.80000000005,498875.798,499026.674,,grey
Trial,flow.Sequence,2_16_0,2022-07-04T15:25:25.610Z,,,0,V,1951.524999999965,completion,,,499012,499010.19999999995,497041.998,497054.80000000005,497058.675,499026.674,,grey
Frame,canvas.Frame,2_16,2022-07-04T15:25:25.610Z,,,0,V,1953.524999999965,,,,499012.30000000005,499012.19999999995,497041.998,497053.69999999995,497058.675,499026.674,,grey
Fixation,canvas.Screen,2_17_0_0,2022-07-04T15:25:27.259Z,,,0,V,1650.6790000000037,timeout,,,500661.5,500660.679,499009.996,499013.40000000014,499026.674,500677.353,,grey
Stimulus,canvas.Screen,2_17_0_1,2022-07-04T15:25:27.361Z,,,0,V,100.53800000000047,timeout,,,500762.5,500761.213,500660.679,500661.80000000005,500677.353,500777.891,,grey
Reaction,canvas.Screen,2_17_0_2,2022-07-04T15:25:27.543Z,,,0,V,165.20900000008987,response,stim_detected,mousedown,500945.5,500943.1000000001,500761.213,500762.80000000005,500777.891,500961.27,,grey
Trial,flow.Sequence,2_17_0,2022-07-04T15:25:27.544Z,,,0,V,1916.426000000094,completion,,,500945.90000000014,500943.1000000001,499009.996,499013.30000000005,499026.674,500961.27,,grey
Frame,canvas.Frame,2_17,2022-07-04T15:25:27.544Z,,,0,V,1919.426000000094,,,,500946.19999999995,500946.1000000001,499009.996,499012.6000000001,499026.674,500961.27,,grey
Fixation,canvas.Screen,2_18_0_0,2022-07-04T15:25:29.730Z,,,0,V,2185.342000000004,timeout,,,503131.69999999995,503129.93,500944.593,500947.6000000001,500961.27,503146.612,,grey
Stimulus,canvas.Screen,2_18_0_1,2022-07-04T15:25:29.828Z,,,0,V,98.84799999999814,timeout,,,503229.69999999995,503228.787,503129.93,503132.1000000001,503146.612,503245.46,,grey
Reaction,canvas.Screen,2_18_0_2,2022-07-04T15:25:30.028Z,,,0,V,182.64000000007218,response,stim_detected,mousedown,503429.69999999995,503428.1000000001,503228.787,503230,503245.46,503446.266,,grey
Trial,flow.Sequence,2_18_0,2022-07-04T15:25:30.028Z,,,0,V,2466.8300000000745,completion,,,503430.19999999995,503428.1000000001,500944.593,500947.5,500961.27,503446.266,,grey
Frame,canvas.Frame,2_18,2022-07-04T15:25:30.028Z,,,0,V,2469.030000000028,,,,503430.5,503430.30000000005,500944.593,500946.40000000014,500961.27,503446.266,,grey
Fixation,canvas.Screen,2_19_0_0,2022-07-04T15:25:31.548Z,,,0,V,1518.5050000000047,timeout,,,504949.80000000005,504948.085,503429.589,503431.6000000001,503446.266,504964.771,,grey
Stimulus,canvas.Screen,2_19_0_1,2022-07-04T15:25:31.646Z,,,0,V,98.88400000002002,timeout,,,505047.80000000005,505046.981,504948.085,504950,504964.771,505063.655,,grey
Reaction,canvas.Screen,2_19_0_2,2022-07-04T15:25:31.875Z,,,0,V,211.4450000000652,response,stim_detected,mousedown,505276.69999999995,505275.1000000001,505046.981,505048.1000000001,505063.655,505280.822,,grey
Trial,flow.Sequence,2_19_0,2022-07-04T15:25:31.875Z,,,0,V,1828.8340000000899,completion,,,505277.1000000001,505275.1000000001,503429.589,503431.6000000001,503446.266,505280.822,,grey
Frame,canvas.Frame,2_19,2022-07-04T15:25:31.875Z,,,0,V,1830.9339999999502,,,,505277.5,505277.19999999995,503429.589,503430.69999999995,503446.266,505280.822,,grey
Fixation,canvas.Screen,2_20_0_0,2022-07-04T15:25:34.167Z,,,1,A,2303.052000000025,timeout,,,507568.90000000014,507567.186,505264.145,505278.6000000001,505280.822,507583.874,,black
Stimulus,canvas.Screen,2_20_0_1,2022-07-04T15:25:34.265Z,,,1,A,98.42699999996694,timeout,,,507666.90000000014,507665.625,507567.186,507569.19999999995,507583.874,507682.301,,black
Reaction,canvas.Screen,2_20_0_2,2022-07-04T15:25:34.398Z,,,1,A,115.89899999997579,response,stim_detected,mousedown,507799.6000000001,507798.19999999995,507665.625,507667.19999999995,507682.301,507815.872,,black
Trial,flow.Sequence,2_20_0,2022-07-04T15:25:34.398Z,,,1,A,2517.377999999968,completion,,,507800.1000000001,507798.19999999995,505264.145,505278.5,505280.822,507815.872,,black
Frame,canvas.Frame,2_20,2022-07-04T15:25:34.398Z,,,1,A,2519.377999999968,,,,507800.40000000014,507800.19999999995,505264.145,505277.69999999995,505280.822,507815.872,,black
Fixation,canvas.Screen,2_21_0_0,2022-07-04T15:25:36.199Z,,,0,V,1800.5310000000172,timeout,,,509601,509599.731,507799.195,507801.5,507815.872,509616.403,,grey
Stimulus,canvas.Screen,2_21_0_1,2022-07-04T15:25:36.300Z,,,0,V,100.82099999999627,timeout,,,509702,509700.544,509599.731,509601.30000000005,509616.403,509717.224,,grey
Reaction,canvas.Screen,2_21_0_2,2022-07-04T15:25:36.494Z,,,0,V,176.8760000001057,response,stim_detected,mousedown,509895.80000000005,509894.1000000001,509700.544,509702.19999999995,509717.224,509900.622,,grey
Trial,flow.Sequence,2_21_0,2022-07-04T15:25:36.494Z,,,0,V,2078.228000000119,completion,,,509896.30000000005,509894.1000000001,507799.195,507801.40000000014,507815.872,509900.622,,grey
Frame,canvas.Frame,2_21,2022-07-04T15:25:36.495Z,,,0,V,2080.528000000166,,,,509896.6000000001,509896.40000000014,507799.195,507800.6000000001,507815.872,509900.622,,grey
Fixation,canvas.Screen,2_22_0_0,2022-07-04T15:25:38.034Z,,,1,AV,1550.6420000000508,timeout,,,511436,511434.59,509883.945,509897.69999999995,509900.622,511451.264,,grey
Stimulus,canvas.Screen,2_22_0_1,2022-07-04T15:25:38.134Z,,,1,AV,100.1019999999553,timeout,,,511536,511534.692,511434.59,511436.19999999995,511451.264,511551.366,,grey
Reaction,canvas.Screen,2_22_0_2,2022-07-04T15:25:38.293Z,,,1,AV,141.73400000011316,response,stim_detected,mousedown,511694.80000000005,511693.1000000001,511534.692,511536.40000000014,511551.366,511701.767,,grey
Trial,flow.Sequence,2_22_0,2022-07-04T15:25:38.293Z,,,1,AV,1792.4780000001192,completion,,,511695.30000000005,511693.1000000001,509883.945,509897.6000000001,509900.622,511701.767,,grey
Frame,canvas.Frame,2_22,2022-07-04T15:25:38.294Z,,,1,AV,1794.6780000000726,,,,511695.6000000001,511695.30000000005,509883.945,509896.80000000005,509900.622,511701.767,,grey
Fixation,canvas.Screen,2_23_0_0,2022-07-04T15:25:40.670Z,,,1,AV,2385.747000000032,timeout,,,514072.40000000014,514070.831,511685.09,511696.80000000005,511701.767,514087.514,,grey
Stimulus,canvas.Screen,2_23_0_1,2022-07-04T15:25:40.769Z,,,1,AV,99.3629999999539,timeout,,,514171.30000000005,514170.199,514070.831,514072.6000000001,514087.514,514186.877,,grey
Reaction,canvas.Screen,2_23_0_2,2022-07-04T15:25:40.926Z,,,1,AV,140.12300000002142,response,stim_detected,mousedown,514328.5,514327,514170.199,514171.6000000001,514186.877,514370.266,,grey
Trial,flow.Sequence,2_23_0,2022-07-04T15:25:40.954Z,,,1,AV,2625.2330000000075,completion,,,514356.5,514327,511685.09,511696.69999999995,511701.767,514370.266,,grey
Frame,canvas.Frame,2_23,2022-07-04T15:25:40.955Z,,,1,AV,2655.033000000054,,,,514357.1000000001,514356.80000000005,511685.09,511695.80000000005,511701.767,514370.266,,grey
Fixation,canvas.Screen,2_24_0_0,2022-07-04T15:25:43.036Z,,,0,V,2083.7970000000205,timeout,,,516438.30000000005,516437.392,514353.589,514358.5,514370.266,516454.063,,grey
Stimulus,canvas.Screen,2_24_0_1,2022-07-04T15:25:43.137Z,,,0,V,101.06299999996554,timeout,,,516539.40000000014,516538.448,516437.392,516438.6000000001,516454.063,516555.126,,grey
Reaction,canvas.Screen,2_24_0_2,2022-07-04T15:25:43.416Z,,,0,V,260.7740000001504,response,stim_detected,mousedown,516817.5,516815.90000000014,516538.448,516539.5,516555.126,516821.877,,grey
Trial,flow.Sequence,2_24_0,2022-07-04T15:25:43.416Z,,,0,V,2445.6340000001364,completion,,,516817.90000000014,516815.90000000014,514353.589,514358.5,514370.266,516821.877,,grey
Frame,canvas.Frame,2_24,2022-07-04T15:25:43.416Z,,,0,V,2447.7339999999967,,,,516818.19999999995,516818,514353.589,514357.30000000005,514370.266,516821.877,,grey
Fixation,canvas.Screen,2_25_0_0,2022-07-04T15:25:45.039Z,,,1,AV,1634.2330000000075,timeout,,,518440.5,518439.434,516805.2,516819.30000000005,516821.877,518456.11,,grey
Stimulus,canvas.Screen,2_25_0_1,2022-07-04T15:25:45.139Z,,,1,AV,100.27799999999115,timeout,,,518541.5,518539.711,518439.434,518440.69999999995,518456.11,518556.388,,grey
Reaction,canvas.Screen,2_25_0_2,2022-07-04T15:25:45.282Z,,,1,AV,125.61200000002282,response,stim_detected,mousedown,518683.5,518682,518539.711,518541.69999999995,518556.388,518689.801,,grey
Trial,flow.Sequence,2_25_0,2022-07-04T15:25:45.282Z,,,1,AV,1860.1230000000214,completion,,,518683.90000000014,518682,516805.2,516819.19999999995,516821.877,518689.801,,grey
Frame,canvas.Frame,2_25,2022-07-04T15:25:45.282Z,,,1,AV,1862.1230000000214,,,,518684.19999999995,518684,516805.2,516818.40000000014,516821.877,518689.801,,grey
Fixation,canvas.Screen,2_26_0_0,2022-07-04T15:25:46.941Z,,,1,A,1668.0420000000158,timeout,,,520342.5,520341.163,518673.124,518685.5,518689.801,520357.843,,black
Stimulus,canvas.Screen,2_26_0_1,2022-07-04T15:25:47.040Z,,,1,A,99.86599999997998,timeout,,,520442.30000000005,520441.031,520341.163,520342.69999999995,520357.843,520457.709,,black
Reaction,canvas.Screen,2_26_0_2,2022-07-04T15:25:47.188Z,,,1,A,130.19100000016624,response,stim_detected,mousedown,520589.5,520587.90000000014,520441.031,520442.6000000001,520457.709,520607.703,,black
Trial,flow.Sequence,2_26_0,2022-07-04T15:25:47.188Z,,,1,A,1898.099000000162,completion,,,520589.90000000014,520587.90000000014,518673.124,518685.30000000005,518689.801,520607.703,,black
Frame,canvas.Frame,2_26,2022-07-04T15:25:47.188Z,,,1,A,1900.1990000000224,,,,520590.1000000001,520590,518673.124,518684.30000000005,518689.801,520607.703,,black
Fixation,canvas.Screen,2_27_0_0,2022-07-04T15:25:49.510Z,,,1,AV,2318.996000000043,timeout,,,522911.90000000014,522910.016,520574.349,520591.19999999995,520607.703,522926.699,,grey
Stimulus,canvas.Screen,2_27_0_1,2022-07-04T15:25:49.609Z,,,1,AV,99.14499999996042,timeout,,,523011,523009.168,522910.016,522912.1000000001,522926.699,523025.844,,grey
Reaction,canvas.Screen,2_27_0_2,2022-07-04T15:25:49.752Z,,,1,AV,127.15600000001723,response,stim_detected,mousedown,523154.5,523153,523009.168,523011.19999999995,523025.844,523159.456,,grey
Trial,flow.Sequence,2_27_0,2022-07-04T15:25:49.753Z,,,1,AV,2545.2970000000205,completion,,,523154.90000000014,523153,520574.349,520591.19999999995,520607.703,523159.456,,grey
Frame,canvas.Frame,2_27,2022-07-04T15:25:49.753Z,,,1,AV,2547.2970000000205,,,,523155.19999999995,523155,520574.349,520590.40000000014,520607.703,523159.456,,grey
Fixation,canvas.Screen,2_28_0_0,2022-07-04T15:25:52.028Z,,,1,A,2285.344000000041,timeout,,,525429.5,525428.119,523142.779,523156.30000000005,523159.456,525444.8,,black
Stimulus,canvas.Screen,2_28_0_1,2022-07-04T15:25:52.127Z,,,1,A,99.55799999996088,timeout,,,525529,525527.681,525428.119,525429.7,525444.8,525544.358,,black
Reaction,canvas.Screen,2_28_0_2,2022-07-04T15:25:52.276Z,,,1,A,131.64199999999255,response,stim_detected,mousedown,525677.5,525676,525527.681,525529.2,525544.358,525694.437,,black
Trial,flow.Sequence,2_28_0,2022-07-04T15:25:52.276Z,,,1,A,2516.5439999999944,completion,,,525677.9000000001,525676,523142.779,523156.19999999995,523159.456,525694.437,,black
Frame,canvas.Frame,2_28,2022-07-04T15:25:52.276Z,,,1,A,2518.6440000000875,,,,525678.3,525678.1000000001,523142.779,523155.40000000014,523159.456,525694.437,,black
Fixation,canvas.Screen,2_29_0_0,2022-07-04T15:25:54.363Z,,,1,A,2085.8709999999264,timeout,,,527765.1000000001,527763.622,525677.76,525679.5,525694.437,527780.308,,black
Stimulus,canvas.Screen,2_29_0_1,2022-07-04T15:25:54.463Z,,,1,A,98.63699999998789,timeout,,,527864.7,527862.27,527763.622,527765.2,527780.308,527878.945,,black
Reaction,canvas.Screen,2_29_0_2,2022-07-04T15:25:54.604Z,,,1,A,124.95500000019092,response,stim_detected,mousedown,528005.5,528003.9000000001,527862.27,527865.2,527878.945,528012.699,,black
Trial,flow.Sequence,2_29_0,2022-07-04T15:25:54.604Z,,,1,A,2309.4630000001052,completion,,,528006,528003.9000000001,525677.76,525679.4000000001,525694.437,528012.699,,black
Frame,canvas.Frame,2_29,2022-07-04T15:25:54.604Z,,,1,A,2311.6630000000587,,,,528006.3,528006.1000000001,525677.76,525678.5,525694.437,528012.699,,black
Fixation,canvas.Screen,2_30_0_0,2022-07-04T15:25:56.981Z,,,1,A,2385.783999999985,timeout,,,530383.3,530381.799,527996.022,528007.4000000001,528012.699,530398.483,,black
Stimulus,canvas.Screen,2_30_0_1,2022-07-04T15:25:57.079Z,,,1,A,98.0339999999851,timeout,,,530481.3,530479.847,530381.799,530383.6000000001,530398.483,530496.517,,black
Reaction,canvas.Screen,2_30_0_2,2022-07-04T15:25:57.214Z,,,1,A,118.38300000014715,response,stim_detected,mousedown,530616.3,530614.9000000001,530479.847,530481.5,530496.517,530631.068,,black
Trial,flow.Sequence,2_30_0,2022-07-04T15:25:57.215Z,,,1,A,2602.2010000001173,completion,,,530616.7,530614.9000000001,527996.022,528007.3,528012.699,530631.068,,black
Frame,canvas.Frame,2_30,2022-07-04T15:25:57.215Z,,,1,A,2604.2010000001173,,,,530617,530616.9000000001,527996.022,528006.5,528012.699,530631.068,,black
Fixation,canvas.Screen,2_31_0_0,2022-07-04T15:25:59.083Z,,,1,A,1869.234000000055,timeout,,,532485.2,532483.613,530614.391,530618,530631.068,532500.302,,black
Stimulus,canvas.Screen,2_31_0_1,2022-07-04T15:25:59.182Z,,,1,A,98.89199999999255,timeout,,,532584.1000000001,532582.513,532483.613,532485.4000000001,532500.302,532599.194,,black
Reaction,canvas.Screen,2_31_0_2,2022-07-04T15:25:59.379Z,,,1,A,180.706000000122,response,stim_detected,mousedown,532781.4000000001,532779.9000000001,532582.513,532584.4000000001,532599.194,532799.245,,black
Trial,flow.Sequence,2_31_0,2022-07-04T15:25:59.380Z,,,1,A,2148.8320000001695,completion,,,532781.8,532779.9000000001,530614.391,530617.9000000001,530631.068,532799.245,,black
Frame,canvas.Frame,2_31,2022-07-04T15:25:59.380Z,,,1,A,2150.8320000001695,,,,532782.1000000001,532781.9000000001,530614.391,530617.2,530631.068,532799.245,,black
Fixation,canvas.Screen,2_32_0_0,2022-07-04T15:26:01.483Z,,,0,V,2100.8950000000186,timeout,,,534885.3,534883.466,532782.568,532783.1000000001,532799.245,534900.14,,grey
Stimulus,canvas.Screen,2_32_0_1,2022-07-04T15:26:01.583Z,,,0,V,100.51300000003539,timeout,,,534985.4000000001,534983.976,534883.466,534885.6000000001,534900.14,535000.653,,grey
Reaction,canvas.Screen,2_32_0_2,2022-07-04T15:26:01.756Z,,,0,V,156.1469999999972,response,stim_detected,mousedown,535158.3,535156.8,534983.976,534985.7,535000.653,535184.141,,grey
Trial,flow.Sequence,2_32_0,2022-07-04T15:26:01.757Z,,,0,V,2357.555000000051,completion,,,535158.7,535156.8,532782.568,532783.1000000001,532799.245,535184.141,,grey
Frame,canvas.Frame,2_32,2022-07-04T15:26:01.757Z,,,0,V,2359.555000000051,,,,535159,535158.8,532782.568,532782.3,532799.245,535184.141,,grey
Fixation,canvas.Screen,2_33_0_0,2022-07-04T15:26:04.252Z,,,1,AV,2485.7590000000782,timeout,,,537654.3,537653.217,535150.787,535160.2,535184.141,537669.9,,grey
Stimulus,canvas.Screen,2_33_0_1,2022-07-04T15:26:04.351Z,,,1,AV,98.72499999997672,timeout,,,537753.2,537751.951,537653.217,537654.8,537669.9,537768.625,,grey
Reaction,canvas.Screen,2_33_0_2,2022-07-04T15:26:04.502Z,,,1,AV,134.2750000001397,response,stim_detected,mousedown,537904.3,537902.9000000001,537751.951,537753.6000000001,537768.625,537919.323,,grey
Trial,flow.Sequence,2_33_0,2022-07-04T15:26:04.503Z,,,1,AV,2718.7590000001946,completion,,,537904.9000000001,537902.9000000001,535150.787,535160.1000000001,535184.141,537919.323,,grey
Frame,canvas.Frame,2_33,2022-07-04T15:26:04.503Z,,,1,AV,2720.959000000148,,,,537905.3,537905.1000000001,535150.787,535159.3,535184.141,537919.323,,grey
Fixation,canvas.Screen,2_34_0_0,2022-07-04T15:26:06.403Z,,,1,A,1900.3030000000726,timeout,,,539804.5,539802.956,537902.646,537906.5,537919.323,539819.626,,black
Stimulus,canvas.Screen,2_34_0_1,2022-07-04T15:26:06.504Z,,,1,A,101.12799999990966,timeout,,,539905.7,539904.076,539802.956,539804.8,539819.626,539920.754,,black
Reaction,canvas.Screen,2_34_0_2,2022-07-04T15:26:06.664Z,,,1,A,143.94599999999627,response,stim_detected,mousedown,540066.3,540064.7,539904.076,539905.9000000001,539920.754,540070.749,,black
Trial,flow.Sequence,2_34_0,2022-07-04T15:26:06.665Z,,,1,A,2145.3769999999786,completion,,,540066.7,540064.7,537902.646,537906.4000000001,537919.323,540070.749,,black
Frame,canvas.Frame,2_34,2022-07-04T15:26:06.665Z,,,1,A,2147.4770000000717,,,,540067,540066.8,537902.646,537905.5,537919.323,540070.749,,black
Fixation,canvas.Screen,2_35_0_0,2022-07-04T15:26:09.006Z,,,1,A,2352.4430000000866,timeout,,,542407.7,542406.508,540054.072,540068.3,540070.749,542423.192,,black
Stimulus,canvas.Screen,2_35_0_1,2022-07-04T15:26:09.105Z,,,1,A,98.58699999994133,timeout,,,542506.8,542505.106,542406.508,542407.9000000001,542423.192,542521.779,,black
Reaction,canvas.Screen,2_35_0_2,2022-07-04T15:26:09.243Z,,,1,A,122.12100000015926,response,stim_detected,mousedown,542645.3,542643.9000000001,542505.106,542507.1000000001,542521.779,542655.831,,black
Trial,flow.Sequence,2_35_0,2022-07-04T15:26:09.244Z,,,1,A,2573.151000000187,completion,,,542645.7,542643.9000000001,540054.072,540068.3,540070.749,542655.831,,black
Frame,canvas.Frame,2_35,2022-07-04T15:26:09.244Z,,,1,A,2575.051000000094,,,,542646.1000000001,542645.8,540054.072,540067.2,540070.749,542655.831,,black
Fixation,canvas.Screen,2_36_0_0,2022-07-04T15:26:11.656Z,,,0,V,2417.5409999999683,timeout,,,545057.8,545056.699,542639.154,542647,542655.831,545073.372,,grey
Stimulus,canvas.Screen,2_36_0_1,2022-07-04T15:26:11.757Z,,,0,V,100.82500000006985,timeout,,,545159,545157.517,545056.699,545058.1000000001,545073.372,545174.197,,grey
Reaction,canvas.Screen,2_36_0_2,2022-07-04T15:26:11.924Z,,,0,V,150.50299999990966,response,stim_detected,mousedown,545326.5,545324.7,545157.517,545159.2,545174.197,545340.936,,grey
Trial,flow.Sequence,2_36_0,2022-07-04T15:26:11.925Z,,,0,V,2668.868999999948,completion,,,545326.9000000001,545324.7,542639.154,542646.9000000001,542655.831,545340.936,,grey
Frame,canvas.Frame,2_36,2022-07-04T15:26:11.925Z,,,0,V,2671.1689999999944,,,,545327.2,545327,542639.154,542646.2,542655.831,545340.936,,grey
Fixation,canvas.Screen,2_37_0_0,2022-07-04T15:26:14.259Z,,,1,A,2335.8150000000605,timeout,,,547661.1000000001,547660.067,545324.259,545328.3,545340.936,547676.751,,black
Stimulus,canvas.Screen,2_37_0_1,2022-07-04T15:26:14.359Z,,,1,A,99.07699999993201,timeout,,,547761.1000000001,547759.164,547660.067,547661.5,547676.751,547775.828,,black
Reaction,canvas.Screen,2_37_0_2,2022-07-04T15:26:14.543Z,,,1,A,167.97200000006706,response,stim_detected,mousedown,547945.4000000001,547943.8,547759.164,547761.5,547775.828,547959.59,,black
Trial,flow.Sequence,2_37_0,2022-07-04T15:26:14.544Z,,,1,A,2602.8640000000596,completion,,,547945.8,547943.8,545324.259,545328.2,545340.936,547959.59,,black
Frame,canvas.Frame,2_37,2022-07-04T15:26:14.544Z,,,1,A,2605.164000000106,,,,547946.3,547946.1000000001,545324.259,545327.3,545340.936,547959.59,,black
Fixation,canvas.Screen,2_38_0_0,2022-07-04T15:26:16.377Z,,,1,AV,1835.079000000027,timeout,,,549778.8,549777.985,547942.895,547947.4000000001,547959.59,549794.669,,grey
Stimulus,canvas.Screen,2_38_0_1,2022-07-04T15:26:16.476Z,,,1,AV,98.7719999999972,timeout,,,549877.9000000001,549876.771,549777.985,549779.1000000001,549794.669,549893.441,,grey
Reaction,canvas.Screen,2_38_0_2,2022-07-04T15:26:16.646Z,,,1,AV,153.25899999996182,response,stim_detected,mousedown,550048.2,550046.7,549876.771,549878.2,549893.441,550060.784,,grey
Trial,flow.Sequence,2_38_0,2022-07-04T15:26:16.647Z,,,1,AV,2087.109999999986,completion,,,550048.6000000001,550046.7,547942.895,547947.3,547959.59,550060.784,,grey
Frame,canvas.Frame,2_38,2022-07-04T15:26:16.647Z,,,1,AV,2089.109999999986,,,,550048.9000000001,550048.7,547942.895,547946.4000000001,547959.59,550060.784,,grey
Fixation,canvas.Screen,2_39_0_0,2022-07-04T15:26:18.444Z,,,0,V,1801.0039999999572,timeout,,,551845.9000000001,551845.112,550044.107,550050.1000000001,550060.784,551861.788,,grey
Stimulus,canvas.Screen,2_39_0_1,2022-07-04T15:26:18.545Z,,,0,V,100.26700000010896,timeout,,,551947,551945.378,551845.112,551846.1000000001,551861.788,551962.055,,grey
Reaction,canvas.Screen,2_39_0_2,2022-07-04T15:26:18.757Z,,,0,V,195.6449999999022,response,stim_detected,mousedown,552159.1000000001,552157.7,551945.378,551947.2,551962.055,552162.141,,grey
Trial,flow.Sequence,2_39_0,2022-07-04T15:26:18.758Z,,,0,V,2096.9159999999683,completion,,,552159.6000000001,552157.7,550044.107,550050,550060.784,552162.141,,grey
Frame,canvas.Frame,2_39,2022-07-04T15:26:18.758Z,,,0,V,2098.9159999999683,,,,552159.9000000001,552159.7,550044.107,550049.2,550060.784,552162.141,,grey
Fixation,canvas.Screen,2_40_0_0,2022-07-04T15:26:20.363Z,,,1,A,1618.5050000000047,timeout,,,553765.2,553763.961,552145.464,552161,552162.141,553780.646,,black
Stimulus,canvas.Screen,2_40_0_1,2022-07-04T15:26:20.462Z,,,1,A,99.2850000000326,timeout,,,553864.1000000001,553863.254,553763.961,553765.5,553780.646,553879.931,,black
Reaction,canvas.Screen,2_40_0_2,2022-07-04T15:26:20.618Z,,,1,A,138.76899999997113,response,stim_detected,mousedown,554020.1000000001,554018.7,553863.254,553864.4000000001,553879.931,554030.105,,black
Trial,flow.Sequence,2_40_0,2022-07-04T15:26:20.619Z,,,1,A,1856.5590000000084,completion,,,554020.5,554018.7,552145.464,552160.9000000001,552162.141,554030.105,,black
Frame,canvas.Frame,2_40,2022-07-04T15:26:20.619Z,,,1,A,1858.459000000148,,,,554020.9000000001,554020.6000000001,552145.464,552160.1000000001,552162.141,554030.105,,black
Fixation,canvas.Screen,2_41_0_0,2022-07-04T15:26:22.330Z,,,1,A,1717.8510000000242,timeout,,,555732.1000000001,555731.278,554013.428,554022,554030.105,555747.956,,black
Stimulus,canvas.Screen,2_41_0_1,2022-07-04T15:26:22.430Z,,,1,A,99.95600000000559,timeout,,,555832.2,555831.235,555731.278,555732.3,555747.956,555847.912,,black
Reaction,canvas.Screen,2_41_0_2,2022-07-04T15:26:22.560Z,,,1,A,112.88800000003539,response,stim_detected,mousedown,555962.4000000001,555960.8,555831.235,555832.7,555847.912,555964.729,,black
Trial,flow.Sequence,2_41_0,2022-07-04T15:26:22.561Z,,,1,A,1930.6950000000652,completion,,,555962.8,555960.8,554013.428,554021.8,554030.105,555964.729,,black
Frame,canvas.Frame,2_41,2022-07-04T15:26:22.561Z,,,1,A,1932.7950000001583,,,,555963,555962.9000000001,554013.428,554021,554030.105,555964.729,,black
Fixation,canvas.Screen,2_42_0_0,2022-07-04T15:26:24.381Z,,,1,AV,1833.7569999999832,timeout,,,557783.2,557781.815,555948.052,555964.1000000001,555964.729,557798.486,,grey
Stimulus,canvas.Screen,2_42_0_1,2022-07-04T15:26:24.482Z,,,1,AV,100.75699999998324,timeout,,,557884.3,557882.566,557781.815,557784.2,557798.486,557899.243,,grey
Reaction,canvas.Screen,2_42_0_2,2022-07-04T15:26:24.606Z,,,1,AV,107.45699999993667,response,stim_detected,mousedown,558008.1000000001,558006.7,557882.566,557884.5,557899.243,558016.057,,grey
Trial,flow.Sequence,2_42_0,2022-07-04T15:26:24.607Z,,,1,AV,2041.9709999999031,completion,,,558008.5,558006.7,555948.052,555964,555964.729,558016.057,,grey
Frame,canvas.Frame,2_42,2022-07-04T15:26:24.607Z,,,1,AV,2043.9709999999031,,,,558008.9000000001,558008.7,555948.052,555963.3,555964.729,558016.057,,grey
Fixation,canvas.Screen,2_43_0_0,2022-07-04T15:26:26.919Z,,,1,A,2320.1089999999385,timeout,,,560320.5,560319.475,557999.38,558010,558016.057,560336.166,,black
Stimulus,canvas.Screen,2_43_0_1,2022-07-04T15:26:27.017Z,,,1,A,97.97100000001956,timeout,,,560418.7,560417.461,560319.475,560320.7,560336.166,560434.137,,black
Reaction,canvas.Screen,2_43_0_2,2022-07-04T15:26:27.159Z,,,1,A,125.56299999996554,response,stim_detected,mousedown,560561.2,560559.7,560417.461,560418.9000000001,560434.137,560567.768,,black
Trial,flow.Sequence,2_43_0,2022-07-04T15:26:27.160Z,,,1,A,2543.6429999999236,completion,,,560561.5,560559.7,557999.38,558009.8,558016.057,560567.768,,black
Frame,canvas.Frame,2_43,2022-07-04T15:26:27.160Z,,,1,A,2545.7430000000168,,,,560562.1000000001,560561.8,557999.38,558009.1000000001,558016.057,560567.768,,black
Fixation,canvas.Screen,2_44_0_0,2022-07-04T15:26:28.820Z,,,0,V,1668.701999999932,timeout,,,562221.4000000001,562219.784,560551.091,560563.2,560567.768,562236.47,,grey
Stimulus,canvas.Screen,2_44_0_1,2022-07-04T15:26:28.917Z,,,0,V,98.76800000004005,timeout,,,562319.5,562318.564,562219.784,562221.7,562236.47,562335.238,,grey
Reaction,canvas.Screen,2_44_0_2,2022-07-04T15:26:29.115Z,,,0,V,179.2619999999879,response,stim_detected,mousedown,562516.5,562514.5,562318.564,562319.7,562335.238,562519.141,,grey
Trial,flow.Sequence,2_44_0,2022-07-04T15:26:29.115Z,,,0,V,1946.73199999996,completion,,,562516.9000000001,562514.5,560551.091,560563,560567.768,562519.141,,grey
Frame,canvas.Frame,2_44,2022-07-04T15:26:29.115Z,,,0,V,1949.332000000053,,,,562517.3,562517.1000000001,560551.091,560562.3,560567.768,562519.141,,grey
Fixation,canvas.Screen,2_45_0_0,2022-07-04T15:26:31.003Z,,,1,A,1900.7820000000065,timeout,,,564404.6000000001,564403.249,562502.463,562518.3,562519.141,564419.923,,black
Stimulus,canvas.Screen,2_45_0_1,2022-07-04T15:26:31.103Z,,,1,A,100.38600000005681,timeout,,,564504.7,564503.633,564403.249,564404.9000000001,564419.923,564520.309,,black
Reaction,canvas.Screen,2_45_0_2,2022-07-04T15:26:31.256Z,,,1,A,135.39099999994505,response,stim_detected,mousedown,564657.7,564655.7,564503.633,564504.9000000001,564520.309,564670.546,,black
Trial,flow.Sequence,2_45_0,2022-07-04T15:26:31.256Z,,,1,A,2136.5590000000084,completion,,,564658,564655.7,562502.463,562518.2,562519.141,564670.546,,black
Frame,canvas.Frame,2_45,2022-07-04T15:26:31.256Z,,,1,A,2139.0590000000084,,,,564658.3,564658.2,562502.463,562517.4000000001,562519.141,564670.546,,black
Fixation,canvas.Screen,2_46_0_0,2022-07-04T15:26:33.188Z,,,1,AV,1934.7710000000661,timeout,,,566589.6000000001,566588.638,564653.869,564659.4000000001,564670.546,566605.317,,grey
Stimulus,canvas.Screen,2_46_0_1,2022-07-04T15:26:33.288Z,,,1,AV,99.39799999992829,timeout,,,566689.7,566688.042,566588.638,566589.9000000001,566605.317,566704.715,,grey
Reaction,canvas.Screen,2_46_0_2,2022-07-04T15:26:33.403Z,,,1,AV,98.88500000012573,response,stim_detected,mousedown,566805.1000000001,566803.6000000001,566688.042,566689.9000000001,566704.715,566821.944,,grey
Trial,flow.Sequence,2_46_0,2022-07-04T15:26:33.404Z,,,1,AV,2133.05400000012,completion,,,566805.5,566803.6000000001,564653.869,564659.3,564670.546,566821.944,,grey
Frame,canvas.Frame,2_46,2022-07-04T15:26:33.404Z,,,1,AV,2135.1539999999804,,,,566805.9000000001,566805.7,564653.869,564658.5,564670.546,566821.944,,grey
Fixation,canvas.Screen,2_47_0_0,2022-07-04T15:26:35.424Z,,,1,AV,2019.0829999999842,timeout,,,568825.7,568824.341,566805.267,566806.9000000001,566821.944,568841.027,,grey
Stimulus,canvas.Screen,2_47_0_1,2022-07-04T15:26:35.522Z,,,1,AV,98.54599999997299,timeout,,,568923.9000000001,568922.899,568824.341,568826,568841.027,568939.573,,grey
Reaction,canvas.Screen,2_47_0_2,2022-07-04T15:26:35.634Z,,,1,AV,94.82700000016484,response,stim_detected,mousedown,569036.1000000001,569034.4000000001,568922.899,568924.2,568939.573,569040.12,,grey
Trial,flow.Sequence,2_47_0,2022-07-04T15:26:35.634Z,,,1,AV,2212.456000000122,completion,,,569036.4000000001,569034.4000000001,566805.267,566806.8,566821.944,569040.12,,grey
Frame,canvas.Frame,2_47,2022-07-04T15:26:35.635Z,,,1,AV,2214.6560000000754,,,,569036.8,569036.6000000001,566805.267,566806.1000000001,566821.944,569040.12,,grey
Fixation,canvas.Screen,2_48_0_0,2022-07-04T15:26:37.675Z,,,0,V,2052.3850000000093,timeout,,,571076.8,571075.819,569023.443,569037.9000000001,569040.12,571092.505,,grey
Stimulus,canvas.Screen,2_48_0_1,2022-07-04T15:26:37.773Z,,,0,V,98.18400000000838,timeout,,,571175.1000000001,571174.018,571075.819,571077.2,571092.505,571190.689,,grey
Reaction,canvas.Screen,2_48_0_2,2022-07-04T15:26:37.895Z,,,0,V,104.81099999998696,response,stim_detected,mousedown,571296.8,571295.5,571174.018,571175.4000000001,571190.689,571308.296,,grey
Trial,flow.Sequence,2_48_0,2022-07-04T15:26:37.895Z,,,0,V,2255.3800000000047,completion,,,571297.2,571295.5,569023.443,569037.8,569040.12,571308.296,,grey
Frame,canvas.Frame,2_48,2022-07-04T15:26:37.896Z,,,0,V,2257.2800000001444,,,,571297.5,571297.4000000001,569023.443,569036.9000000001,569040.12,571308.296,,grey
Fixation,canvas.Screen,2_49_0_0,2022-07-04T15:26:39.459Z,,,0,V,1567.8479999999981,timeout,,,572860.9000000001,572859.465,571291.619,571298.7,571308.296,572876.144,,grey
Stimulus,canvas.Screen,2_49_0_1,2022-07-04T15:26:39.559Z,,,0,V,99.87400000006892,timeout,,,572961,572959.341,572859.465,572861.2,572876.144,572976.018,,grey
Reaction,canvas.Screen,2_49_0_2,2022-07-04T15:26:39.771Z,,,0,V,195.48199999995995,response,stim_detected,mousedown,573172.9000000001,573171.5,572959.341,572961.2,572976.018,573176.232,,grey
Trial,flow.Sequence,2_49_0,2022-07-04T15:26:39.771Z,,,0,V,1863.204000000027,completion,,,573173.3,573171.5,571291.619,571298.5,571308.296,573176.232,,grey
Frame,canvas.Frame,2_49,2022-07-04T15:26:39.772Z,,,0,V,1865.1040000001667,,,,573173.6000000001,573173.4000000001,571291.619,571297.7,571308.296,573176.232,,grey
Fixation,canvas.Screen,2_50_0_0,2022-07-04T15:26:41.643Z,,,0,V,1884.6419999999925,timeout,,,575045.1000000001,575044.196,573159.555,573174.7,573176.232,575060.874,,grey
Stimulus,canvas.Screen,2_50_0_1,2022-07-04T15:26:41.744Z,,,0,V,100.09700000006706,timeout,,,575146,575144.292,575044.196,575045.4000000001,575060.874,575160.971,,grey
Reaction,canvas.Screen,2_50_0_2,2022-07-04T15:26:41.908Z,,,0,V,147.42900000012014,response,stim_detected,mousedown,575310,575308.4000000001,575144.292,575146.4000000001,575160.971,575327.677,,grey
Trial,flow.Sequence,2_50_0,2022-07-04T15:26:41.908Z,,,0,V,2132.1680000001797,completion,,,575310.4000000001,575308.4000000001,573159.555,573174.5,573176.232,575327.677,,grey
Frame,canvas.Frame,2_50,2022-07-04T15:26:41.909Z,,,0,V,2134.26800000004,,,,575310.8,575310.5,573159.555,573173.8,573176.232,575327.677,,grey
Fixation,canvas.Screen,2_51_0_0,2022-07-04T15:26:43.579Z,,,1,A,1667.4780000000028,timeout,,,576980.1000000001,576978.48,575311,575312.3,575327.677,576995.155,,black
Stimulus,canvas.Screen,2_51_0_1,2022-07-04T15:26:43.679Z,,,1,A,100.37599999993108,timeout,,,577080.1000000001,577078.853,576978.48,576980.4000000001,576995.155,577095.531,,black
Reaction,canvas.Screen,2_51_0_2,2022-07-04T15:26:43.826Z,,,1,A,129.96900000004098,response,stim_detected,mousedown,577227.1000000001,577225.5,577078.853,577080.3,577095.531,577228.888,,black
Trial,flow.Sequence,2_51_0,2022-07-04T15:26:43.826Z,,,1,A,1897.8229999999749,completion,,,577227.6000000001,577225.5,575311,575312.2,575327.677,577228.888,,black
Frame,canvas.Frame,2_51,2022-07-04T15:26:43.827Z,,,1,A,1900.0229999999283,,,,577228,577227.7,575311,575311,575327.677,577228.888,,black
Fixation,canvas.Screen,2_52_0_0,2022-07-04T15:26:45.565Z,,,1,A,1752.8059999999823,timeout,,,578966.3,578965.002,577212.211,577229.1000000001,577228.888,578981.694,,black
Stimulus,canvas.Screen,2_52_0_1,2022-07-04T15:26:45.664Z,,,1,A,98.56299999996554,timeout,,,579065.2,579063.579,578965.002,578966.5,578981.694,579080.257,,black
Reaction,canvas.Screen,2_52_0_2,2022-07-04T15:26:45.962Z,,,1,A,281.14300000015646,response,stim_detected,mousedown,579363,579361.4000000001,579063.579,579065.4000000001,579080.257,579380.388,,black
Trial,flow.Sequence,2_52_0,2022-07-04T15:26:45.962Z,,,1,A,2132.5120000001043,completion,,,579363.3,579361.4000000001,577212.211,577229.1000000001,577228.888,579380.388,,black
Frame,canvas.Frame,2_52,2022-07-04T15:26:45.962Z,,,1,A,2134.6119999999646,,,,579363.9000000001,579363.5,577212.211,577228.2,577228.888,579380.388,,black
Fixation,canvas.Screen,2_53_0_0,2022-07-04T15:26:47.748Z,,,1,A,1783.9319999999134,timeout,,,581149.3,581147.647,579363.711,579365.1000000001,579380.388,581164.32,,black
Stimulus,canvas.Screen,2_53_0_1,2022-07-04T15:26:47.848Z,,,1,A,100.74900000006892,timeout,,,581249.4000000001,581248.391,581147.647,581149.7,581164.32,581265.069,,black
Reaction,canvas.Screen,2_53_0_2,2022-07-04T15:26:47.972Z,,,1,A,107.331000000122,response,stim_detected,mousedown,581373.9000000001,581372.4000000001,581248.391,581249.6000000001,581265.069,581381.707,,black
Trial,flow.Sequence,2_53_0,2022-07-04T15:26:47.973Z,,,1,A,1992.0120000001043,completion,,,581374.3,581372.4000000001,579363.711,579365,579380.388,581381.707,,black
Frame,canvas.Frame,2_53,2022-07-04T15:26:47.973Z,,,1,A,1994.1119999999646,,,,581374.7,581374.5,579363.711,579364,579380.388,581381.707,,black
Fixation,canvas.Screen,2_54_0_0,2022-07-04T15:26:49.966Z,,,1,A,2000.8499999999767,timeout,,,583367.4000000001,583365.883,581365.03,581375.9000000001,581381.707,583382.557,,black
Stimulus,canvas.Screen,2_54_0_1,2022-07-04T15:26:50.066Z,,,1,A,100.22499999997672,timeout,,,583467.6000000001,583466.107,583365.883,583367.7,583382.557,583482.782,,black
Reaction,canvas.Screen,2_54_0_2,2022-07-04T15:26:50.205Z,,,1,A,122.61800000013318,response,stim_detected,mousedown,583606.9000000001,583605.4000000001,583466.107,583467.7,583482.782,583616.514,,black
Trial,flow.Sequence,2_54_0,2022-07-04T15:26:50.206Z,,,1,A,2223.6930000000866,completion,,,583607.3,583605.4000000001,581365.03,581375.8,581381.707,583616.514,,black
Frame,canvas.Frame,2_54,2022-07-04T15:26:50.206Z,,,1,A,2225.6930000000866,,,,583607.5,583607.4000000001,581365.03,581374.8,581381.707,583616.514,,black
Fixation,canvas.Screen,2_55_0_0,2022-07-04T15:26:52.001Z,,,1,A,1801.4780000000028,timeout,,,585402.7,585401.312,583599.837,583608.5,583616.514,585417.992,,black
Stimulus,canvas.Screen,2_55_0_1,2022-07-04T15:26:52.101Z,,,1,A,99.85900000005495,timeout,,,585502.6000000001,585501.171,585401.312,585403,585417.992,585517.851,,black
Reaction,canvas.Screen,2_55_0_2,2022-07-04T15:26:52.234Z,,,1,A,116.44900000002235,response,stim_detected,mousedown,585635.7,585634.3,585501.171,585502.8,585517.851,585651.23,,black
Trial,flow.Sequence,2_55_0,2022-07-04T15:26:52.235Z,,,1,A,2017.78600000008,completion,,,585636.2,585634.3,583599.837,583608.4000000001,583616.514,585651.23,,black
Frame,canvas.Frame,2_55,2022-07-04T15:26:52.235Z,,,1,A,2019.78600000008,,,,585636.5,585636.3,583599.837,583607.8,583616.514,585651.23,,black
Fixation,canvas.Screen,2_56_0_0,2022-07-04T15:26:53.785Z,,,0,V,1550.6500000000233,timeout,,,587186.7,587185.206,585634.553,585637.5,585651.23,587201.88,,grey
Stimulus,canvas.Screen,2_56_0_1,2022-07-04T15:26:53.885Z,,,0,V,100.60699999995995,timeout,,,587286.6000000001,587285.808,587185.206,587187.1000000001,587201.88,587302.487,,grey
Reaction,canvas.Screen,2_56_0_2,2022-07-04T15:26:54.088Z,,,0,V,185.81300000008196,response,stim_detected,mousedown,587489.8,587488.3,587285.808,587286.8,587302.487,587502.445,,grey
Trial,flow.Sequence,2_56_0,2022-07-04T15:26:54.089Z,,,0,V,1837.0700000000652,completion,,,587490.2,587488.3,585634.553,585637.4000000001,585651.23,587502.445,,grey
Frame,canvas.Frame,2_56,2022-07-04T15:26:54.089Z,,,0,V,1839.1700000001583,,,,587490.6000000001,587490.4000000001,585634.553,585636.7,585651.23,587502.445,,grey
Fixation,canvas.Screen,2_57_0_0,2022-07-04T15:26:55.620Z,,,1,AV,1534.9330000000773,timeout,,,589021.7,589020.695,587485.768,587492,587502.445,589037.378,,grey
Stimulus,canvas.Screen,2_57_0_1,2022-07-04T15:26:55.720Z,,,1,AV,99.58600000001024,timeout,,,589121.8,589120.286,589020.695,589021.9000000001,589037.378,589136.964,,grey
Reaction,canvas.Screen,2_57_0_2,2022-07-04T15:26:55.850Z,,,1,AV,113.23599999991711,response,stim_detected,mousedown,589251.8,589250.2,589120.286,589122.1000000001,589136.964,589253.677,,grey
Trial,flow.Sequence,2_57_0,2022-07-04T15:26:55.851Z,,,1,AV,1747.7550000000047,completion,,,589252.1000000001,589250.2,587485.768,587491.9000000001,587502.445,589253.677,,grey
Frame,canvas.Frame,2_57,2022-07-04T15:26:55.851Z,,,1,AV,1749.8550000000978,,,,589252.5,589252.3,587485.768,587490.7,587502.445,589253.677,,grey
Fixation,canvas.Screen,2_58_0_0,2022-07-04T15:26:57.954Z,,,1,AV,2117.436999999918,timeout,,,591355.9000000001,591354.441,589237,589253.6000000001,589253.677,591371.114,,grey
Stimulus,canvas.Screen,2_58_0_1,2022-07-04T15:26:58.054Z,,,1,AV,99.76400000008289,timeout,,,591455.8,591454.207,591354.441,591356.1000000001,591371.114,591470.878,,grey
Reaction,canvas.Screen,2_58_0_2,2022-07-04T15:26:58.180Z,,,1,AV,109.42200000002049,response,stim_detected,mousedown,591581.8,591580.3,591454.207,591456.1000000001,591470.878,591588.549,,grey
Trial,flow.Sequence,2_58_0,2022-07-04T15:26:58.181Z,,,1,AV,2326.6230000000214,completion,,,591582.2,591580.3,589237,589253.5,589253.677,591588.549,,grey
Frame,canvas.Frame,2_58,2022-07-04T15:26:58.181Z,,,1,AV,2328.7230000001146,,,,591582.6000000001,591582.4000000001,589237,589252.7,589253.677,591588.549,,grey
Fixation,canvas.Screen,2_59_0_0,2022-07-04T15:27:00.323Z,,,1,A,2150.3610000000335,timeout,,,593724,593722.24,591571.872,591583.7,591588.549,593738.91,,black
Stimulus,canvas.Screen,2_59_0_1,2022-07-04T15:27:00.423Z,,,1,A,101.19099999999162,timeout,,,593824.9000000001,593823.422,593722.24,593724.3,593738.91,593840.101,,black
Reaction,canvas.Screen,2_59_0_2,2022-07-04T15:27:00.586Z,,,1,A,146.19900000002235,response,stim_detected,mousedown,593987.7,593986.3,593823.422,593825.1000000001,593840.101,593990.138,,black
Trial,flow.Sequence,2_59_0,2022-07-04T15:27:00.587Z,,,1,A,2397.7510000000475,completion,,,593988.1000000001,593986.3,591571.872,591583.6000000001,591588.549,593990.138,,black
Frame,canvas.Frame,2_59,2022-07-04T15:27:00.587Z,,,1,A,2399.6509999999544,,,,593988.4000000001,593988.2,591571.872,591582.7,591588.549,593990.138,,black
Fixation,canvas.Screen,2_60_0_0,2022-07-04T15:27:02.075Z,,,1,A,1501.4429999999702,timeout,,,595476.3,595474.899,593973.461,593989.5,593990.138,595491.581,,black
Stimulus,canvas.Screen,2_60_0_1,2022-07-04T15:27:02.174Z,,,1,A,98.84699999995064,timeout,,,595575,595573.759,595474.899,595476.7,595491.581,595590.428,,black
Reaction,canvas.Screen,2_60_0_2,2022-07-04T15:27:02.363Z,,,1,A,171.7719999999972,response,stim_detected,mousedown,595763.9000000001,595762.2,595573.759,595575.2,595590.428,595774.65,,black
Trial,flow.Sequence,2_60_0,2022-07-04T15:27:02.363Z,,,1,A,1772.061999999918,completion,,,595764.4000000001,595762.2,593973.461,593989.4000000001,593990.138,595774.65,,black
Frame,canvas.Frame,2_60,2022-07-04T15:27:02.363Z,,,1,A,1774.4620000000577,,,,595764.8,595764.6000000001,593973.461,593988.6000000001,593990.138,595774.65,,black
Fixation,canvas.Screen,2_61_0_0,2022-07-04T15:27:04.710Z,,,1,A,2351.93200000003,timeout,,,598111.3,598109.902,595757.973,595765.9000000001,595774.65,598126.582,,black
Stimulus,canvas.Screen,2_61_0_1,2022-07-04T15:27:04.810Z,,,1,A,99.61899999994785,timeout,,,598211.3,598209.524,598109.902,598111.6000000001,598126.582,598226.201,,black
Reaction,canvas.Screen,2_61_0_2,2022-07-04T15:27:04.960Z,,,1,A,133.9989999999525,response,stim_detected,mousedown,598361.7,598360.2,598209.524,598211.5,598226.201,598376.433,,black
Trial,flow.Sequence,2_61_0,2022-07-04T15:27:04.961Z,,,1,A,2585.54999999993,completion,,,598362.2,598360.2,595757.973,595765.8,595774.65,598376.433,,black
Frame,canvas.Frame,2_61,2022-07-04T15:27:04.961Z,,,1,A,2587.7500000001164,,,,598362.6000000001,598362.4000000001,595757.973,595765,595774.65,598376.433,,black
Fixation,canvas.Screen,2_62_0_0,2022-07-04T15:27:06.977Z,,,0,V,2017.6540000000969,timeout,,,600378.2,600377.412,598359.756,598364.1000000001,598376.433,600394.087,,grey
Stimulus,canvas.Screen,2_62_0_1,2022-07-04T15:27:07.077Z,,,0,V,99.7819999998901,timeout,,,600478.3,600477.196,600377.412,600378.5,600394.087,600493.869,,grey
Reaction,canvas.Screen,2_62_0_2,2022-07-04T15:27:07.253Z,,,0,V,158.2310000001453,response,stim_detected,mousedown,600654,600652.1000000001,600477.196,600478.6000000001,600493.869,600661.258,,grey
Trial,flow.Sequence,2_62_0,2022-07-04T15:27:07.253Z,,,0,V,2275.6670000001322,completion,,,600654.5,600652.1000000001,598359.756,598364,598376.433,600661.258,,grey
Frame,canvas.Frame,2_62,2022-07-04T15:27:07.253Z,,,0,V,2278.1670000001322,,,,600654.8,600654.6000000001,598359.756,598362.8,598376.433,600661.258,,grey
Fixation,canvas.Screen,2_63_0_0,2022-07-04T15:27:09.046Z,,,0,V,1801.844999999972,timeout,,,602447.4000000001,602446.42,600644.581,600656,600661.258,602463.103,,grey
Stimulus,canvas.Screen,2_63_0_1,2022-07-04T15:27:09.146Z,,,0,V,99.41700000001583,timeout,,,602547.4000000001,602545.843,602446.42,602447.6000000001,602463.103,602562.52,,grey
Reaction,canvas.Screen,2_63_0_2,2022-07-04T15:27:09.322Z,,,0,V,159.78000000002794,response,stim_detected,mousedown,602723.7,602722.3,602545.843,602547.7,602562.52,602729.357,,grey
Trial,flow.Sequence,2_63_0,2022-07-04T15:27:09.323Z,,,0,V,2061.042000000016,completion,,,602724.1000000001,602722.3,600644.581,600655.9000000001,600661.258,602729.357,,grey
Frame,canvas.Frame,2_63,2022-07-04T15:27:09.323Z,,,0,V,2062.9419999999227,,,,602724.4000000001,602724.2,600644.581,600655.1000000001,600661.258,602729.357,,grey
Fixation,canvas.Screen,2_64_0_0,2022-07-04T15:27:11.680Z,,,1,AV,2383.874000000069,timeout,,,605081.4000000001,605079.889,602712.68,602725.3,602729.357,605113.231,,grey
Stimulus,canvas.Screen,2_64_0_1,2022-07-04T15:27:11.797Z,,,1,AV,101.07299999997485,timeout,,,605198.5,605197.626,605079.889,605081.7,605113.231,605214.304,,grey
Reaction,canvas.Screen,2_64_0_2,2022-07-04T15:27:11.949Z,,,1,AV,134.8959999999497,response,stim_detected,mousedown,605350.6000000001,605349.2,605197.626,605198.8,605214.304,605364.368,,grey
Trial,flow.Sequence,2_64_0,2022-07-04T15:27:11.950Z,,,1,AV,2619.8429999999935,completion,,,605351.2,605349.2,602712.68,602725.2,602729.357,605364.368,,grey
Frame,canvas.Frame,2_64,2022-07-04T15:27:11.950Z,,,1,AV,2621.9430000000866,,,,605351.5,605351.3,602712.68,602724.5,602729.357,605364.368,,grey
Fixation,canvas.Screen,2_65_0_0,2022-07-04T15:27:13.533Z,,,0,V,1585.4749999999767,timeout,,,606934.9000000001,606933.154,605347.691,605352.7,605364.368,606949.843,,grey
Stimulus,canvas.Screen,2_65_0_1,2022-07-04T15:27:13.631Z,,,0,V,98.42099999997299,timeout,,,607032.6000000001,607031.592,606933.154,606935.1000000001,606949.843,607048.264,,grey
Reaction,canvas.Screen,2_65_0_2,2022-07-04T15:27:13.825Z,,,0,V,176.93599999998696,response,stim_detected,mousedown,607226.7,607225.2,607031.592,607032.8,607048.264,607232.31,,grey
Trial,flow.Sequence,2_65_0,2022-07-04T15:27:13.826Z,,,0,V,1860.8319999999367,completion,,,607227.1000000001,607225.2,605347.691,605352.6000000001,605364.368,607232.31,,grey
Frame,canvas.Frame,2_65,2022-07-04T15:27:13.826Z,,,0,V,1862.7320000000764,,,,607227.4000000001,607227.1000000001,605347.691,605351.7,605364.368,607232.31,,grey
Fixation,canvas.Screen,2_66_0_0,2022-07-04T15:27:15.784Z,,,0,V,1969.045999999973,timeout,,,609185.7,609184.67,607215.633,607228.5,607232.31,609201.356,,grey
Stimulus,canvas.Screen,2_66_0_1,2022-07-04T15:27:15.883Z,,,0,V,98.8969999999972,timeout,,,609284.7,609283.577,609184.67,609186,609201.356,609300.253,,grey
Reaction,canvas.Screen,2_66_0_2,2022-07-04T15:27:16.074Z,,,0,V,173.84700000006706,response,stim_detected,mousedown,609475.7,609474.1000000001,609283.577,609284.9000000001,609300.253,609483.842,,grey
Trial,flow.Sequence,2_66_0,2022-07-04T15:27:16.075Z,,,0,V,2241.7900000000373,completion,,,609476.2,609474.1000000001,607215.633,607228.4000000001,607232.31,609483.842,,grey
Frame,canvas.Frame,2_66,2022-07-04T15:27:16.075Z,,,0,V,2243.8899999998976,,,,609476.5,609476.2,607215.633,607227.6000000001,607232.31,609483.842,,grey
Fixation,canvas.Screen,2_67_0_0,2022-07-04T15:27:17.751Z,,,1,A,1684.0400000000373,timeout,,,611152.8,611151.208,609467.165,609477.6000000001,609483.842,611167.882,,black
Stimulus,canvas.Screen,2_67_0_1,2022-07-04T15:27:17.851Z,,,1,A,100.55099999997765,timeout,,,611252.7,611251.755,611151.208,611153,611167.882,611268.433,,black
Reaction,canvas.Screen,2_67_0_2,2022-07-04T15:27:17.951Z,,,1,A,82.56700000003912,response,stim_detected,mousedown,611352.6000000001,611351,611251.755,611253,611268.433,611385.089,,black
Trial,flow.Sequence,2_67_0,2022-07-04T15:27:17.952Z,,,1,A,1867.158000000054,completion,,,611353,611351,609467.165,609477.6000000001,609483.842,611385.089,,black
Frame,canvas.Frame,2_67,2022-07-04T15:27:17.952Z,,,1,A,1869.3580000000075,,,,611353.5,611353.2,609467.165,609476.7,609483.842,611385.089,,black
Fixation,canvas.Screen,2_68_0_0,2022-07-04T15:27:20.069Z,,,1,A,2101.167000000016,timeout,,,613470.9000000001,613469.58,611351.735,611354.6000000001,611385.089,613486.256,,black
Stimulus,canvas.Screen,2_68_0_1,2022-07-04T15:27:20.169Z,,,1,A,99.67299999995157,timeout,,,613570.8,613569.256,613469.58,613471.1000000001,613486.256,613585.929,,black
Reaction,canvas.Screen,2_68_0_2,2022-07-04T15:27:20.316Z,,,1,A,130.1710000000894,response,stim_detected,mousedown,613717.6000000001,613716.1000000001,613569.256,613571.1000000001,613585.929,613719.984,,black
Trial,flow.Sequence,2_68_0,2022-07-04T15:27:20.317Z,,,1,A,2331.011000000057,completion,,,613717.9000000001,613716.1000000001,611351.735,611354.4000000001,611385.089,613719.984,,black
Frame,canvas.Frame,2_68,2022-07-04T15:27:20.317Z,,,1,A,2333.011000000057,,,,613718.3,613718.1000000001,611351.735,611353.6000000001,611385.089,613719.984,,black
Fixation,canvas.Screen,2_69_0_0,2022-07-04T15:27:22.105Z,,,0,V,1801.7829999999376,timeout,,,615506,615505.084,613703.307,613719.4000000001,613719.984,615521.767,,grey
Stimulus,canvas.Screen,2_69_0_1,2022-07-04T15:27:22.203Z,,,0,V,98.81700000003912,timeout,,,615604.9000000001,615603.912,615505.084,615506.2,615521.767,615620.584,,grey
Reaction,canvas.Screen,2_69_0_2,2022-07-04T15:27:22.385Z,,,0,V,164.51600000006147,response,stim_detected,mousedown,615786.7,615785.1000000001,615603.912,615605.1000000001,615620.584,615804.697,,grey
Trial,flow.Sequence,2_69_0,2022-07-04T15:27:22.386Z,,,0,V,2065.116000000038,completion,,,615787.2,615785.1000000001,613703.307,613719.3,613719.984,615804.697,,grey
Frame,canvas.Frame,2_69,2022-07-04T15:27:22.386Z,,,0,V,2067.3159999999916,,,,615787.5,615787.3,613703.307,613718.5,613719.984,615804.697,,grey
Fixation,canvas.Screen,2_70_0_0,2022-07-04T15:27:24.056Z,,,0,V,1668.6929999999702,timeout,,,617457.9000000001,617456.703,615788.02,615788.7,615804.697,617473.39,,grey
Stimulus,canvas.Screen,2_70_0_1,2022-07-04T15:27:24.156Z,,,0,V,98.62100000004284,timeout,,,617557,617555.339,617456.703,617458,617473.39,617572.011,,grey
Reaction,canvas.Screen,2_70_0_2,2022-07-04T15:27:24.299Z,,,0,V,127.08900000003632,response,stim_detected,mousedown,617700.6000000001,617699.1000000001,617555.339,617557.3,617572.011,617705.978,,grey
Trial,flow.Sequence,2_70_0,2022-07-04T15:27:24.300Z,,,0,V,1894.4030000000494,completion,,,617701.1000000001,617699.1000000001,615788.02,615788.6000000001,615804.697,617705.978,,grey
Frame,canvas.Frame,2_70,2022-07-04T15:27:24.300Z,,,0,V,1896.5029999999097,,,,617701.3,617701.2,615788.02,615787.7,615804.697,617705.978,,grey
Fixation,canvas.Screen,2_71_0_0,2022-07-04T15:27:25.975Z,,,0,V,1685.1779999999562,timeout,,,619376.2,619374.471,617689.301,617702.5,617705.978,619391.156,,grey
Stimulus,canvas.Screen,2_71_0_1,2022-07-04T15:27:26.073Z,,,0,V,98.73300000000745,timeout,,,619474.3,619473.217,619374.471,619376.4000000001,619391.156,619489.889,,grey
Reaction,canvas.Screen,2_71_0_2,2022-07-04T15:27:26.241Z,,,0,V,151.11100000003353,response,stim_detected,mousedown,619642.5,619641,619473.217,619474.6000000001,619489.889,619657.283,,grey
Trial,flow.Sequence,2_71_0,2022-07-04T15:27:26.241Z,,,0,V,1935.0219999999972,completion,,,619642.9000000001,619641,617689.301,617702.4000000001,617705.978,619657.283,,grey
Frame,canvas.Frame,2_71,2022-07-04T15:27:26.242Z,,,0,V,1937.0219999999972,,,,619643.2,619643,617689.301,617701.6000000001,617705.978,619657.283,,grey
Fixation,canvas.Screen,2_72_0_0,2022-07-04T15:27:28.009Z,,,0,V,1768.4709999999031,timeout,,,621410.3,621409.071,619640.606,619644.7,619657.283,621425.754,,grey
Stimulus,canvas.Screen,2_72_0_1,2022-07-04T15:27:28.109Z,,,0,V,99.51600000006147,timeout,,,621510.3,621508.591,621409.071,621410.5,621425.754,621525.27,,grey
Reaction,canvas.Screen,2_72_0_2,2022-07-04T15:27:28.257Z,,,0,V,131.8300000000745,response,stim_detected,mousedown,621658.5,621657.1000000001,621508.591,621510.6000000001,621525.27,621675.191,,grey
Trial,flow.Sequence,2_72_0,2022-07-04T15:27:28.257Z,,,0,V,1999.8170000000391,completion,,,621658.8,621657.1000000001,619640.606,619644.6000000001,619657.283,621675.191,,grey
Frame,canvas.Frame,2_72,2022-07-04T15:27:28.258Z,,,0,V,2001.8170000000391,,,,621659.2,621659.1000000001,619640.606,619643.3,619657.283,621675.191,,grey
Fixation,canvas.Screen,2_73_0_0,2022-07-04T15:27:30.076Z,,,0,V,1817.4150000000373,timeout,,,623477.4000000001,623475.933,621658.523,621660.2,621675.191,623492.606,,grey
Stimulus,canvas.Screen,2_73_0_1,2022-07-04T15:27:30.177Z,,,0,V,100.72600000002421,timeout,,,623578.4000000001,623576.653,623475.933,623477.6000000001,623492.606,623593.332,,grey
Reaction,canvas.Screen,2_73_0_2,2022-07-04T15:27:30.337Z,,,0,V,143.66799999994691,response,stim_detected,mousedown,623738.4000000001,623737,623576.653,623578.6000000001,623593.332,623743.386,,grey
Trial,flow.Sequence,2_73_0,2022-07-04T15:27:30.337Z,,,0,V,2061.8090000000084,completion,,,623738.8,623737,621658.523,621660.1000000001,621675.191,623743.386,,grey
Frame,canvas.Frame,2_73,2022-07-04T15:27:30.338Z,,,0,V,2063.8090000000084,,,,623739.2,623739,621658.523,621659.4000000001,621675.191,623743.386,,grey
Fixation,canvas.Screen,2_74_0_0,2022-07-04T15:27:32.711Z,,,1,AV,2384.35699999996,timeout,,,626112.4000000001,626111.069,623726.709,623740.3,623743.386,626127.743,,grey
Stimulus,canvas.Screen,2_74_0_1,2022-07-04T15:27:32.811Z,,,1,AV,100.19699999992736,timeout,,,626212.5,626211.265,626111.069,626112.6000000001,626127.743,626227.94,,grey
Reaction,canvas.Screen,2_74_0_2,2022-07-04T15:27:32.929Z,,,1,AV,101.06000000005588,response,stim_detected,mousedown,626330.2,626329,626211.265,626212.8,626227.94,626345.063,,grey
Trial,flow.Sequence,2_74_0,2022-07-04T15:27:32.929Z,,,1,AV,2585.613999999943,completion,,,626330.5,626329,623726.709,623740.2,623743.386,626345.063,,grey
Frame,canvas.Frame,2_74,2022-07-04T15:27:32.929Z,,,1,AV,2587.3139999998966,,,,626330.7,626330.7,623726.709,623739.4000000001,623743.386,626345.063,,grey
Fixation,canvas.Screen,2_75_0_0,2022-07-04T15:27:35.030Z,,,1,AV,2101.7090000000317,timeout,,,628431.6000000001,628430.092,626328.386,626331.6000000001,626345.063,628446.772,,grey
Stimulus,canvas.Screen,2_75_0_1,2022-07-04T15:27:35.130Z,,,1,AV,99.86699999996927,timeout,,,628531.6000000001,628529.957,628430.092,628431.8,628446.772,628546.639,,grey
Reaction,canvas.Screen,2_75_0_2,2022-07-04T15:27:35.138Z,,,1,AV,7.443000000086613,response,stim_detected,mousedown,628539.8,628537.4000000001,628529.957,628531.8,,628563.321,,grey
Trial,flow.Sequence,2_75_0,2022-07-04T15:27:35.139Z,,,1,AV,2192.337000000174,completion,,,628540.4000000001,628537.4000000001,626328.386,626331.6000000001,626345.063,628563.321,,grey
Frame,canvas.Frame,2_75,2022-07-04T15:27:35.139Z,,,1,AV,2195.337000000174,,,,628540.6000000001,628540.4000000001,626328.386,626331,626345.063,628563.321,,grey
Fixation,canvas.Screen,2_76_0_0,2022-07-04T15:27:36.914Z,,,1,A,1767.5749999999534,timeout,,,630315.7,630314.22,628546.639,628541.7,628563.321,630330.896,,black
Stimulus,canvas.Screen,2_76_0_1,2022-07-04T15:27:37.014Z,,,1,A,100.39400000008754,timeout,,,630415.7,630414.608,630314.22,630316,630330.896,630431.29,,black
Reaction,canvas.Screen,2_76_0_2,2022-07-04T15:27:37.183Z,,,1,A,151.70999999996275,response,stim_detected,mousedown,630584.6000000001,630583,630414.608,630415.9000000001,630431.29,630597.958,,black
Trial,flow.Sequence,2_76_0,2022-07-04T15:27:37.184Z,,,1,A,2019.6790000000037,completion,,,630585,630583,628546.639,628541.5,628563.321,630597.958,,black
Frame,canvas.Frame,2_76,2022-07-04T15:27:37.184Z,,,1,A,2021.8789999999572,,,,630585.4000000001,630585.2,628546.639,628540.8,628563.321,630597.958,,black
Fixation,canvas.Screen,2_77_0_0,2022-07-04T15:27:38.749Z,,,0,V,1568.0409999999683,timeout,,,632150.7,632149.318,630581.281,630586.6000000001,630597.958,632165.999,,grey
Stimulus,canvas.Screen,2_77_0_1,2022-07-04T15:27:38.848Z,,,0,V,99.70400000002701,timeout,,,632249.8,632248.901,632149.318,632151,632165.999,632265.703,,grey
Reaction,canvas.Screen,2_77_0_2,2022-07-04T15:27:39.003Z,,,0,V,137.1970000001602,response,stim_detected,mousedown,632404.6000000001,632402.9000000001,632248.901,632250.1000000001,632265.703,632415.796,,grey
Trial,flow.Sequence,2_77_0,2022-07-04T15:27:39.004Z,,,0,V,1804.9420000001555,completion,,,632405,632402.9000000001,630581.281,630586.5,630597.958,632415.796,,grey
Frame,canvas.Frame,2_77,2022-07-04T15:27:39.004Z,,,0,V,1807.142000000109,,,,632405.4000000001,632405.1000000001,630581.281,630585.7,630597.958,632415.796,,grey
Fixation,canvas.Screen,2_78_0_0,2022-07-04T15:27:40.801Z,,,1,AV,1802.3200000000652,timeout,,,634202.8,634201.429,632399.119,632406.4000000001,632415.796,634218.116,,grey
Stimulus,canvas.Screen,2_78_0_1,2022-07-04T15:27:40.900Z,,,1,AV,99.08699999994133,timeout,,,634301.8,634300.525,634201.429,634203.1000000001,634218.116,634317.203,,grey
Reaction,canvas.Screen,2_78_0_2,2022-07-04T15:27:41.030Z,,,1,AV,112.69700000016019,response,stim_detected,mousedown,634431.5,634429.9000000001,634300.525,634302,634317.203,634433.842,,grey
Trial,flow.Sequence,2_78_0,2022-07-04T15:27:41.030Z,,,1,AV,2014.1040000001667,completion,,,634431.8,634429.9000000001,632399.119,632406.4000000001,632415.796,634433.842,,grey
Frame,canvas.Frame,2_78,2022-07-04T15:27:41.031Z,,,1,AV,2016.204000000027,,,,634432.1000000001,634432,632399.119,632405.5,632415.796,634433.842,,grey
Fixation,canvas.Screen,2_79_0_0,2022-07-04T15:27:43.369Z,,,1,AV,2351.1590000001015,timeout,,,636770.1000000001,636768.326,634417.165,634433.3,634433.842,636785.001,,grey
Stimulus,canvas.Screen,2_79_0_1,2022-07-04T15:27:43.469Z,,,1,AV,100.36499999999069,timeout,,,636870.1000000001,636868.689,636768.326,636770.4000000001,636785.001,636885.366,,grey
Reaction,canvas.Screen,2_79_0_2,2022-07-04T15:27:43.620Z,,,1,AV,133.5340000001015,response,stim_detected,mousedown,637020.5,637018.9000000001,636868.689,636870.3,636885.366,637035.569,,grey
Trial,flow.Sequence,2_79_0,2022-07-04T15:27:43.620Z,,,1,AV,2585.0580000001937,completion,,,637020.9000000001,637018.9000000001,634417.165,634433.2,634433.842,637035.569,,grey
Frame,canvas.Frame,2_79,2022-07-04T15:27:43.620Z,,,1,AV,2587.258000000147,,,,637021.2,637021.1000000001,634417.165,634432.4000000001,634433.842,637035.569,,grey
Fixation,canvas.Screen,2_80_0_0,2022-07-04T15:27:46.090Z,,,1,A,2469.7559999999357,timeout,,,639490.4000000001,639488.638,637018.892,637022.4000000001,637035.569,639505.325,,black
Stimulus,canvas.Screen,2_80_0_1,2022-07-04T15:27:46.188Z,,,1,A,98.39300000004005,timeout,,,639588.4000000001,639587.042,639488.638,639490.7,639505.325,639603.718,,black
Reaction,canvas.Screen,2_80_0_2,2022-07-04T15:27:47.688Z,,,1,A,1501.1929999999702,timeout,,,641089.1000000001,641088.234,639587.042,639588.7,639603.718,641104.911,,black
Trial,flow.Sequence,2_80_0,2022-07-04T15:27:47.689Z,,,1,A,4052.6650000000373,completion,,,641089.5,641088.234,637018.892,637022.3,637035.569,641104.911,,black
Frame,canvas.Frame,2_80,2022-07-04T15:27:47.689Z,,,1,A,4054.1309999999357,,,,641089.9000000001,641089.7,637018.892,637021.4000000001,637035.569,641121.588,,black
Fixation,canvas.Screen,2_81_0_0,2022-07-04T15:27:49.791Z,,,1,A,2084.707000000053,timeout,,,643191.3,643189.618,641104.911,641090.9000000001,641121.588,643206.295,,black
Stimulus,canvas.Screen,2_81_0_1,2022-07-04T15:27:49.886Z,,,1,A,95.16099999996368,timeout,,,643286.3,643284.817,643189.618,643191.5,643206.295,643301.456,,black
Reaction,canvas.Screen,2_81_0_2,2022-07-04T15:27:50.048Z,,,1,A,145.4440000001341,response,stim_detected,mousedown,643448.4000000001,643446.9000000001,643284.817,643286.5,643301.456,643456.534,,black
Trial,flow.Sequence,2_81_0,2022-07-04T15:27:50.048Z,,,1,A,2325.312000000151,completion,,,643448.8,643446.9000000001,641104.911,641090.8,641121.588,643456.534,,black
Frame,canvas.Frame,2_81,2022-07-04T15:27:50.048Z,,,1,A,2327.312000000151,,,,643449.1000000001,643448.9000000001,641104.911,641090.1000000001,641121.588,643456.534,,black
Fixation,canvas.Screen,2_82_0_0,2022-07-04T15:27:52.342Z,,,1,A,2301.4250000000466,timeout,,,645742.8,645741.282,643439.857,643450.2,643456.534,645757.959,,black
Stimulus,canvas.Screen,2_82_0_1,2022-07-04T15:27:52.442Z,,,1,A,100.20899999991525,timeout,,,645842.6000000001,645841.42,645741.282,645743.1000000001,645757.959,645858.168,,black
Reaction,canvas.Screen,2_82_0_2,2022-07-04T15:27:52.600Z,,,1,A,140.63200000009965,response,stim_detected,mousedown,646000.4000000001,645998.8,645841.42,645842.9000000001,645858.168,646024.938,,black
Trial,flow.Sequence,2_82_0,2022-07-04T15:27:52.600Z,,,1,A,2542.2660000000615,completion,,,646000.7,645998.8,643439.857,643450.2,643456.534,646024.938,,black
Frame,canvas.Frame,2_82,2022-07-04T15:27:52.600Z,,,1,A,2544.3660000001546,,,,646001.1000000001,646000.9000000001,643439.857,643449.3,643456.534,646024.938,,black
Fixation,canvas.Screen,2_83_0_0,2022-07-04T15:27:54.244Z,,,1,AV,1634.5690000000177,timeout,,,647644.4000000001,647642.828,646008.261,646002.2,646024.938,647659.507,,grey
Stimulus,canvas.Screen,2_83_0_1,2022-07-04T15:27:54.343Z,,,1,AV,99.93299999996088,timeout,,,647743.8,647742.638,647642.828,647644.6000000001,647659.507,647759.44,,grey
Reaction,canvas.Screen,2_83_0_2,2022-07-04T15:27:54.518Z,,,1,AV,157.36000000010245,response,stim_detected,mousedown,647918.5,647916.8,647742.638,647744.3,647759.44,647942.887,,grey
Trial,flow.Sequence,2_83_0,2022-07-04T15:27:54.518Z,,,1,AV,1891.862000000081,completion,,,647919.1000000001,647916.8,646008.261,646002,646024.938,647942.887,,grey
Frame,canvas.Frame,2_83,2022-07-04T15:27:54.519Z,,,1,AV,1894.1620000001276,,,,647919.4000000001,647919.1000000001,646008.261,646001.2,646024.938,647942.887,,grey
Fixation,canvas.Screen,2_84_0_0,2022-07-04T15:27:56.245Z,,,1,A,1717.73199999996,timeout,,,649645.8,649643.942,647926.21,647920.3,647942.887,649660.619,,black
Stimulus,canvas.Screen,2_84_0_1,2022-07-04T15:27:56.344Z,,,1,A,99.7160000000149,timeout,,,649744.6000000001,649743.661,649643.942,649646.1000000001,649660.619,649760.335,,black
Reaction,canvas.Screen,2_84_0_2,2022-07-04T15:27:56.496Z,,,1,A,134.3649999999907,response,stim_detected,mousedown,649896.3,649894.7,649743.661,649744.8,649760.335,649910.9,,black
Trial,flow.Sequence,2_84_0,2022-07-04T15:27:56.496Z,,,1,A,1951.8129999999655,completion,,,649896.8,649894.7,647926.21,647920.3,647942.887,649910.9,,black
Frame,canvas.Frame,2_84,2022-07-04T15:27:56.496Z,,,1,A,1954.0130000001518,,,,649897.1000000001,649896.9000000001,647926.21,647919.5,647942.887,649910.9,,black
Fixation,canvas.Screen,2_85_0_0,2022-07-04T15:27:58.062Z,,,0,V,1567.3199999999488,timeout,,,651462.6000000001,651461.546,649894.222,649898.2,649910.9,651478.22,,grey
Stimulus,canvas.Screen,2_85_0_1,2022-07-04T15:27:58.162Z,,,0,V,99.82700000004843,timeout,,,651562.8,651561.375,651461.546,651462.9000000001,651478.22,651578.047,,grey
Reaction,canvas.Screen,2_85_0_2,2022-07-04T15:27:58.468Z,,,0,V,289.65299999993294,response,stim_detected,mousedown,651869.2,651867.7,651561.375,651563,651578.047,651878.873,,grey
Trial,flow.Sequence,2_85_0,2022-07-04T15:27:58.469Z,,,0,V,1956.7999999999302,completion,,,651869.6000000001,651867.7,649894.222,649898.1000000001,649910.9,651878.873,,grey
Frame,canvas.Frame,2_85,2022-07-04T15:27:58.469Z,,,0,V,1958.7999999999302,,,,651869.9000000001,651869.7,649894.222,649897.3,649910.9,651878.873,,grey
Fixation,canvas.Screen,2_86_0_0,2022-07-04T15:28:00.896Z,,,0,V,2433.152999999933,timeout,,,654296.8,654295.359,651862.195,651871,651878.873,654312.026,,grey
Stimulus,canvas.Screen,2_86_0_1,2022-07-04T15:28:00.998Z,,,0,V,101.84000000008382,timeout,,,654398.9000000001,654397.183,654295.359,654297,654312.026,654413.866,,grey
Reaction,canvas.Screen,2_86_0_2,2022-07-04T15:28:01.160Z,,,0,V,144.93400000000838,response,stim_detected,mousedown,654560.3,654558.8,654397.183,654399.1000000001,654413.866,654563.959,,grey
Trial,flow.Sequence,2_86_0,2022-07-04T15:28:01.160Z,,,0,V,2679.927000000025,completion,,,654560.7,654558.8,651862.195,651870.9000000001,651878.873,654563.959,,grey
Frame,canvas.Frame,2_86,2022-07-04T15:28:01.160Z,,,0,V,2682.0270000001183,,,,654561,654560.9000000001,651862.195,651870.1000000001,651878.873,654563.959,,grey
Fixation,canvas.Screen,2_87_0_0,2022-07-04T15:28:02.949Z,,,1,AV,1801.811999999918,timeout,,,656350,656349.088,654547.282,654562.1000000001,654563.959,656365.771,,grey
Stimulus,canvas.Screen,2_87_0_1,2022-07-04T15:28:03.049Z,,,1,AV,99.49800000002142,timeout,,,656449.9000000001,656448.592,656349.088,656350.2,656365.771,656465.269,,grey
Reaction,canvas.Screen,2_87_0_2,2022-07-04T15:28:03.207Z,,,1,AV,141.331000000122,response,stim_detected,mousedown,656608,656606.6000000001,656448.592,656450.1000000001,656465.269,656615.301,,grey
Trial,flow.Sequence,2_87_0,2022-07-04T15:28:03.208Z,,,1,AV,2042.6410000000615,completion,,,656608.4000000001,656606.6000000001,654547.282,654562.1000000001,654563.959,656615.301,,grey
Frame,canvas.Frame,2_87,2022-07-04T15:28:03.208Z,,,1,AV,2044.5409999999683,,,,656608.7,656608.5,654547.282,654561.2,654563.959,656615.301,,grey
Fixation,canvas.Screen,2_88_0_0,2022-07-04T15:28:05.503Z,,,1,AV,2303.1450000000186,timeout,,,658904.1000000001,658901.757,656598.624,656609.7,656615.301,658918.446,,grey
Stimulus,canvas.Screen,2_88_0_1,2022-07-04T15:28:05.601Z,,,1,AV,97.9440000000177,timeout,,,659001.3,658999.716,658901.757,658904.4000000001,658918.446,659016.39,,grey
Reaction,canvas.Screen,2_88_0_2,2022-07-04T15:28:05.765Z,,,1,AV,148.30999999993946,response,stim_detected,mousedown,659166.1000000001,659164.7,658999.716,659001.6000000001,659016.39,659183.726,,grey
Trial,flow.Sequence,2_88_0,2022-07-04T15:28:05.766Z,,,1,AV,2549.398999999976,completion,,,659166.6000000001,659164.7,656598.624,656609.6000000001,656615.301,659183.726,,grey
Frame,canvas.Frame,2_88,2022-07-04T15:28:05.766Z,,,1,AV,2551.398999999976,,,,659166.9000000001,659166.7,656598.624,656608.9000000001,656615.301,659183.726,,grey
Fixation,canvas.Screen,2_89_0_0,2022-07-04T15:28:07.468Z,,,1,A,1700.6010000000242,timeout,,,660869.1000000001,660867.654,659167.049,659168,659183.726,660884.327,,black
Stimulus,canvas.Screen,2_89_0_1,2022-07-04T15:28:07.568Z,,,1,A,100.62599999993108,timeout,,,660969,660968.161,660867.654,660869.4000000001,660884.327,660984.953,,black
Reaction,canvas.Screen,2_89_0_2,2022-07-04T15:28:07.768Z,,,1,A,182.74699999997392,response,stim_detected,mousedown,661169.2,661167.7,660968.161,660969.4000000001,660984.953,661185.077,,black
Trial,flow.Sequence,2_89_0,2022-07-04T15:28:07.769Z,,,1,A,1983.9739999999292,completion,,,661169.6000000001,661167.7,659167.049,659167.9000000001,659183.726,661185.077,,black
Frame,canvas.Frame,2_89,2022-07-04T15:28:07.769Z,,,1,A,1985.9739999999292,,,,661169.8,661169.7,659167.049,659167.1000000001,659183.726,661185.077,,black
Fixation,canvas.Screen,2_90_0_0,2022-07-04T15:28:09.470Z,,,1,AV,1700.716999999946,timeout,,,662870.4000000001,662869.12,661168.4,661171,661185.077,662885.794,,grey
Stimulus,canvas.Screen,2_90_0_1,2022-07-04T15:28:09.570Z,,,1,AV,100.53599999996368,timeout,,,662971.2,662969.652,662869.12,662870.7,662885.794,662986.33,,grey
Reaction,canvas.Screen,2_90_0_2,2022-07-04T15:28:09.755Z,,,1,AV,168.27000000013504,response,stim_detected,mousedown,663156.1000000001,663154.6000000001,662969.652,662971.5,662986.33,663169.697,,grey
Trial,flow.Sequence,2_90_0,2022-07-04T15:28:09.756Z,,,1,AV,1969.5230000000447,completion,,,663156.5,663154.6000000001,661168.4,661170.9000000001,661185.077,663169.697,,grey
Frame,canvas.Frame,2_90,2022-07-04T15:28:09.756Z,,,1,AV,1971.622999999905,,,,663156.9000000001,663156.7,661168.4,661170,661185.077,663169.697,,grey
Loop,flow.Loop,2,2022-07-04T15:28:09.756Z,,,,,202422.13499999995,completion,,,663157.3,663156.7,460717.886,460720.19999999995,460734.565,663169.697,,
end,html.Page,3,2022-07-04T15:28:15.856Z,,,,,6086.203000000096,form submission,,,669256.4000000001,669255.9000000001,663153.02,663157.4000000001,663169.697,669258.859,,
root,flow.Sequence,,2022-07-04T15:28:15.857Z,,,,,666179.0460000001,completion,,,669257.9000000001,669255.9000000001,3043.491,3049.5,3076.854,669258.859,,