sender,sender_type,sender_id,timestamp,meta,,aud,condition,duration,ended_on,response,response_action,time_commit,time_end,time_render,time_run,time_show,time_switch,url,vis
Instructions,html.Page,0,2022-07-04T16:56:57.666Z,"{""labjs_version"":""20.2.4"",""labjs_build"":{""flavor"":""production"",""commit"":""f5b4a49f956347addd546a832a3327688c2c0fef""},""location"":""file:///C:/Users/Proband%207/Desktop/RTE/index.html"",""userAgent"":""Mozilla/5.0 (Windows NT 6.1; Win64; x64) AppleWebKit/537.36 (KHTML, like Gecko) Chrome/103.0.0.0 Safari/537.36"",""platform"":""Win32"",""language"":""de-DE"",""locale"":""de"",""timeZone"":""Europe/Berlin"",""timezoneOffset"":-120,""screen_width"":1366,""screen_height"":768,""scroll_width"":1366,""scroll_height"":609,""window_innerWidth"":1366,""window_innerHeight"":657,""devicePixelRatio"":1}",,,,122729.735,form submission,,,124849.79999999981,124848.5,2102.089,2111.4000000003725,2118.765,124850.77,{},
Change Background,canvas.Screen,1,2022-07-04T16:57:00.654Z,,,,,3001.4159999999974,timeout,,,127837.40000000037,127835.514,124834.093,124850.70000000019,124850.77,127852.186,,
Fixation,canvas.Screen,2_0_0_0,2022-07-04T16:57:02.588Z,,,1,A,1935.4119999999966,timeout,,,129772.20000000019,129770.92,127835.514,127839,127852.186,129787.598,,black
Stimulus,canvas.Screen,2_0_0_1,2022-07-04T16:57:02.688Z,,,1,A,100.0060000000085,timeout,,,129872,129870.925,129770.92,129772.5,129787.598,129887.604,,black
Reaction,canvas.Screen,2_0_0_2,2022-07-04T16:57:03.057Z,,,1,A,351.2960000003659,response,stim_detected,mousedown,130241.20000000019,130238.90000000037,129870.925,129872.40000000037,129887.604,130254.448,,black
Trial,flow.Sequence,2_0_0,2022-07-04T16:57:03.058Z,,,1,A,2386.714000000371,completion,,,130241.90000000037,130238.90000000037,127835.514,127839,127852.186,130254.448,,black
Frame,canvas.Frame,2_0,2022-07-04T16:57:03.059Z,,,1,A,2390.113999999812,,,,130242.59999999963,130242.29999999981,127835.514,127837.79999999981,127852.186,130254.448,,black
Fixation,canvas.Screen,2_1_0_0,2022-07-04T16:57:05.057Z,,,1,A,2001.4049999999988,timeout,,,132240.2000000002,132239.175,130237.771,130243.79999999981,130254.448,132255.853,,black
Stimulus,canvas.Screen,2_1_0_1,2022-07-04T16:57:05.157Z,,,1,A,99.73399999999674,timeout,,,132340.5,132338.912,132239.175,132240.5,132255.853,132355.587,,black
Reaction,canvas.Screen,2_1_0_2,2022-07-04T16:57:05.359Z,,,1,A,185.01299999962794,response,stim_detected,mousedown,132542.2999999998,132540.59999999963,132338.912,132341,132355.587,132556.022,,black
Trial,flow.Sequence,2_1_0,2022-07-04T16:57:05.360Z,,,1,A,2286.1519999996235,completion,,,132543.2999999998,132540.59999999963,130237.771,130243.70000000019,130254.448,132556.022,,black
Frame,canvas.Frame,2_1,2022-07-04T16:57:05.360Z,,,1,A,2289.051999999996,,,,132543.90000000037,132543.5,130237.771,130242.90000000037,130254.448,132556.022,,black
Fixation,canvas.Screen,2_2_0_0,2022-07-04T16:57:07.626Z,,,1,AV,2268.228000000003,timeout,,,134809.40000000037,134807.572,132539.345,132545.2999999998,132556.022,134824.25,,grey
Stimulus,canvas.Screen,2_2_0_1,2022-07-04T16:57:07.726Z,,,1,AV,99.7960000000021,timeout,,,134909.40000000037,134907.37,134807.572,134809.7000000002,134824.25,134924.046,,grey
Reaction,canvas.Screen,2_2_0_2,2022-07-04T16:57:07.856Z,,,1,AV,113.55399999962538,response,stim_detected,mousedown,135039.2000000002,135037.59999999963,134907.37,134909.7000000002,134924.046,135041.02,,grey
Trial,flow.Sequence,2_2_0,2022-07-04T16:57:07.856Z,,,1,AV,2481.5779999996303,completion,,,135039.7999999998,135037.59999999963,132539.345,132545.09999999963,132556.022,135041.02,,grey
Frame,canvas.Frame,2_2,2022-07-04T16:57:07.857Z,,,1,AV,2483.978000000003,,,,135040.2999999998,135040,132539.345,132544.2999999998,132556.022,135041.02,,grey
Fixation,canvas.Screen,2_3_0_0,2022-07-04T16:57:09.444Z,,,1,AV,1601.3160000000207,timeout,,,136627.40000000037,136625.656,135024.343,135041.59999999963,135041.02,136642.336,,grey
Stimulus,canvas.Screen,2_3_0_1,2022-07-04T16:57:09.543Z,,,1,AV,99.8179999999993,timeout,,,136726.40000000037,136725.192,136625.656,136627.7000000002,136642.336,136742.154,,grey
Reaction,canvas.Screen,2_3_0_2,2022-07-04T16:57:09.695Z,,,1,AV,134.34599999999045,response,stim_detected,mousedown,136878.40000000037,136876.5,136725.192,136726.7000000002,136742.154,136892.247,,grey
Trial,flow.Sequence,2_3_0,2022-07-04T16:57:09.695Z,,,1,AV,1835.4800000000105,completion,,,136879.09999999963,136876.5,135024.343,135041.59999999963,135041.02,136892.247,,grey
Frame,canvas.Frame,2_3,2022-07-04T16:57:09.696Z,,,1,AV,1838.1800000001967,,,,136879.5,136879.2000000002,135024.343,135040.59999999963,135041.02,136892.247,,grey
Fixation,canvas.Screen,2_4_0_0,2022-07-04T16:57:11.243Z,,,1,A,1549.9189999999944,timeout,,,138426.5,138425.499,136875.57,136880.7000000002,136892.247,138442.166,,black
Stimulus,canvas.Screen,2_4_0_1,2022-07-04T16:57:11.345Z,,,1,A,101.26300000000629,timeout,,,138528.40000000037,138526.75,138425.499,138426.7999999998,138442.166,138543.429,,black
Reaction,canvas.Screen,2_4_0_2,2022-07-04T16:57:11.658Z,,,1,A,296.0709999999963,response,stim_detected,mousedown,138841.40000000037,138839.5,138526.75,138528.90000000037,138543.429,138843.525,,black
Trial,flow.Sequence,2_4_0,2022-07-04T16:57:11.658Z,,,1,A,1947.252999999997,completion,,,138841.90000000037,138839.5,136875.57,136880.59999999963,136892.247,138843.525,,black
Frame,canvas.Frame,2_4,2022-07-04T16:57:11.659Z,,,1,A,1949.752999999997,,,,138842.2000000002,138842,136875.57,136879.7000000002,136892.247,138843.525,,black
Fixation,canvas.Screen,2_5_0_0,2022-07-04T16:57:14.063Z,,,0,V,2418.342000000004,timeout,,,141246.5,141245.014,138826.848,138843.2999999998,138843.525,141261.867,,grey
Stimulus,canvas.Screen,2_5_0_1,2022-07-04T16:57:14.163Z,,,0,V,100.0679999999993,timeout,,,141346.59999999963,141345.257,141245.014,141246.90000000037,141261.867,141361.935,,grey
Reaction,canvas.Screen,2_5_0_2,2022-07-04T16:57:14.301Z,,,0,V,121.46500000037486,response,stim_detected,mousedown,141485.2000000002,141483.40000000037,141345.257,141346.90000000037,141361.935,141495.332,,grey
Trial,flow.Sequence,2_5_0,2022-07-04T16:57:14.302Z,,,0,V,2639.8750000003783,completion,,,141485.7000000002,141483.40000000037,138826.848,138843.2000000002,138843.525,141495.332,,grey
Frame,canvas.Frame,2_5,2022-07-04T16:57:14.302Z,,,0,V,2642.3750000003783,,,,141486.09999999963,141485.90000000037,138826.848,138842.40000000037,138843.525,141495.332,,grey
Fixation,canvas.Screen,2_6_0_0,2022-07-04T16:57:16.465Z,,,1,A,2168.3040000000037,timeout,,,143648.7000000002,143646.957,141478.655,141488,141495.332,143663.636,,black
Stimulus,canvas.Screen,2_6_0_1,2022-07-04T16:57:16.564Z,,,1,A,99.87400000001071,timeout,,,143747.7999999998,143746.144,143646.957,143649.2000000002,143663.636,143763.51,,black
Reaction,canvas.Screen,2_6_0_2,2022-07-04T16:57:16.708Z,,,1,A,126.98999999999069,response,stim_detected,mousedown,143892.09999999963,143890.5,143746.144,143748.09999999963,143763.51,143896.926,,black
Trial,flow.Sequence,2_6_0,2022-07-04T16:57:16.709Z,,,1,A,2395.168000000005,completion,,,143892.59999999963,143890.5,141478.655,141487.7999999998,141495.332,143896.926,,black
Frame,canvas.Frame,2_6,2022-07-04T16:57:16.709Z,,,1,A,2397.3680000001914,,,,143893,143892.7000000002,141478.655,141486.2999999998,141495.332,143896.926,,black
Fixation,canvas.Screen,2_7_0_0,2022-07-04T16:57:18.332Z,,,0,V,1634.4659999999858,timeout,,,145515.59999999963,145514.714,143880.249,143894.2000000002,143896.926,145531.392,,grey
Stimulus,canvas.Screen,2_7_0_1,2022-07-04T16:57:18.433Z,,,0,V,100.13800000000629,timeout,,,145616.7000000002,145614.852,145514.714,145515.90000000037,145531.392,145631.53,,grey
Reaction,canvas.Screen,2_7_0_2,2022-07-04T16:57:18.591Z,,,0,V,141.97000000000116,response,stim_detected,mousedown,145775.09999999963,145773.5,145614.852,145617,145631.53,145781.501,,grey
Trial,flow.Sequence,2_7_0,2022-07-04T16:57:18.592Z,,,0,V,1876.5739999999932,completion,,,145775.40000000037,145773.5,143880.249,143894.09999999963,143896.926,145781.501,,grey
Frame,canvas.Frame,2_7,2022-07-04T16:57:18.592Z,,,0,V,1878.5739999999932,,,,145775.7000000002,145775.5,143880.249,143893.2000000002,143896.926,145781.501,,grey
Fixation,canvas.Screen,2_8_0_0,2022-07-04T16:57:20.184Z,,,1,AV,1601.2149999999965,timeout,,,147367.7999999998,147366.037,145764.824,145776.90000000037,145781.501,147382.716,,grey
Stimulus,canvas.Screen,2_8_0_1,2022-07-04T16:57:20.284Z,,,1,AV,99.95400000002701,timeout,,,147468.09999999963,147465.993,147366.037,147368.09999999963,147382.716,147482.67,,grey
Reaction,canvas.Screen,2_8_0_2,2022-07-04T16:57:20.415Z,,,1,AV,113.73000000035972,response,stim_detected,mousedown,147598.2000000002,147596.40000000037,147465.993,147468.2999999998,147482.67,147616.1,,grey
Trial,flow.Sequence,2_8_0,2022-07-04T16:57:20.415Z,,,1,AV,1814.8990000003832,completion,,,147598.7000000002,147596.40000000037,145764.824,145776.7999999998,145781.501,147616.1,,grey
Frame,canvas.Frame,2_8,2022-07-04T16:57:20.416Z,,,1,AV,1817.2989999998244,,,,147599.2999999998,147598.7999999998,145764.824,145776,145781.501,147616.1,,grey
Fixation,canvas.Screen,2_9_0_0,2022-07-04T16:57:22.451Z,,,0,V,2034.5979999999981,timeout,,,149635.09999999963,149634.021,147599.423,147600.5,147616.1,149650.698,,grey
Stimulus,canvas.Screen,2_9_0_1,2022-07-04T16:57:22.551Z,,,0,V,99.89100000000326,timeout,,,149734.90000000037,149733.914,149634.021,149635.5,149650.698,149750.589,,grey
Reaction,canvas.Screen,2_9_0_2,2022-07-04T16:57:22.706Z,,,0,V,137.8110000003653,response,stim_detected,mousedown,149889.90000000037,149888.40000000037,149733.914,149735.2000000002,149750.589,149900.915,,grey
Trial,flow.Sequence,2_9_0,2022-07-04T16:57:22.707Z,,,0,V,2272.3000000003667,completion,,,149890.40000000037,149888.40000000037,147599.423,147600.40000000037,147616.1,149900.915,,grey
Frame,canvas.Frame,2_9,2022-07-04T16:57:22.707Z,,,0,V,2274.399999999994,,,,149890.59999999963,149890.5,147599.423,147599.59999999963,147616.1,149900.915,,grey
Fixation,canvas.Screen,2_10_0_0,2022-07-04T16:57:24.586Z,,,1,A,1884.8910000000033,timeout,,,151770,151769.126,149884.238,149891.7999999998,149900.915,151785.806,,black
Stimulus,canvas.Screen,2_10_0_1,2022-07-04T16:57:24.686Z,,,1,A,99.87799999999697,timeout,,,151870,151869.006,151769.126,151770.40000000037,151785.806,151885.684,,black
Reaction,canvas.Screen,2_10_0_2,2022-07-04T16:57:24.833Z,,,1,A,128.71600000036415,response,stim_detected,mousedown,152016.2999999998,152014.40000000037,151869.006,151870.2999999998,151885.684,152019.007,,black
Trial,flow.Sequence,2_10_0,2022-07-04T16:57:24.833Z,,,1,A,2113.4850000003644,completion,,,152016.7000000002,152014.40000000037,149884.238,149891.7000000002,149900.915,152019.007,,black
Frame,canvas.Frame,2_10,2022-07-04T16:57:24.834Z,,,1,A,2115.9850000003644,,,,152017.2000000002,152016.90000000037,149884.238,149890.7999999998,149900.915,152019.007,,black
Fixation,canvas.Screen,2_11_0_0,2022-07-04T16:57:26.905Z,,,1,AV,2084.907999999996,timeout,,,154088.2000000002,154087.236,152002.33,152018.5,152019.007,154103.915,,grey
Stimulus,canvas.Screen,2_11_0_1,2022-07-04T16:57:27.005Z,,,1,AV,99.94399999998859,timeout,,,154188.2999999998,154187.181,154087.236,154088.5,154103.915,154203.859,,grey
Reaction,canvas.Screen,2_11_0_2,2022-07-04T16:57:27.132Z,,,1,AV,110.440999999817,response,stim_detected,mousedown,154315.90000000037,154314.2999999998,154187.181,154188.59999999963,154203.859,154320.519,,grey
Trial,flow.Sequence,2_11_0,2022-07-04T16:57:27.133Z,,,1,AV,2295.2929999998014,completion,,,154316.2999999998,154314.2999999998,152002.33,152018.2999999998,152019.007,154320.519,,grey
Frame,canvas.Frame,2_11,2022-07-04T16:57:27.133Z,,,1,AV,2297.592999999615,,,,154316.90000000037,154316.59999999963,152002.33,152017.40000000037,152019.007,154320.519,,grey
Fixation,canvas.Screen,2_12_0_0,2022-07-04T16:57:29.224Z,,,0,V,2102.407999999996,timeout,,,156407.2999999998,156406.242,154303.842,154318.5,154320.519,156422.927,,grey
Stimulus,canvas.Screen,2_12_0_1,2022-07-04T16:57:29.324Z,,,0,V,99.18799999999464,timeout,,,156507.2000000002,156505.436,156406.242,156407.59999999963,156422.927,156522.115,,grey
Reaction,canvas.Screen,2_12_0_2,2022-07-04T16:57:29.452Z,,,0,V,112.28500000038184,response,stim_detected,mousedown,156635.7999999998,156634.40000000037,156505.436,156507.59999999963,156522.115,156638.788,,grey
Trial,flow.Sequence,2_12_0,2022-07-04T16:57:29.453Z,,,0,V,2313.8810000003723,completion,,,156636.2999999998,156634.40000000037,154303.842,154318.2999999998,154320.519,156638.788,,grey
Frame,canvas.Frame,2_12,2022-07-04T16:57:29.453Z,,,0,V,2316.0809999996272,,,,156636.7999999998,156636.59999999963,154303.842,154317.09999999963,154320.519,156638.788,,grey
Fixation,canvas.Screen,2_13_0_0,2022-07-04T16:57:31.775Z,,,0,V,2334.7790000000095,timeout,,,158958.40000000037,158956.89,156622.111,156638.2999999998,156638.788,158973.567,,grey
Stimulus,canvas.Screen,2_13_0_1,2022-07-04T16:57:31.875Z,,,0,V,100.27499999999418,timeout,,,159058.2999999998,159057.164,158956.89,158958.7000000002,158973.567,159073.842,,grey
Reaction,canvas.Screen,2_13_0_2,2022-07-04T16:57:32.037Z,,,0,V,145.55800000036834,response,stim_detected,mousedown,159220.90000000037,159219.40000000037,159057.164,159058.7000000002,159073.842,159223.859,,grey
Trial,flow.Sequence,2_13_0,2022-07-04T16:57:32.038Z,,,0,V,2580.612000000372,completion,,,159221.40000000037,159219.40000000037,156622.111,156638.2000000002,156638.788,159223.859,,grey
Frame,canvas.Frame,2_13,2022-07-04T16:57:32.038Z,,,0,V,2582.811999999627,,,,159221.7000000002,159221.59999999963,156622.111,156637,156638.788,159223.859,,grey
Fixation,canvas.Screen,2_14_0_0,2022-07-04T16:57:33.976Z,,,0,V,1951.216000000015,timeout,,,161159.40000000037,161158.398,159207.182,159222.7999999998,159223.859,161175.075,,grey
Stimulus,canvas.Screen,2_14_0_1,2022-07-04T16:57:34.076Z,,,0,V,100.00899999999092,timeout,,,161259.5,161258.408,161158.398,161159.7000000002,161175.075,161275.084,,grey
Reaction,canvas.Screen,2_14_0_2,2022-07-04T16:57:34.232Z,,,0,V,139.21599999981117,response,stim_detected,mousedown,161415.90000000037,161414.2999999998,161258.408,161259.7999999998,161275.084,161441.999,,grey
Trial,flow.Sequence,2_14_0,2022-07-04T16:57:34.233Z,,,0,V,2190.440999999817,completion,,,161416.2999999998,161414.2999999998,159207.182,159222.7000000002,159223.859,161441.999,,grey
Frame,canvas.Frame,2_14,2022-07-04T16:57:34.233Z,,,0,V,2192.6410000000033,,,,161416.7000000002,161416.5,159207.182,159222,159223.859,161441.999,,grey
Fixation,canvas.Screen,2_15_0_0,2022-07-04T16:57:36.161Z,,,1,A,1917.8469999999797,timeout,,,163344.59999999963,163343.169,161408.645,161417.90000000037,161441.999,163359.846,,black
Stimulus,canvas.Screen,2_15_0_1,2022-07-04T16:57:36.261Z,,,1,A,100.0789999999979,timeout,,,163444.5,163443.248,163343.169,163344.90000000037,163359.846,163459.925,,black
Reaction,canvas.Screen,2_15_0_2,2022-07-04T16:57:36.388Z,,,1,A,110.37499999982538,response,stim_detected,mousedown,163571.7999999998,163570.2999999998,163443.248,163444.7999999998,163459.925,163576.781,,black
Trial,flow.Sequence,2_15_0,2022-07-04T16:57:36.389Z,,,1,A,2128.300999999803,completion,,,163572.40000000037,163570.2999999998,161408.645,161417.7999999998,161441.999,163576.781,,black
Frame,canvas.Frame,2_15,2022-07-04T16:57:36.389Z,,,1,A,2130.6009999996168,,,,163572.7999999998,163572.59999999963,161408.645,161416.90000000037,161441.999,163576.781,,black
Fixation,canvas.Screen,2_16_0_0,2022-07-04T16:57:38.312Z,,,1,A,1934.2770000000019,timeout,,,165495.7000000002,165494.383,163560.104,163574,163576.781,165511.058,,black
Stimulus,canvas.Screen,2_16_0_1,2022-07-04T16:57:38.412Z,,,1,A,100.25600000002305,timeout,,,165595.7999999998,165594.638,165494.383,165496,165511.058,165611.314,,black
Reaction,canvas.Screen,2_16_0_2,2022-07-04T16:57:38.582Z,,,1,A,152.88600000017323,response,stim_detected,mousedown,165765.59999999963,165764.2000000002,165594.638,165596.09999999963,165611.314,165778.204,,black
Trial,flow.Sequence,2_16_0,2022-07-04T16:57:38.582Z,,,1,A,2187.419000000198,completion,,,165766.09999999963,165764.2000000002,163560.104,163573.7999999998,163576.781,165778.204,,black
Frame,canvas.Frame,2_16,2022-07-04T16:57:38.583Z,,,1,A,2189.5189999998256,,,,165766.5,165766.2999999998,163560.104,163573.09999999963,163576.781,165778.204,,black
Fixation,canvas.Screen,2_17_0_0,2022-07-04T16:57:40.331Z,,,1,A,1751.5709999999963,timeout,,,167514.90000000037,167513.094,165761.527,165767.7999999998,165778.204,167529.775,,black
Stimulus,canvas.Screen,2_17_0_1,2022-07-04T16:57:40.430Z,,,1,A,99.74600000001374,timeout,,,167613.7999999998,167612.843,167513.094,167515.09999999963,167529.775,167629.521,,black
Reaction,canvas.Screen,2_17_0_2,2022-07-04T16:57:40.583Z,,,1,A,135.67900000017835,response,stim_detected,mousedown,167766.7000000002,167765.2000000002,167612.843,167614,167629.521,167779.572,,black
Trial,flow.Sequence,2_17_0,2022-07-04T16:57:40.583Z,,,1,A,1986.9960000001884,completion,,,167767.2000000002,167765.2000000002,165761.527,165767.59999999963,165778.204,167779.572,,black
Frame,canvas.Frame,2_17,2022-07-04T16:57:40.584Z,,,1,A,1989.0959999998158,,,,167767.5,167767.2999999998,165761.527,165766.7999999998,165778.204,167779.572,,black
Fixation,canvas.Screen,2_18_0_0,2022-07-04T16:57:42.115Z,,,1,AV,1534.283000000025,timeout,,,169298.7999999998,169297.178,167762.895,167768.7000000002,167779.572,169313.855,,grey
Stimulus,canvas.Screen,2_18_0_1,2022-07-04T16:57:42.215Z,,,1,AV,99.9320000000007,timeout,,,169398.7999999998,169397.112,169297.178,169299.09999999963,169313.855,169413.787,,grey
Reaction,canvas.Screen,2_18_0_2,2022-07-04T16:57:42.333Z,,,1,AV,101.41300000017509,response,stim_detected,mousedown,169516.7000000002,169515.2000000002,169397.112,169399.09999999963,169413.787,169530.74,,grey
Trial,flow.Sequence,2_18_0,2022-07-04T16:57:42.334Z,,,1,AV,1735.6280000002007,completion,,,169517.2000000002,169515.2000000002,167762.895,167768.59999999963,167779.572,169530.74,,grey
Frame,canvas.Frame,2_18,2022-07-04T16:57:42.334Z,,,1,AV,1737.7279999998282,,,,169517.59999999963,169517.2999999998,167762.895,167767.7000000002,167779.572,169530.74,,grey
Fixation,canvas.Screen,2_19_0_0,2022-07-04T16:57:44.066Z,,,0,V,1734.6380000000063,timeout,,,171249.90000000037,171248.699,169514.063,169518.7000000002,169530.74,171265.378,,grey
Stimulus,canvas.Screen,2_19_0_1,2022-07-04T16:57:44.166Z,,,0,V,99.69700000001467,timeout,,,171349.90000000037,171348.4,171248.699,171250.09999999963,171265.378,171365.075,,grey
Reaction,canvas.Screen,2_19_0_2,2022-07-04T16:57:44.316Z,,,0,V,133.02499999961583,response,stim_detected,mousedown,171499.59999999963,171498.09999999963,171348.4,171350.2999999998,171365.075,171515.406,,grey
Trial,flow.Sequence,2_19_0,2022-07-04T16:57:44.316Z,,,0,V,1967.3599999996368,completion,,,171500,171498.09999999963,169514.063,169518.59999999963,169530.74,171515.406,,grey
Frame,canvas.Frame,2_19,2022-07-04T16:57:44.317Z,,,0,V,1969.4600000001956,,,,171500.40000000037,171500.2000000002,169514.063,169517.7999999998,169530.74,171515.406,,grey
Fixation,canvas.Screen,2_20_0_0,2022-07-04T16:57:46.501Z,,,1,AV,2184.6960000000254,timeout,,,173685.09999999963,173683.425,171498.729,171501.5,171515.406,173700.102,,grey
Stimulus,canvas.Screen,2_20_0_1,2022-07-04T16:57:46.601Z,,,1,AV,100.00099999998929,timeout,,,173785.09999999963,173783.427,173683.425,173685.40000000037,173700.102,173800.103,,grey
Reaction,canvas.Screen,2_20_0_2,2022-07-04T16:57:46.719Z,,,1,AV,101.09700000018347,response,stim_detected,mousedown,173902.59999999963,173901.2000000002,173783.427,173785.2999999998,173800.103,173917.006,,grey
Trial,flow.Sequence,2_20_0,2022-07-04T16:57:46.719Z,,,1,AV,2385.794000000198,completion,,,173903.2000000002,173901.2000000002,171498.729,171501.40000000037,171515.406,173917.006,,grey
Frame,canvas.Frame,2_20,2022-07-04T16:57:46.720Z,,,1,AV,2387.9940000003844,,,,173903.59999999963,173903.40000000037,171498.729,171500.59999999963,171515.406,173917.006,,grey
Fixation,canvas.Screen,2_21_0_0,2022-07-04T16:57:48.686Z,,,0,V,1967.244000000006,timeout,,,175869.2000000002,175867.578,173900.329,173904.7000000002,173917.006,175884.25,,grey
Stimulus,canvas.Screen,2_21_0_1,2022-07-04T16:57:48.786Z,,,0,V,100.7390000000014,timeout,,,175970.09999999963,175968.312,175867.578,175869.5,175884.25,175984.989,,grey
Reaction,canvas.Screen,2_21_0_2,2022-07-04T16:57:48.953Z,,,0,V,150.11099999962607,response,stim_detected,mousedown,176136.7000000002,176135.09999999963,175968.312,175970.5,175984.989,176151.794,,grey
Trial,flow.Sequence,2_21_0,2022-07-04T16:57:48.954Z,,,0,V,2218.0939999996335,completion,,,176137.2000000002,176135.09999999963,173900.329,173904.59999999963,173917.006,176151.794,,grey
Frame,canvas.Frame,2_21,2022-07-04T16:57:48.954Z,,,0,V,2220.3940000003786,,,,176137.59999999963,176137.40000000037,173900.329,173903.90000000037,173917.006,176151.794,,grey
Fixation,canvas.Screen,2_22_0_0,2022-07-04T16:57:51.004Z,,,0,V,2052.235000000015,timeout,,,178188.2000000002,178187.345,176135.117,176138.7000000002,176151.794,178204.029,,grey
Stimulus,canvas.Screen,2_22_0_1,2022-07-04T16:57:51.104Z,,,0,V,99.03199999997742,timeout,,,178287.5,178286.385,178187.345,178188.59999999963,178204.029,178303.061,,grey
Reaction,canvas.Screen,2_22_0_2,2022-07-04T16:57:51.268Z,,,0,V,147.0389999996405,response,stim_detected,mousedown,178451.59999999963,178450.09999999963,178286.385,178287.90000000037,178303.061,178453.366,,grey
Trial,flow.Sequence,2_22_0,2022-07-04T16:57:51.268Z,,,0,V,2298.305999999633,completion,,,178452.09999999963,178450.09999999963,176135.117,176138.59999999963,176151.794,178453.366,,grey
Frame,canvas.Frame,2_22,2022-07-04T16:57:51.269Z,,,0,V,2300.5059999998193,,,,178452.5,178452.2999999998,176135.117,176137.7999999998,176151.794,178453.366,,grey
Fixation,canvas.Screen,2_23_0_0,2022-07-04T16:57:53.423Z,,,1,AV,2168.021999999997,timeout,,,180606.40000000037,180604.711,178436.689,178453.7999999998,178453.366,180621.388,,grey
Stimulus,canvas.Screen,2_23_0_1,2022-07-04T16:57:53.523Z,,,1,AV,99.82000000000698,timeout,,,180706.40000000037,180704.533,180604.711,180606.7000000002,180621.388,180721.208,,grey
Reaction,canvas.Screen,2_23_0_2,2022-07-04T16:57:53.635Z,,,1,AV,95.992000000173,response,stim_detected,mousedown,180818.7000000002,180817.2000000002,180704.533,180706.7999999998,180721.208,180821.628,,grey
Trial,flow.Sequence,2_23_0,2022-07-04T16:57:53.636Z,,,1,AV,2363.834000000177,completion,,,180819.2999999998,180817.2000000002,178436.689,178453.7999999998,178453.366,180821.628,,grey
Frame,canvas.Frame,2_23,2022-07-04T16:57:53.636Z,,,1,AV,2366.0340000003634,,,,180819.7000000002,180819.40000000037,178436.689,178452.7999999998,178453.366,180821.628,,grey
Fixation,canvas.Screen,2_24_0_0,2022-07-04T16:57:55.575Z,,,1,A,1951.2170000000042,timeout,,,182757.5,182756.168,180804.951,180820.90000000037,180821.628,182772.845,,black
Stimulus,canvas.Screen,2_24_0_1,2022-07-04T16:57:55.675Z,,,1,A,99.89999999999418,timeout,,,182858,182856.07,182756.168,182757.7999999998,182772.845,182872.745,,black
Reaction,canvas.Screen,2_24_0_2,2022-07-04T16:57:55.861Z,,,1,A,169.25500000000466,response,stim_detected,mousedown,183043.5,183042,182856.07,182858.40000000037,182872.745,183056.442,,black
Trial,flow.Sequence,2_24_0,2022-07-04T16:57:55.861Z,,,1,A,2220.372000000003,completion,,,183043.90000000037,183042,180804.951,180820.7999999998,180821.628,183056.442,,black
Frame,canvas.Frame,2_24,2022-07-04T16:57:55.862Z,,,1,A,2222.5720000001893,,,,183044.40000000037,183044.2000000002,180804.951,180820,180821.628,183056.442,,black
Fixation,canvas.Screen,2_25_0_0,2022-07-04T16:57:58.109Z,,,1,AV,2250.4890000000014,timeout,,,185291.59999999963,185290.26,183039.765,183045.5,183056.442,185306.931,,grey
Stimulus,canvas.Screen,2_25_0_1,2022-07-04T16:57:58.210Z,,,1,AV,101.17599999997765,timeout,,,185392.7000000002,185391.427,185290.26,185291.90000000037,185306.931,185408.107,,grey
Reaction,canvas.Screen,2_25_0_2,2022-07-04T16:57:58.326Z,,,1,AV,98.99299999963841,response,stim_detected,mousedown,185508.7999999998,185507.09999999963,185391.427,185393,185408.107,185524.741,,grey
Trial,flow.Sequence,2_25_0,2022-07-04T16:57:58.326Z,,,1,AV,2450.6579999996175,completion,,,185509.2000000002,185507.09999999963,183039.765,183045.40000000037,183056.442,185524.741,,grey
Frame,canvas.Frame,2_25,2022-07-04T16:57:58.327Z,,,1,AV,2452.9580000003625,,,,185509.59999999963,185509.40000000037,183039.765,183044.59999999963,183056.442,185524.741,,grey
Fixation,canvas.Screen,2_26_0_0,2022-07-04T16:58:00.028Z,,,1,AV,1701.6900000000023,timeout,,,187210.7000000002,187209.748,185508.064,185510.7000000002,185524.741,187226.431,,grey
Stimulus,canvas.Screen,2_26_0_1,2022-07-04T16:58:00.127Z,,,1,AV,98.69399999998859,timeout,,,187309.7000000002,187308.455,187209.748,187211,187226.431,187325.125,,grey
Reaction,canvas.Screen,2_26_0_2,2022-07-04T16:58:00.288Z,,,1,AV,143.875,response,stim_detected,mousedown,187470.5,187469,187308.455,187310,187325.125,187476.066,,grey
Trial,flow.Sequence,2_26_0,2022-07-04T16:58:00.288Z,,,1,AV,1944.258999999991,completion,,,187471,187469,185508.064,185510.59999999963,185524.741,187476.066,,grey
Frame,canvas.Frame,2_26,2022-07-04T16:58:00.289Z,,,1,AV,1946.4590000001772,,,,187471.5,187471.2000000002,185508.064,185509.7999999998,185524.741,187476.066,,grey
Fixation,canvas.Screen,2_27_0_0,2022-07-04T16:58:02.530Z,,,0,V,2251.838000000018,timeout,,,189712.7999999998,189711.224,187459.389,187472.7000000002,187476.066,189727.904,,grey
Stimulus,canvas.Screen,2_27_0_1,2022-07-04T16:58:02.629Z,,,0,V,99.74799999999232,timeout,,,189811.90000000037,189810.829,189711.224,189713.2000000002,189727.904,189827.652,,grey
Reaction,canvas.Screen,2_27_0_2,2022-07-04T16:58:02.765Z,,,0,V,118.34799999999814,response,stim_detected,mousedown,189947.90000000037,189946,189810.829,189812.2000000002,189827.652,189961.068,,grey
Trial,flow.Sequence,2_27_0,2022-07-04T16:58:02.766Z,,,0,V,2469.9340000000084,completion,,,189948.5,189946,187459.389,187472.5,187476.066,189961.068,,grey
Frame,canvas.Frame,2_27,2022-07-04T16:58:02.766Z,,,0,V,2472.6340000001946,,,,189949,189948.7000000002,187459.389,187471.59999999963,187476.066,189961.068,,grey
Fixation,canvas.Screen,2_28_0_0,2022-07-04T16:58:04.747Z,,,1,AV,1984.573000000004,timeout,,,191930,191928.964,189944.391,189950.09999999963,189961.068,191945.641,,grey
Stimulus,canvas.Screen,2_28_0_1,2022-07-04T16:58:04.847Z,,,1,AV,100.00599999999395,timeout,,,192029.90000000037,192028.971,191928.964,191930.2999999998,191945.641,192045.647,,grey
Reaction,canvas.Screen,2_28_0_2,2022-07-04T16:58:04.968Z,,,1,AV,103.45299999963026,response,stim_detected,mousedown,192151.2000000002,192149.09999999963,192028.971,192030.2000000002,192045.647,192162.519,,grey
Trial,flow.Sequence,2_28_0,2022-07-04T16:58:04.969Z,,,1,AV,2188.031999999628,completion,,,192151.7999999998,192149.09999999963,189944.391,189950,189961.068,192162.519,,grey
Frame,canvas.Frame,2_28,2022-07-04T16:58:04.969Z,,,1,AV,2190.9320000000007,,,,192152.2000000002,192152,189944.391,189949.2999999998,189961.068,192162.519,,grey
Fixation,canvas.Screen,2_29_0_0,2022-07-04T16:58:06.532Z,,,1,A,1568.070000000007,timeout,,,193715.09999999963,193713.908,192145.842,192153.2999999998,192162.519,193730.589,,black
Stimulus,canvas.Screen,2_29_0_1,2022-07-04T16:58:06.632Z,,,1,A,99.61799999998766,timeout,,,193815,193813.531,193713.908,193715.5,193730.589,193830.207,,black
Reaction,canvas.Screen,2_29_0_2,2022-07-04T16:58:06.787Z,,,1,A,137.79300000000512,response,stim_detected,mousedown,193969.5,193968,193813.531,193815.2000000002,193830.207,193980.434,,black
Trial,flow.Sequence,2_29_0,2022-07-04T16:58:06.787Z,,,1,A,1805.4809999999998,completion,,,193970,193968,192145.842,192153.2000000002,192162.519,193980.434,,black
Frame,canvas.Frame,2_29,2022-07-04T16:58:06.788Z,,,1,A,1807.681000000186,,,,193970.2999999998,193970.2000000002,192145.842,192152.40000000037,192162.519,193980.434,,black
Fixation,canvas.Screen,2_30_0_0,2022-07-04T16:58:08.949Z,,,1,AV,2167.149000000005,timeout,,,196132.09999999963,196130.912,193963.757,193971.5,193980.434,196147.583,,grey
Stimulus,canvas.Screen,2_30_0_1,2022-07-04T16:58:09.050Z,,,1,AV,101.07399999999325,timeout,,,196233.2000000002,196231.978,196130.912,196132.2999999998,196147.583,196248.657,,grey
Reaction,canvas.Screen,2_30_0_2,2022-07-04T16:58:09.171Z,,,1,AV,103.24300000036601,response,stim_detected,mousedown,196353.5,196351.90000000037,196231.978,196233.5,196248.657,196365.35,,grey
Trial,flow.Sequence,2_30_0,2022-07-04T16:58:09.171Z,,,1,AV,2371.466000000364,completion,,,196353.90000000037,196351.90000000037,193963.757,193971.40000000037,193980.434,196365.35,,grey
Frame,canvas.Frame,2_30,2022-07-04T16:58:09.172Z,,,1,AV,2373.665999999619,,,,196354.40000000037,196354.09999999963,193963.757,193970.59999999963,193980.434,196365.35,,grey
Fixation,canvas.Screen,2_31_0_0,2022-07-04T16:58:11.268Z,,,1,AV,2100.892999999982,timeout,,,198451.2000000002,198449.569,196348.673,196355.59999999963,196365.35,198466.243,,grey
Stimulus,canvas.Screen,2_31_0_1,2022-07-04T16:58:11.368Z,,,1,AV,100.64300000001094,timeout,,,198551.2000000002,198550.207,198449.569,198451.5,198466.243,198566.886,,grey
Reaction,canvas.Screen,2_31_0_2,2022-07-04T16:58:11.463Z,,,1,AV,77.01400000037393,response,stim_detected,mousedown,198645.40000000037,198643.90000000037,198550.207,198551.5,198566.886,198666.874,,grey
Trial,flow.Sequence,2_31_0,2022-07-04T16:58:11.463Z,,,1,AV,2278.5500000003667,completion,,,198645.90000000037,198643.90000000037,196348.673,196355.5,196365.35,198666.874,,grey
Frame,canvas.Frame,2_31,2022-07-04T16:58:11.464Z,,,1,AV,2280.7499999996217,,,,198646.40000000037,198646.09999999963,196348.673,196354.59999999963,196365.35,198666.874,,grey
Fixation,canvas.Screen,2_32_0_0,2022-07-04T16:58:13.320Z,,,1,AV,1851.1549999999988,timeout,,,200502.40000000037,200501.352,198633.52,198647.7000000002,198666.874,200518.029,,grey
Stimulus,canvas.Screen,2_32_0_1,2022-07-04T16:58:13.420Z,,,1,AV,99.54299999997602,timeout,,,200602.2999999998,200600.9,200501.352,200502.7999999998,200518.029,200617.572,,grey
Reaction,canvas.Screen,2_32_0_2,2022-07-04T16:58:13.541Z,,,1,AV,104.32800000038696,response,stim_detected,mousedown,200723.40000000037,200721.90000000037,200600.9,200602.7000000002,200617.572,200734.912,,grey
Trial,flow.Sequence,2_32_0,2022-07-04T16:58:13.541Z,,,1,AV,2055.026000000362,completion,,,200723.90000000037,200721.90000000037,198633.52,198647.59999999963,198666.874,200734.912,,grey
Frame,canvas.Frame,2_32,2022-07-04T16:58:13.542Z,,,1,AV,2057.2259999996168,,,,200724.2999999998,200724.09999999963,198633.52,198646.59999999963,198666.874,200734.912,,grey
Fixation,canvas.Screen,2_33_0_0,2022-07-04T16:58:15.839Z,,,0,V,2301.4289999999746,timeout,,,203021.5,203019.664,200718.235,200725.59999999963,200734.912,203036.341,,grey
Stimulus,canvas.Screen,2_33_0_1,2022-07-04T16:58:15.939Z,,,0,V,100.07100000002538,timeout,,,203121.7000000002,203119.735,203019.664,203021.7000000002,203036.341,203136.412,,grey
Reaction,canvas.Screen,2_33_0_2,2022-07-04T16:58:16.057Z,,,0,V,102.38799999980256,response,stim_detected,mousedown,203240.2000000002,203238.7999999998,203119.735,203122,203136.412,203253.289,,grey
Trial,flow.Sequence,2_33_0,2022-07-04T16:58:16.058Z,,,0,V,2503.8879999998026,completion,,,203240.7999999998,203238.7999999998,200718.235,200725.40000000037,200734.912,203253.289,,grey
Frame,canvas.Frame,2_33,2022-07-04T16:58:16.058Z,,,0,V,2506.087999999989,,,,203241.09999999963,203241,200718.235,200724.59999999963,200734.912,203253.289,,grey
Fixation,canvas.Screen,2_34_0_0,2022-07-04T16:58:17.723Z,,,1,AV,1667.8179999999993,timeout,,,204905.5,204904.429,203236.612,203242.2999999998,203253.289,204921.107,,grey
Stimulus,canvas.Screen,2_34_0_1,2022-07-04T16:58:17.823Z,,,1,AV,99.62700000000768,timeout,,,205005.5,205004.06,204904.429,204905.7999999998,204921.107,205020.734,,grey
Reaction,canvas.Screen,2_34_0_2,2022-07-04T16:58:17.940Z,,,1,AV,100.16600000037579,response,stim_detected,mousedown,205122.40000000037,205120.90000000037,205004.06,205005.7999999998,205020.734,205137.861,,grey
Trial,flow.Sequence,2_34_0,2022-07-04T16:58:17.940Z,,,1,AV,1867.6110000003828,completion,,,205122.90000000037,205120.90000000037,203236.612,203242.09999999963,203253.289,205137.861,,grey
Frame,canvas.Frame,2_34,2022-07-04T16:58:17.940Z,,,1,AV,1869.7110000000102,,,,205123.2999999998,205123,203236.612,203241.40000000037,203253.289,205137.861,,grey
Fixation,canvas.Screen,2_35_0_0,2022-07-04T16:58:19.874Z,,,0,V,1934.5309999999881,timeout,,,207056.7000000002,207055.715,205121.184,205124.40000000037,205137.861,207072.392,,grey
Stimulus,canvas.Screen,2_35_0_1,2022-07-04T16:58:19.974Z,,,0,V,100.18900000001304,timeout,,,207157.2000000002,207155.786,207055.715,207057.09999999963,207072.392,207172.581,,grey
Reaction,canvas.Screen,2_35_0_2,2022-07-04T16:58:20.119Z,,,0,V,129.01899999962188,response,stim_detected,mousedown,207302.2999999998,207301.59999999963,207155.786,207157.40000000037,207172.581,207305.997,,grey
Trial,flow.Sequence,2_35_0,2022-07-04T16:58:20.120Z,,,0,V,2163.738999999623,completion,,,207302.40000000037,207301.59999999963,205121.184,205124.40000000037,205137.861,207305.997,,grey
Frame,canvas.Frame,2_35,2022-07-04T16:58:20.120Z,,,0,V,2164.6389999999956,,,,207302.59999999963,207302.5,205121.184,205123.5,205137.861,207305.997,,grey
Fixation,canvas.Screen,2_36_0_0,2022-07-04T16:58:22.358Z,,,1,AV,2250.5169999999925,timeout,,,209540.7999999998,209539.843,207289.32,207303.09999999963,207305.997,209556.514,,grey
Stimulus,canvas.Screen,2_36_0_1,2022-07-04T16:58:22.459Z,,,1,AV,100.53500000000349,timeout,,,209641.7000000002,209640.375,209539.843,209541.09999999963,209556.514,209657.049,,grey
Reaction,canvas.Screen,2_36_0_2,2022-07-04T16:58:22.587Z,,,1,AV,111.75099999981467,response,stim_detected,mousedown,209770.2999999998,209768.7999999998,209640.375,209642.09999999963,209657.049,209774.289,,grey
Trial,flow.Sequence,2_36_0,2022-07-04T16:58:22.588Z,,,1,AV,2462.8029999998107,completion,,,209770.90000000037,209768.7999999998,207289.32,207303,207305.997,209774.289,,grey
Frame,canvas.Frame,2_36,2022-07-04T16:58:22.588Z,,,1,AV,2465.1029999996244,,,,209771.2999999998,209771.09999999963,207289.32,207302.7000000002,207305.997,209774.289,,grey
Fixation,canvas.Screen,2_37_0_0,2022-07-04T16:58:24.811Z,,,1,A,2234.5709999999963,timeout,,,211993.90000000037,211992.184,209757.612,209772.40000000037,209774.289,212008.86,,black
Stimulus,canvas.Screen,2_37_0_1,2022-07-04T16:58:24.911Z,,,1,A,100.43300000001909,timeout,,,212093.90000000037,212092.61,211992.184,211994.09999999963,212008.86,212109.293,,black
Reaction,canvas.Screen,2_37_0_2,2022-07-04T16:58:25.163Z,,,1,A,235.5069999998086,response,stim_detected,mousedown,212346.2999999998,212344.7999999998,212092.61,212094.2999999998,212109.293,212359.368,,black
Trial,flow.Sequence,2_37_0,2022-07-04T16:58:25.164Z,,,1,A,2570.510999999824,completion,,,212346.7999999998,212344.7999999998,209757.612,209772.2999999998,209774.289,212359.368,,black
Frame,canvas.Frame,2_37,2022-07-04T16:58:25.164Z,,,1,A,2572.611000000383,,,,212347.2000000002,212346.90000000037,209757.612,209771.5,209774.289,212359.368,,black
Fixation,canvas.Screen,2_38_0_0,2022-07-04T16:58:27.346Z,,,0,V,2184.845000000001,timeout,,,214529,214527.535,212342.691,212348.40000000037,212359.368,214544.213,,grey
Stimulus,canvas.Screen,2_38_0_1,2022-07-04T16:58:27.446Z,,,0,V,99.99100000000908,timeout,,,214629.09999999963,214627.527,214527.535,214529.2999999998,214544.213,214644.204,,grey
Reaction,canvas.Screen,2_38_0_2,2022-07-04T16:58:27.619Z,,,0,V,155.59599999981583,response,stim_detected,mousedown,214801.40000000037,214799.7999999998,214627.527,214629.40000000037,214644.204,214811.004,,grey
Trial,flow.Sequence,2_38_0,2022-07-04T16:58:27.619Z,,,0,V,2440.431999999826,completion,,,214801.7999999998,214799.7999999998,212342.691,212348.2999999998,212359.368,214811.004,,grey
Frame,canvas.Frame,2_38,2022-07-04T16:58:27.619Z,,,0,V,2442.532000000385,,,,214802.2000000002,214801.90000000037,212342.691,212347.40000000037,212359.368,214811.004,,grey
Fixation,canvas.Screen,2_39_0_0,2022-07-04T16:58:29.998Z,,,1,AV,2384.979000000021,timeout,,,217181.09999999963,217179.305,214794.327,214803.2999999998,214811.004,217195.983,,grey
Stimulus,canvas.Screen,2_39_0_1,2022-07-04T16:58:30.098Z,,,1,AV,99.97999999998137,timeout,,,217281.09999999963,217279.286,217179.305,217181.2999999998,217195.983,217295.963,,grey
Reaction,canvas.Screen,2_39_0_2,2022-07-04T16:58:30.213Z,,,1,AV,98.73700000019744,response,stim_detected,mousedown,217396.2000000002,217394.7000000002,217279.286,217281.40000000037,217295.963,217412.724,,grey
Trial,flow.Sequence,2_39_0,2022-07-04T16:58:30.214Z,,,1,AV,2583.6960000002,completion,,,217396.59999999963,217394.7000000002,214794.327,214803.2000000002,214811.004,217412.724,,grey
Frame,canvas.Frame,2_39,2022-07-04T16:58:30.214Z,,,1,AV,2585.7959999998275,,,,217397,217396.7999999998,214794.327,214802.40000000037,214811.004,217412.724,,grey
Fixation,canvas.Screen,2_40_0_0,2022-07-04T16:58:32.667Z,,,1,AV,2452.310000000027,timeout,,,219850.2999999998,219848.352,217396.047,217398.2999999998,217412.724,219865.034,,grey
Stimulus,canvas.Screen,2_40_0_1,2022-07-04T16:58:32.767Z,,,1,AV,99.47499999997672,timeout,,,219949.59999999963,219947.83,219848.352,219850.7000000002,219865.034,219964.509,,grey
Reaction,canvas.Screen,2_40_0_2,2022-07-04T16:58:32.919Z,,,1,AV,136.19100000019534,response,stim_detected,mousedown,220102.2999999998,220100.7000000002,219947.83,219949.7999999998,219964.509,220114.554,,grey
Trial,flow.Sequence,2_40_0,2022-07-04T16:58:32.920Z,,,1,AV,2687.976000000199,completion,,,220102.7000000002,220100.7000000002,217396.047,217398.2000000002,217412.724,220114.554,,grey
Frame,canvas.Frame,2_40,2022-07-04T16:58:32.920Z,,,1,AV,2690.0759999998263,,,,220103,220102.7999999998,217396.047,217397.2999999998,217412.724,220114.554,,grey
Fixation,canvas.Screen,2_41_0_0,2022-07-04T16:58:34.785Z,,,1,A,1868.0810000000056,timeout,,,221967.40000000037,221965.956,220097.877,220104.2999999998,220114.554,221982.635,,black
Stimulus,canvas.Screen,2_41_0_1,2022-07-04T16:58:34.884Z,,,1,A,99.66399999998976,timeout,,,222067.2999999998,222065.624,221965.956,221967.7999999998,221982.635,222082.299,,black
Reaction,canvas.Screen,2_41_0_2,2022-07-04T16:58:35.043Z,,,1,A,142.50099999981467,response,stim_detected,mousedown,222226.40000000037,222224.7999999998,222065.624,222067.7999999998,222082.299,222249.307,,black
Trial,flow.Sequence,2_41_0,2022-07-04T16:58:35.044Z,,,1,A,2110.24599999981,completion,,,222226.7000000002,222224.7999999998,220097.877,220104.2000000002,220114.554,222249.307,,black
Frame,canvas.Frame,2_41,2022-07-04T16:58:35.044Z,,,1,A,2112.346000000369,,,,222227.09999999963,222226.90000000037,220097.877,220103.2999999998,220114.554,222249.307,,black
Fixation,canvas.Screen,2_42_0_0,2022-07-04T16:58:36.786Z,,,1,AV,1734.7099999999919,timeout,,,223968.40000000037,223967.337,222215.953,222228.09999999963,222249.307,223984.017,,grey
Stimulus,canvas.Screen,2_42_0_1,2022-07-04T16:58:36.885Z,,,1,AV,99.27400000000489,timeout,,,224068.40000000037,224066.619,223967.337,223968.7000000002,223984.017,224083.291,,grey
Reaction,canvas.Screen,2_42_0_2,2022-07-04T16:58:37.033Z,,,1,AV,131.40900000018883,response,stim_detected,mousedown,224216.2000000002,224214.7000000002,224066.619,224068.59999999963,224083.291,224233.938,,grey
Trial,flow.Sequence,2_42_0,2022-07-04T16:58:37.034Z,,,1,AV,1965.3930000001856,completion,,,224216.59999999963,224214.7000000002,222215.953,222228,222249.307,224233.938,,grey
Frame,canvas.Frame,2_42,2022-07-04T16:58:37.034Z,,,1,AV,1967.3930000001856,,,,224216.90000000037,224216.7000000002,222215.953,222227.2999999998,222249.307,224233.938,,grey
Fixation,canvas.Screen,2_43_0_0,2022-07-04T16:58:39.188Z,,,1,A,2152.1600000000035,timeout,,,226370.5,226369.415,224217.261,224218.09999999963,224233.938,226386.098,,black
Stimulus,canvas.Screen,2_43_0_1,2022-07-04T16:58:39.288Z,,,1,A,99.44899999999325,timeout,,,226470.59999999963,226468.869,226369.415,226370.7000000002,226386.098,226485.547,,black
Reaction,canvas.Screen,2_43_0_2,2022-07-04T16:58:39.401Z,,,1,A,96.15300000019488,response,stim_detected,mousedown,226583.40000000037,226581.7000000002,226468.869,226470.7999999998,226485.547,226585.534,,black
Trial,flow.Sequence,2_43_0,2022-07-04T16:58:39.401Z,,,1,A,2347.7620000001916,completion,,,226583.90000000037,226581.7000000002,224217.261,224218,224233.938,226585.534,,black
Frame,canvas.Frame,2_43,2022-07-04T16:58:39.401Z,,,1,A,2350.0620000000054,,,,226584.2000000002,226584,224217.261,224217,224233.938,226585.534,,black
Fixation,canvas.Screen,2_44_0_0,2022-07-04T16:58:41.590Z,,,1,A,2201.939999999973,timeout,,,228772.59999999963,228770.793,226568.857,226585.09999999963,226585.534,228787.474,,black
Stimulus,canvas.Screen,2_44_0_1,2022-07-04T16:58:41.689Z,,,1,A,99.70300000000861,timeout,,,228871.5,228870.499,228770.793,228772.7999999998,228787.474,228887.177,,black
Reaction,canvas.Screen,2_44_0_2,2022-07-04T16:58:41.846Z,,,1,A,140.52300000019022,response,stim_detected,mousedown,229029.09999999963,229027.7000000002,228870.499,228871.7999999998,228887.177,229037.185,,black
Trial,flow.Sequence,2_44_0,2022-07-04T16:58:41.847Z,,,1,A,2442.166000000172,completion,,,229029.5,229027.7000000002,226568.857,226585.09999999963,226585.534,229037.185,,black
Frame,canvas.Frame,2_44,2022-07-04T16:58:41.847Z,,,1,A,2444.166000000172,,,,229029.90000000037,229029.7000000002,226568.857,226584.2999999998,226585.534,229037.185,,black
Fixation,canvas.Screen,2_45_0_0,2022-07-04T16:58:43.691Z,,,0,V,1851.3980000000156,timeout,,,230873.7000000002,230871.904,229020.508,229030.7999999998,229037.185,230888.583,,grey
Stimulus,canvas.Screen,2_45_0_1,2022-07-04T16:58:43.790Z,,,0,V,99.55999999999767,timeout,,,230972.7000000002,230971.469,230871.904,230874,230888.583,230988.143,,grey
Reaction,canvas.Screen,2_45_0_2,2022-07-04T16:58:44.101Z,,,0,V,294.4569999996165,response,stim_detected,mousedown,231284.2000000002,231282.59999999963,230971.469,230973,230988.143,231288.686,,grey
Trial,flow.Sequence,2_45_0,2022-07-04T16:58:44.102Z,,,0,V,2245.41499999963,completion,,,231284.5,231282.59999999963,229020.508,229030.7000000002,229037.185,231288.686,,grey
Frame,canvas.Frame,2_45,2022-07-04T16:58:44.102Z,,,0,V,2247.5150000001886,,,,231284.7999999998,231284.7000000002,229020.508,229030,229037.185,231288.686,,grey
Fixation,canvas.Screen,2_46_0_0,2022-07-04T16:58:46.075Z,,,1,AV,1984.0020000000077,timeout,,,233257.7999999998,233256.015,231272.009,231285.7999999998,231288.686,233272.688,,grey
Stimulus,canvas.Screen,2_46_0_1,2022-07-04T16:58:46.175Z,,,1,AV,100.76600000000326,timeout,,,233357.7000000002,233356.776,233256.015,233258,233272.688,233373.454,,grey
Reaction,canvas.Screen,2_46_0_2,2022-07-04T16:58:46.296Z,,,1,AV,104.14599999962957,response,stim_detected,mousedown,233479.09999999963,233477.59999999963,233356.776,233357.90000000037,233373.454,233490.149,,grey
Trial,flow.Sequence,2_46_0,2022-07-04T16:58:46.297Z,,,1,AV,2188.9139999996405,completion,,,233479.5,233477.59999999963,231272.009,231285.7000000002,231288.686,233490.149,,grey
Frame,canvas.Frame,2_46,2022-07-04T16:58:46.297Z,,,1,AV,2190.9139999996405,,,,233479.7999999998,233479.59999999963,231272.009,231285,231288.686,233490.149,,grey
Fixation,canvas.Screen,2_47_0_0,2022-07-04T16:58:48.710Z,,,1,A,2417.7030000000086,timeout,,,235893.09999999963,235891.178,233473.472,233480.7999999998,233490.149,235907.852,,black
Stimulus,canvas.Screen,2_47_0_1,2022-07-04T16:58:48.810Z,,,1,A,100.69599999999627,timeout,,,235992.90000000037,235991.868,235891.178,235893.40000000037,235907.852,236008.548,,black
Reaction,canvas.Screen,2_47_0_2,2022-07-04T16:58:48.988Z,,,1,A,160.95199999999022,response,stim_detected,mousedown,236171,236169.5,235991.868,235993.2000000002,236008.548,236175.283,,black
Trial,flow.Sequence,2_47_0,2022-07-04T16:58:48.989Z,,,1,A,2679.350999999995,completion,,,236171.40000000037,236169.5,233473.472,233480.7000000002,233490.149,236175.283,,black
Frame,canvas.Frame,2_47,2022-07-04T16:58:48.989Z,,,1,A,2681.4509999996226,,,,236171.7999999998,236171.59999999963,233473.472,233480,233490.149,236175.283,,black
Fixation,canvas.Screen,2_48_0_0,2022-07-04T16:58:51.362Z,,,1,AV,2384.353999999992,timeout,,,238544.40000000037,238542.963,236158.606,236172.7999999998,236175.283,238559.637,,grey
Stimulus,canvas.Screen,2_48_0_1,2022-07-04T16:58:51.461Z,,,1,AV,100.24900000001071,timeout,,,238644.2999999998,238643.211,238542.963,238544.59999999963,238559.637,238659.886,,grey
Reaction,canvas.Screen,2_48_0_2,2022-07-04T16:58:51.621Z,,,1,AV,142.51400000037393,response,stim_detected,mousedown,238804.09999999963,238802.40000000037,238643.211,238644.5,238659.886,238810.365,,grey
Trial,flow.Sequence,2_48_0,2022-07-04T16:58:51.622Z,,,1,AV,2627.1170000003767,completion,,,238804.40000000037,238802.40000000037,236158.606,236172.7000000002,236175.283,238810.365,,grey
Frame,canvas.Frame,2_48,2022-07-04T16:58:51.622Z,,,1,AV,2629.3169999996317,,,,238804.7999999998,238804.59999999963,236158.606,236172,236175.283,238810.365,,grey
Fixation,canvas.Screen,2_49_0_0,2022-07-04T16:58:53.430Z,,,0,V,1817.8040000000037,timeout,,,240613.09999999963,240611.492,238793.688,238805.90000000037,238810.365,240628.169,,grey
Stimulus,canvas.Screen,2_49_0_1,2022-07-04T16:58:53.530Z,,,0,V,100.16400000001886,timeout,,,240713.09999999963,240711.656,240611.492,240613.40000000037,240628.169,240728.333,,grey
Reaction,canvas.Screen,2_49_0_2,2022-07-04T16:58:53.729Z,,,0,V,182.2669999996142,response,stim_detected,mousedown,240912,240910.59999999963,240711.656,240713.40000000037,240728.333,240928.474,,grey
Trial,flow.Sequence,2_49_0,2022-07-04T16:58:53.729Z,,,0,V,2100.234999999637,completion,,,240912.2999999998,240910.59999999963,238793.688,238805.7999999998,238810.365,240928.474,,grey
Frame,canvas.Frame,2_49,2022-07-04T16:58:53.730Z,,,0,V,2102.035000000382,,,,240912.59999999963,240912.40000000037,238793.688,238805,238810.365,240928.474,,grey
Fixation,canvas.Screen,2_50_0_0,2022-07-04T16:58:55.281Z,,,0,V,1550.9740000000165,timeout,,,242464.2999999998,242462.771,240911.797,240913.59999999963,240928.474,242479.448,,grey
Stimulus,canvas.Screen,2_50_0_1,2022-07-04T16:58:55.381Z,,,0,V,99.9659999999858,timeout,,,242564.2000000002,242562.738,242462.771,242464.5,242479.448,242579.414,,grey
Reaction,canvas.Screen,2_50_0_2,2022-07-04T16:58:55.589Z,,,0,V,191.18599999963772,response,stim_detected,mousedown,242772,242770.59999999963,242562.738,242564.40000000037,242579.414,242779.691,,grey
Trial,flow.Sequence,2_50_0,2022-07-04T16:58:55.590Z,,,0,V,1842.12599999964,completion,,,242772.40000000037,242770.59999999963,240911.797,240913.5,240928.474,242779.691,,grey
Frame,canvas.Frame,2_50,2022-07-04T16:58:55.590Z,,,0,V,1844.0260000000126,,,,242772.59999999963,242772.5,240911.797,240912.7999999998,240928.474,242779.691,,grey
Fixation,canvas.Screen,2_51_0_0,2022-07-04T16:58:57.666Z,,,0,V,2084.357000000018,timeout,,,244848.2999999998,244847.373,242763.014,242773.7000000002,242779.691,244864.048,,grey
Stimulus,canvas.Screen,2_51_0_1,2022-07-04T16:58:57.767Z,,,0,V,100.53599999999278,timeout,,,244949.2999999998,244947.905,244847.373,244848.5,244864.048,244964.584,,grey
Reaction,canvas.Screen,2_51_0_2,2022-07-04T16:58:57.907Z,,,0,V,123.91599999999744,response,stim_detected,mousedown,245090,245088.5,244947.905,244949.59999999963,244964.584,245097.885,,grey
Trial,flow.Sequence,2_51_0,2022-07-04T16:58:57.908Z,,,0,V,2308.8090000000084,completion,,,245090.40000000037,245088.5,242763.014,242773.5,242779.691,245097.885,,grey
Frame,canvas.Frame,2_51,2022-07-04T16:58:57.908Z,,,0,V,2310.8090000000084,,,,245090.59999999963,245090.5,242763.014,242772.90000000037,242779.691,245097.885,,grey
Fixation,canvas.Screen,2_52_0_0,2022-07-04T16:58:59.502Z,,,1,A,1601.8340000000026,timeout,,,246684.40000000037,246683.034,245081.208,245091.59999999963,245097.885,246699.719,,black
Stimulus,canvas.Screen,2_52_0_1,2022-07-04T16:58:59.601Z,,,1,A,99.3409999999858,timeout,,,246783.40000000037,246782.266,246683.034,246684.59999999963,246699.719,246799.06,,black
Reaction,canvas.Screen,2_52_0_2,2022-07-04T16:58:59.962Z,,,1,A,344.4400000000023,response,stim_detected,mousedown,247144.90000000037,247143.5,246782.266,246783.59999999963,246799.06,247149.277,,black
Trial,flow.Sequence,2_52_0,2022-07-04T16:58:59.963Z,,,1,A,2045.6149999999907,completion,,,247145.2999999998,247143.5,245081.208,245091.5,245097.885,247149.277,,black
Frame,canvas.Frame,2_52,2022-07-04T16:58:59.963Z,,,1,A,2047.6149999999907,,,,247145.59999999963,247145.5,245081.208,245090.7999999998,245097.885,247149.277,,black
Fixation,canvas.Screen,2_53_0_0,2022-07-04T16:59:01.686Z,,,1,AV,1734.4199999999837,timeout,,,248868.59999999963,248867.02,247132.6,247146.90000000037,247149.277,248883.697,,grey
Stimulus,canvas.Screen,2_53_0_1,2022-07-04T16:59:01.786Z,,,1,AV,100.39700000002631,timeout,,,248968.5,248967.381,248867.02,248868.90000000037,248883.697,248984.094,,grey
Reaction,canvas.Screen,2_53_0_2,2022-07-04T16:59:01.946Z,,,1,AV,143.40599999998813,response,stim_detected,mousedown,249128.90000000037,249127.5,248967.381,248968.7999999998,248984.094,249133.946,,grey
Trial,flow.Sequence,2_53_0,2022-07-04T16:59:01.947Z,,,1,AV,1978.2229999999981,completion,,,249129.2999999998,249127.5,247132.6,247146.7999999998,247149.277,249133.946,,grey
Frame,canvas.Frame,2_53,2022-07-04T16:59:01.947Z,,,1,AV,1980.2229999999981,,,,249129.59999999963,249129.5,247132.6,247145.7999999998,247149.277,249133.946,,grey
Fixation,canvas.Screen,2_54_0_0,2022-07-04T16:59:03.654Z,,,0,V,1718.0869999999995,timeout,,,250836.7000000002,250835.353,249117.269,249130.7000000002,249133.946,250852.033,,grey
Stimulus,canvas.Screen,2_54_0_1,2022-07-04T16:59:03.754Z,,,0,V,99.63500000000931,timeout,,,250936.7000000002,250934.992,250835.353,250837,250852.033,250951.668,,grey
Reaction,canvas.Screen,2_54_0_2,2022-07-04T16:59:04.002Z,,,0,V,231.83199999999488,response,stim_detected,mousedown,251184.90000000037,251183.5,250934.992,250936.90000000037,250951.668,251201.982,,grey
Trial,flow.Sequence,2_54_0,2022-07-04T16:59:04.003Z,,,0,V,2049.5540000000037,completion,,,251185.2999999998,251183.5,249117.269,249130.59999999963,249133.946,251201.982,,grey
Frame,canvas.Frame,2_54,2022-07-04T16:59:04.003Z,,,0,V,2051.4540000003763,,,,251185.5,251185.40000000037,249117.269,249129.7999999998,249133.946,251201.982,,grey
Fixation,canvas.Screen,2_55_0_0,2022-07-04T16:59:06.222Z,,,1,A,2218.4890000000014,timeout,,,253404.7999999998,253403.791,251185.305,251187.59999999963,251201.982,253420.471,,black
Stimulus,canvas.Screen,2_55_0_1,2022-07-04T16:59:06.322Z,,,1,A,99.6480000000156,timeout,,,253504.7000000002,253503.442,253403.791,253405,253420.471,253520.119,,black
Reaction,canvas.Screen,2_55_0_2,2022-07-04T16:59:06.484Z,,,1,A,145.28100000036648,response,stim_detected,mousedown,253667.09999999963,253665.40000000037,253503.442,253505,253520.119,253670.32,,black
Trial,flow.Sequence,2_55_0,2022-07-04T16:59:06.485Z,,,1,A,2463.4180000003835,completion,,,253667.5,253665.40000000037,251185.305,251187.5,251201.982,253670.32,,black
Frame,canvas.Frame,2_55,2022-07-04T16:59:06.485Z,,,1,A,2465.6179999996384,,,,253667.7999999998,253667.59999999963,251185.305,251185.7000000002,251201.982,253670.32,,black
Fixation,canvas.Screen,2_56_0_0,2022-07-04T16:59:08.807Z,,,1,AV,2334.7919999999867,timeout,,,255990,255988.435,253653.643,253668.7999999998,253670.32,256005.112,,grey
Stimulus,canvas.Screen,2_56_0_1,2022-07-04T16:59:08.907Z,,,1,AV,100.0010000000184,timeout,,,256090.09999999963,256088.437,255988.435,255990.2000000002,256005.112,256105.113,,grey
Reaction,canvas.Screen,2_56_0_2,2022-07-04T16:59:09.066Z,,,1,AV,141.48699999961536,response,stim_detected,mousedown,256248.2999999998,256246.59999999963,256088.437,256090.40000000037,256105.113,256255.373,,grey
Trial,flow.Sequence,2_56_0,2022-07-04T16:59:09.066Z,,,1,AV,2576.2799999996205,completion,,,256248.7000000002,256246.59999999963,253653.643,253668.7000000002,253670.32,256255.373,,grey
Frame,canvas.Frame,2_56,2022-07-04T16:59:09.066Z,,,1,AV,2578.4799999998068,,,,256248.90000000037,256248.7999999998,253653.643,253668,253670.32,256255.373,,grey
Fixation,canvas.Screen,2_57_0_0,2022-07-04T16:59:11.276Z,,,1,AV,2218.485000000015,timeout,,,258459,258457.178,256238.696,256250.09999999963,256255.373,258473.858,,grey
Stimulus,canvas.Screen,2_57_0_1,2022-07-04T16:59:11.375Z,,,1,AV,99.39299999998184,timeout,,,258558.09999999963,258556.576,258457.178,258459.2000000002,258473.858,258573.251,,grey
Reaction,canvas.Screen,2_57_0_2,2022-07-04T16:59:11.499Z,,,1,AV,106.94900000019697,response,stim_detected,mousedown,258681.7999999998,258680.2000000002,258556.576,258558.2999999998,258573.251,258690.304,,grey
Trial,flow.Sequence,2_57_0,2022-07-04T16:59:11.499Z,,,1,AV,2424.827000000194,completion,,,258682.2000000002,258680.2000000002,256238.696,256250,256255.373,258690.304,,grey
Frame,canvas.Frame,2_57,2022-07-04T16:59:11.500Z,,,1,AV,2426.9269999998214,,,,258682.5,258682.2999999998,256238.696,256249.09999999963,256255.373,258690.304,,grey
Fixation,canvas.Screen,2_58_0_0,2022-07-04T16:59:13.344Z,,,0,V,1852.0860000000102,timeout,,,260527.2999999998,260525.705,258673.627,258683.5,258690.304,260542.39,,grey
Stimulus,canvas.Screen,2_58_0_1,2022-07-04T16:59:13.442Z,,,0,V,98.33399999997346,timeout,,,260625.09999999963,260624.054,260525.705,260527.59999999963,260542.39,260640.724,,grey
Reaction,canvas.Screen,2_58_0_2,2022-07-04T16:59:13.618Z,,,0,V,158.6760000003851,response,stim_detected,mousedown,260800.7999999998,260799.40000000037,260624.054,260625.40000000037,260640.724,260808.417,,grey
Trial,flow.Sequence,2_58_0,2022-07-04T16:59:13.619Z,,,0,V,2109.096000000369,completion,,,260801.2000000002,260799.40000000037,258673.627,258683.40000000037,258690.304,260808.417,,grey
Frame,canvas.Frame,2_58,2022-07-04T16:59:13.619Z,,,0,V,2111.096000000369,,,,260801.59999999963,260801.40000000037,258673.627,258682.7000000002,258690.304,260808.417,,grey
Fixation,canvas.Screen,2_59_0_0,2022-07-04T16:59:15.427Z,,,1,A,1817.5570000000007,timeout,,,262610.2000000002,262609.299,260791.74,260802.7000000002,260808.417,262625.974,,black
Stimulus,canvas.Screen,2_59_0_1,2022-07-04T16:59:15.528Z,,,1,A,100.45699999999488,timeout,,,262711.2000000002,262709.753,262609.299,262610.5,262625.974,262726.431,,black
Reaction,canvas.Screen,2_59_0_2,2022-07-04T16:59:15.677Z,,,1,A,131.86899999983143,response,stim_detected,mousedown,262859.7999999998,262858.2999999998,262709.753,262711.4000000004,262726.431,262876.438,,black
Trial,flow.Sequence,2_59_0,2022-07-04T16:59:15.677Z,,,1,A,2049.882999999827,completion,,,262860.2000000002,262858.2999999998,260791.74,260802.59999999963,260808.417,262876.438,,black
Frame,canvas.Frame,2_59,2022-07-04T16:59:15.678Z,,,1,A,2051.882999999827,,,,262860.5,262860.2999999998,260791.74,260801.90000000037,260808.417,262876.438,,black
Fixation,canvas.Screen,2_60_0_0,2022-07-04T16:59:17.231Z,,,1,AV,1551.7629999999772,timeout,,,264413.2999999998,264411.516,262859.761,262861.5,262876.438,264428.201,,grey
Stimulus,canvas.Screen,2_60_0_1,2022-07-04T16:59:17.329Z,,,1,AV,98.7609999999986,timeout,,,264511.2000000002,264510.291,264411.516,264413.5999999996,264428.201,264526.962,,grey
Reaction,canvas.Screen,2_60_0_2,2022-07-04T16:59:17.520Z,,,1,AV,174.3379999998142,response,stim_detected,mousedown,264702.7000000002,264701.2999999998,264510.291,264511.5,264526.962,264711.044,,grey
Trial,flow.Sequence,2_60_0,2022-07-04T16:59:17.520Z,,,1,AV,1824.86199999979,completion,,,264703.0999999996,264701.2999999998,262859.761,262861.4000000004,262876.438,264711.044,,grey
Frame,canvas.Frame,2_60,2022-07-04T16:59:17.521Z,,,1,AV,1826.7620000001625,,,,264703.4000000004,264703.2000000002,262859.761,262860.5999999996,262876.438,264711.044,,grey
Fixation,canvas.Screen,2_61_0_0,2022-07-04T16:59:19.598Z,,,0,V,2084.755999999994,timeout,,,266780.2999999998,266779.122,264694.366,264704.2999999998,264711.044,266795.8,,grey
Stimulus,canvas.Screen,2_61_0_1,2022-07-04T16:59:19.698Z,,,0,V,100.05400000000373,timeout,,,266880.4000000004,266879.177,266779.122,266780.5999999996,266795.8,266895.854,,grey
Reaction,canvas.Screen,2_61_0_2,2022-07-04T16:59:19.825Z,,,0,V,110.44599999982165,response,stim_detected,mousedown,267007.7000000002,267006.2999999998,266879.177,266880.5999999996,266895.854,267012.545,,grey
Trial,flow.Sequence,2_61_0,2022-07-04T16:59:19.825Z,,,0,V,2295.2559999998193,completion,,,267008.0999999996,267006.2999999998,264694.366,264704.2999999998,264711.044,267012.545,,grey
Frame,canvas.Frame,2_61,2022-07-04T16:59:19.826Z,,,0,V,2297.156000000192,,,,267008.4000000004,267008.2000000002,264694.366,264703.5,264711.044,267012.545,,grey
Fixation,canvas.Screen,2_62_0_0,2022-07-04T16:59:21.332Z,,,0,V,1517.3070000000298,timeout,,,268514.5,268513.178,266995.868,267009.4000000004,267012.545,268529.852,,grey
Stimulus,canvas.Screen,2_62_0_1,2022-07-04T16:59:21.432Z,,,0,V,100.39899999997579,timeout,,,268614.5,268613.574,268513.178,268514.5999999996,268529.852,268630.251,,grey
Reaction,canvas.Screen,2_62_0_2,2022-07-04T16:59:21.570Z,,,0,V,121.04899999982445,response,stim_detected,mousedown,268752.7000000002,268751.2999999998,268613.574,268614.7000000002,268630.251,268763.784,,grey
Trial,flow.Sequence,2_62_0,2022-07-04T16:59:21.570Z,,,0,V,1738.75499999983,completion,,,268753.0999999996,268751.2999999998,266995.868,267009.2999999998,267012.545,268763.784,,grey
Frame,canvas.Frame,2_62,2022-07-04T16:59:21.571Z,,,0,V,1740.6550000002026,,,,268753.4000000004,268753.2000000002,266995.868,267008.5,267012.545,268763.784,,grey
Fixation,canvas.Screen,2_63_0_0,2022-07-04T16:59:23.450Z,,,0,V,1883.7509999999893,timeout,,,270632.5999999996,270630.864,268747.106,268754.4000000004,268763.784,270647.535,,grey
Stimulus,canvas.Screen,2_63_0_1,2022-07-04T16:59:23.550Z,,,0,V,100.7280000000028,timeout,,,270732.5999999996,270731.587,270630.864,270632.7999999998,270647.535,270748.263,,grey
Reaction,canvas.Screen,2_63_0_2,2022-07-04T16:59:23.684Z,,,0,V,116.93700000020908,response,stim_detected,mousedown,270866.5999999996,270865.2000000002,270731.587,270732.9000000004,270748.263,270881.832,,grey
Trial,flow.Sequence,2_63_0,2022-07-04T16:59:23.684Z,,,0,V,2101.416000000201,completion,,,270867.2000000002,270865.2000000002,268747.106,268754.2999999998,268763.784,270881.832,,grey
Frame,canvas.Frame,2_63,2022-07-04T16:59:23.685Z,,,0,V,2103.6160000003874,,,,270867.5,270867.4000000004,268747.106,268753.5,268763.784,270881.832,,grey
Fixation,canvas.Screen,2_64_0_0,2022-07-04T16:59:25.702Z,,,1,A,2017.9210000000312,timeout,,,272884.7999999998,272883.076,270865.155,270868.5,270881.832,272899.753,,black
Stimulus,canvas.Screen,2_64_0_1,2022-07-04T16:59:25.801Z,,,1,A,99.49399999994785,timeout,,,272983.5999999996,272982.575,272883.076,272885.0999999996,272899.753,272999.247,,black
Reaction,canvas.Screen,2_64_0_2,2022-07-04T16:59:26.016Z,,,1,A,197.95300000021234,response,stim_detected,mousedown,273198.5999999996,273197.2000000002,272982.575,272983.9000000004,272999.247,273200.041,,black
Trial,flow.Sequence,2_64_0,2022-07-04T16:59:26.016Z,,,1,A,2315.3680000001914,completion,,,273199.0999999996,273197.2000000002,270865.155,270868.5,270881.832,273200.041,,black
Frame,canvas.Frame,2_64,2022-07-04T16:59:26.017Z,,,1,A,2317.3680000001914,,,,273199.4000000004,273199.2000000002,270865.155,270867.7000000002,270881.832,273200.041,,black
Fixation,canvas.Screen,2_65_0_0,2022-07-04T16:59:28.103Z,,,0,V,2100.875,timeout,,,275285.7999999998,275284.242,273183.364,273200.5999999996,273200.041,275300.916,,grey
Stimulus,canvas.Screen,2_65_0_1,2022-07-04T16:59:28.203Z,,,0,V,100.61799999995856,timeout,,,275385.7999999998,275384.856,275284.242,275286,275300.916,275401.534,,grey
Reaction,canvas.Screen,2_65_0_2,2022-07-04T16:59:28.362Z,,,0,V,141.66600000020117,response,stim_detected,mousedown,275544.5999999996,275543.2000000002,275384.856,275386,275401.534,275551.616,,grey
Trial,flow.Sequence,2_65_0,2022-07-04T16:59:28.362Z,,,0,V,2343.1590000001597,completion,,,275545,275543.2000000002,273183.364,273200.5,273200.041,275551.616,,grey
Frame,canvas.Frame,2_65,2022-07-04T16:59:28.363Z,,,0,V,2345.058999999601,,,,275545.2999999998,275545.0999999996,273183.364,273199.5999999996,273200.041,275551.616,,grey
Fixation,canvas.Screen,2_66_0_0,2022-07-04T16:59:30.171Z,,,1,A,1817.798999999999,timeout,,,277353.7999999998,277352.738,275534.939,275546.5,275551.616,277369.415,,black
Stimulus,canvas.Screen,2_66_0_1,2022-07-04T16:59:30.271Z,,,1,A,100.11800000001676,timeout,,,277453.7999999998,277452.856,277352.738,277354.0999999996,277369.415,277469.533,,black
Reaction,canvas.Screen,2_66_0_2,2022-07-04T16:59:30.441Z,,,1,A,152.66700000019046,response,stim_detected,mousedown,277623.5999999996,277622.2000000002,277452.856,277454,277469.533,277636.338,,black
Trial,flow.Sequence,2_66_0,2022-07-04T16:59:30.441Z,,,1,A,2070.5840000002063,completion,,,277624,277622.2000000002,275534.939,275546.4000000004,275551.616,277636.338,,black
Frame,canvas.Frame,2_66,2022-07-04T16:59:30.442Z,,,1,A,2072.5840000002063,,,,277624.2999999998,277624.2000000002,275534.939,275545.5,275551.616,277636.338,,black
Fixation,canvas.Screen,2_67_0_0,2022-07-04T16:59:32.055Z,,,1,A,1617.2280000000028,timeout,,,279237.9000000004,279236.893,277619.661,277625.2999999998,277636.338,279253.566,,black
Stimulus,canvas.Screen,2_67_0_1,2022-07-04T16:59:32.156Z,,,1,A,100.44500000000698,timeout,,,279339,279337.335,279236.893,279238.2000000002,279253.566,279354.011,,black
Reaction,canvas.Screen,2_67_0_2,2022-07-04T16:59:32.319Z,,,1,A,146.18900000018766,response,stim_detected,mousedown,279501.5999999996,279500.2000000002,279337.335,279339.2000000002,279354.011,279520.89,,black
Trial,flow.Sequence,2_67_0,2022-07-04T16:59:32.319Z,,,1,A,1863.8620000001974,completion,,,279502,279500.2000000002,277619.661,277625.2999999998,277636.338,279520.89,,black
Frame,canvas.Frame,2_67,2022-07-04T16:59:32.320Z,,,1,A,1865.7619999996386,,,,279502.2999999998,279502.0999999996,277619.661,277624.5,277636.338,279520.89,,black
Fixation,canvas.Screen,2_68_0_0,2022-07-04T16:59:34.358Z,,,1,A,2036.0109999999986,timeout,,,281541.0999999996,281540.213,279487.536,279503.4000000004,279520.89,281556.901,,black
Stimulus,canvas.Screen,2_68_0_1,2022-07-04T16:59:34.457Z,,,1,A,98.59599999996135,timeout,,,281640,281638.821,281540.213,281541.5,281556.901,281655.497,,black
Reaction,canvas.Screen,2_68_0_2,2022-07-04T16:59:34.565Z,,,1,A,90.70300000021234,response,stim_detected,mousedown,281747.7000000002,281746.2000000002,281638.821,281640.2999999998,281655.497,281755.762,,black
Trial,flow.Sequence,2_68_0,2022-07-04T16:59:34.565Z,,,1,A,2225.3100000001723,completion,,,281748.2000000002,281746.2000000002,279487.536,279503.2999999998,279520.89,281755.762,,black
Frame,canvas.Frame,2_68,2022-07-04T16:59:34.566Z,,,1,A,2227.4099999997998,,,,281748.5,281748.2999999998,279487.536,279502.5,279520.89,281755.762,,black
Fixation,canvas.Screen,2_69_0_0,2022-07-04T16:59:36.341Z,,,0,V,1784.2069999999949,timeout,,,283524.2000000002,283523.294,281739.085,281749.5,281755.762,283539.969,,grey
Stimulus,canvas.Screen,2_69_0_1,2022-07-04T16:59:36.441Z,,,0,V,99.98999999999069,timeout,,,283624.2000000002,283623.285,283523.294,283524.5,283539.969,283639.959,,grey
Reaction,canvas.Screen,2_69_0_2,2022-07-04T16:59:36.620Z,,,0,V,161.140999999654,response,stim_detected,mousedown,283802.5999999996,283801.0999999996,283623.285,283624.4000000004,283639.959,283807.093,,grey
Trial,flow.Sequence,2_69_0,2022-07-04T16:59:36.620Z,,,0,V,2045.3379999996396,completion,,,283802.9000000004,283801.0999999996,281739.085,281749.5,281755.762,283807.093,,grey
Frame,canvas.Frame,2_69,2022-07-04T16:59:36.621Z,,,0,V,2047.3379999996396,,,,283803.2999999998,283803.0999999996,281739.085,281748.7000000002,281755.762,283807.093,,grey
Fixation,canvas.Screen,2_70_0_0,2022-07-04T16:59:38.728Z,,,1,A,2119.0449999999837,timeout,,,285910.2999999998,285909.453,283790.416,283804.2999999998,283807.093,285926.138,,black
Stimulus,canvas.Screen,2_70_0_1,2022-07-04T16:59:38.828Z,,,1,A,99.10700000001816,timeout,,,286010.2999999998,286008.568,285909.453,285910.5,285926.138,286025.245,,black
Reaction,canvas.Screen,2_70_0_2,2022-07-04T16:59:38.977Z,,,1,A,132.85499999963213,response,stim_detected,mousedown,286159.5999999996,286158.0999999996,286008.568,286010.5999999996,286025.245,286175.382,,black
Trial,flow.Sequence,2_70_0,2022-07-04T16:59:38.977Z,,,1,A,2351.006999999634,completion,,,286159.9000000004,286158.0999999996,283790.416,283804.2000000002,283807.093,286175.382,,black
Frame,canvas.Frame,2_70,2022-07-04T16:59:38.978Z,,,1,A,2353.006999999634,,,,286160.2999999998,286160.0999999996,283790.416,283803.5,283807.093,286175.382,,black
Fixation,canvas.Screen,2_71_0_0,2022-07-04T16:59:41.363Z,,,0,V,2384.9710000000196,timeout,,,288545.5,288543.675,286158.705,286161.4000000004,286175.382,288560.353,,grey
Stimulus,canvas.Screen,2_71_0_1,2022-07-04T16:59:41.462Z,,,0,V,99.78600000002189,timeout,,,288644.5,288643.463,288543.675,288546,288560.353,288660.139,,grey
Reaction,canvas.Screen,2_71_0_2,2022-07-04T16:59:41.607Z,,,0,V,127.86099999997532,response,stim_detected,mousedown,288789.5,288788,288643.463,288644.7999999998,288660.139,288793.79,,grey
Trial,flow.Sequence,2_71_0,2022-07-04T16:59:41.607Z,,,0,V,2612.6180000000168,completion,,,288789.9000000004,288788,286158.705,286161.2000000002,286175.382,288793.79,,grey
Frame,canvas.Frame,2_71,2022-07-04T16:59:41.607Z,,,0,V,2614.6180000000168,,,,288790.2000000002,288790,286158.705,286160.5,286175.382,288793.79,,grey
Fixation,canvas.Screen,2_72_0_0,2022-07-04T16:59:43.447Z,,,1,A,1851.4020000000019,timeout,,,290629.5999999996,290628.513,288777.113,288791.0999999996,288793.79,290645.192,,black
Stimulus,canvas.Screen,2_72_0_1,2022-07-04T16:59:43.547Z,,,1,A,99.97000000003027,timeout,,,290729.5,290728.484,290628.513,290629.7999999998,290645.192,290745.162,,black
Reaction,canvas.Screen,2_72_0_2,2022-07-04T16:59:43.874Z,,,1,A,309.9379999996163,response,stim_detected,mousedown,291056.7000000002,291055.0999999996,290728.484,290729.7999999998,290745.162,291061.975,,black
Trial,flow.Sequence,2_72_0,2022-07-04T16:59:43.874Z,,,1,A,2261.3099999996484,completion,,,291057.0999999996,291055.0999999996,288777.113,288791.0999999996,288793.79,291061.975,,black
Frame,canvas.Frame,2_72,2022-07-04T16:59:43.875Z,,,1,A,2263.5099999998347,,,,291057.5,291057.2999999998,288777.113,288790.2999999998,288793.79,291061.975,,black
Fixation,canvas.Screen,2_73_0_0,2022-07-04T16:59:45.865Z,,,0,V,2000.5329999999958,timeout,,,293047.5,293045.836,291045.298,291058.7000000002,291061.975,293062.508,,grey
Stimulus,canvas.Screen,2_73_0_1,2022-07-04T16:59:45.965Z,,,0,V,100.89700000005541,timeout,,,293147.7999999998,293146.727,293045.836,293047.7999999998,293062.508,293163.405,,grey
Reaction,canvas.Screen,2_73_0_2,2022-07-04T16:59:46.132Z,,,0,V,149.59499999997206,response,stim_detected,mousedown,293314.5999999996,293313,293146.727,293148,293163.405,293330.166,,grey
Trial,flow.Sequence,2_73_0,2022-07-04T16:59:46.132Z,,,0,V,2251.0250000000233,completion,,,293315,293313,291045.298,291058.5,291061.975,293330.166,,grey
Frame,canvas.Frame,2_73,2022-07-04T16:59:46.133Z,,,0,V,2253.2250000002095,,,,293315.4000000004,293315.2000000002,291045.298,291057.7000000002,291061.975,293330.166,,grey
Fixation,canvas.Screen,2_74_0_0,2022-07-04T16:59:48.000Z,,,0,V,1867.9459999999963,timeout,,,295182.7999999998,295181.434,293313.489,293316.7999999998,293330.166,295198.112,,grey
Stimulus,canvas.Screen,2_74_0_1,2022-07-04T16:59:48.100Z,,,0,V,99.89999999996508,timeout,,,295282.7999999998,295281.336,295181.434,295183.2000000002,295198.112,295298.012,,grey
Reaction,canvas.Screen,2_74_0_2,2022-07-04T16:59:48.255Z,,,0,V,138.08799999963958,response,stim_detected,mousedown,295437.7000000002,295436.0999999996,295281.336,295283,295298.012,295448.26,,grey
Trial,flow.Sequence,2_74_0,2022-07-04T16:59:48.255Z,,,0,V,2105.933999999601,completion,,,295438.0999999996,295436.0999999996,293313.489,293316.7000000002,293330.166,295448.26,,grey
Frame,canvas.Frame,2_74,2022-07-04T16:59:48.256Z,,,0,V,2108.0340000001597,,,,295438.5,295438.2000000002,293313.489,293315.7000000002,293330.166,295448.26,,grey
Fixation,canvas.Screen,2_75_0_0,2022-07-04T16:59:50.685Z,,,0,V,2435.304999999993,timeout,,,297867.7999999998,297866.885,295431.583,295439.5,295448.26,297883.565,,grey
Stimulus,canvas.Screen,2_75_0_1,2022-07-04T16:59:50.785Z,,,0,V,99.4199999999837,timeout,,,297967.7999999998,297966.31,297866.885,297868.0999999996,297883.565,297982.985,,grey
Reaction,canvas.Screen,2_75_0_2,2022-07-04T16:59:50.924Z,,,0,V,122.01500000001397,response,stim_detected,mousedown,298106.5999999996,298105,297966.31,297968.0999999996,297982.985,298116.653,,grey
Trial,flow.Sequence,2_75_0,2022-07-04T16:59:50.924Z,,,0,V,2656.7399999999907,completion,,,298107.0999999996,298105,295431.583,295439.4000000004,295448.26,298116.653,,grey
Frame,canvas.Frame,2_75,2022-07-04T16:59:50.925Z,,,0,V,2658.940000000177,,,,298107.5,298107.2000000002,295431.583,295438.5999999996,295448.26,298116.653,,grey
Fixation,canvas.Screen,2_76_0_0,2022-07-04T16:59:52.721Z,,,1,A,1802.8369999999995,timeout,,,299904,299902.798,298099.976,298108.5,298116.653,299919.49,,black
Stimulus,canvas.Screen,2_76_0_1,2022-07-04T16:59:52.819Z,,,1,A,97.8059999999823,timeout,,,300001.9000000004,300000.625,299902.798,299904.2999999998,299919.49,300017.296,,black
Reaction,canvas.Screen,2_76_0_2,2022-07-04T16:59:52.980Z,,,1,A,143.704000000027,response,stim_detected,mousedown,300162.5,300161,300000.625,300002.2000000002,300017.296,300168.039,,black
Trial,flow.Sequence,2_76_0,2022-07-04T16:59:52.980Z,,,1,A,2044.3470000000088,completion,,,300162.7999999998,300161,298099.976,298108.4000000004,298116.653,300168.039,,black
Frame,canvas.Frame,2_76,2022-07-04T16:59:52.980Z,,,1,A,2046.4469999996363,,,,300163.2000000002,300163.0999999996,298099.976,298107.7000000002,298116.653,300168.039,,black
Fixation,canvas.Screen,2_77_0_0,2022-07-04T16:59:55.406Z,,,1,A,2435.4890000000014,timeout,,,302588.2999999998,302586.847,300151.362,300164.2000000002,300168.039,302603.528,,black
Stimulus,canvas.Screen,2_77_0_1,2022-07-04T16:59:55.506Z,,,1,A,99.62300000002142,timeout,,,302688.2000000002,302686.471,302586.847,302588.5999999996,302603.528,302703.151,,black
Reaction,canvas.Screen,2_77_0_2,2022-07-04T16:59:55.692Z,,,1,A,168.84899999998743,response,stim_detected,mousedown,302873.5,302872,302686.471,302688.5999999996,302703.151,302886.539,,black
Trial,flow.Sequence,2_77_0,2022-07-04T16:59:55.692Z,,,1,A,2703.9610000000102,completion,,,302873.9000000004,302872,300151.362,300164.0999999996,300168.039,302886.539,,black
Frame,canvas.Frame,2_77,2022-07-04T16:59:55.693Z,,,1,A,2706.0609999996377,,,,302874.2999999998,302874.0999999996,300151.362,300163.4000000004,300168.039,302886.539,,black
Fixation,canvas.Screen,2_78_0_0,2022-07-04T16:59:57.424Z,,,1,A,1734.771000000008,timeout,,,304606.2000000002,304604.63,302869.862,302875.4000000004,302886.539,304621.31,,black
Stimulus,canvas.Screen,2_78_0_1,2022-07-04T16:59:57.525Z,,,1,A,99.82400000002235,timeout,,,304706.2999999998,304704.457,304604.63,304607,304621.31,304721.134,,black
Reaction,canvas.Screen,2_78_0_2,2022-07-04T16:59:57.763Z,,,1,A,221.86599999997998,response,stim_detected,mousedown,304944.5,304943,304704.457,304706.7000000002,304721.134,304954.577,,black
Trial,flow.Sequence,2_78_0,2022-07-04T16:59:57.763Z,,,1,A,2056.4610000000102,completion,,,304944.9000000004,304943,302869.862,302875.2999999998,302886.539,304954.577,,black
Frame,canvas.Frame,2_78,2022-07-04T16:59:57.763Z,,,1,A,2058.4610000000102,,,,304945.2000000002,304945,302869.862,302874.5,302886.539,304954.577,,black
Fixation,canvas.Screen,2_79_0_0,2022-07-04T16:59:59.308Z,,,1,AV,1551.4820000000182,timeout,,,306490.2999999998,306489.377,304937.9,304946.5,304954.577,306506.059,,grey
Stimulus,canvas.Screen,2_79_0_1,2022-07-04T16:59:59.408Z,,,1,AV,99.62299999996321,timeout,,,306590.2999999998,306589.005,306489.377,306490.5,306506.059,306605.682,,grey
Reaction,canvas.Screen,2_79_0_2,2022-07-04T16:59:59.532Z,,,1,AV,106.21800000040093,response,stim_detected,mousedown,306713.4000000004,306711.9000000004,306589.005,306590.5,306605.682,306739.139,,grey
Trial,flow.Sequence,2_79_0,2022-07-04T16:59:59.532Z,,,1,AV,1757.3230000003823,completion,,,306713.7999999998,306711.9000000004,304937.9,304946.2999999998,304954.577,306739.139,,grey
Frame,canvas.Frame,2_79,2022-07-04T16:59:59.532Z,,,1,AV,1759.3230000003823,,,,306714.0999999996,306713.9000000004,304937.9,304945.5,304954.577,306739.139,,grey
Fixation,canvas.Screen,2_80_0_0,2022-07-04T17:00:01.144Z,,,1,A,1601.4329999999609,timeout,,,308325.4000000004,308323.891,306705.785,306715.0999999996,306739.139,308340.572,,black
Stimulus,canvas.Screen,2_80_0_1,2022-07-04T17:00:01.244Z,,,1,A,99.71000000002095,timeout,,,308425.4000000004,308423.605,308323.891,308325.7999999998,308340.572,308440.282,,black
Reaction,canvas.Screen,2_80_0_2,2022-07-04T17:00:01.412Z,,,1,A,151.618000000366,response,stim_detected,mousedown,308593.4000000004,308591.9000000004,308423.605,308425.5999999996,308440.282,308606.967,,black
Trial,flow.Sequence,2_80_0,2022-07-04T17:00:01.412Z,,,1,A,1852.7610000003478,completion,,,308593.7999999998,308591.9000000004,306705.785,306715,306739.139,308606.967,,black
Frame,canvas.Frame,2_80,2022-07-04T17:00:01.412Z,,,1,A,1854.7610000003478,,,,308594.2000000002,308593.9000000004,306705.785,306714.2999999998,306739.139,308606.967,,black
Fixation,canvas.Screen,2_81_0_0,2022-07-04T17:00:03.629Z,,,1,AV,2218.689000000013,timeout,,,310810.5,310808.975,308590.294,308595.2999999998,308606.967,310825.656,,grey
Stimulus,canvas.Screen,2_81_0_1,2022-07-04T17:00:03.729Z,,,1,AV,99.67900000000373,timeout,,,310910.5999999996,310908.657,310808.975,310810.7000000002,310825.656,310925.335,,grey
Reaction,canvas.Screen,2_81_0_2,2022-07-04T17:00:03.879Z,,,1,AV,133.56500000035157,response,stim_detected,mousedown,311060.2999999998,311058.9000000004,310908.657,310910.7999999998,310925.335,311075.376,,grey
Trial,flow.Sequence,2_81_0,2022-07-04T17:00:03.879Z,,,1,AV,2451.9330000003683,completion,,,311060.7999999998,311058.9000000004,308590.294,308595.2000000002,308606.967,311075.376,,grey
Frame,canvas.Frame,2_81,2022-07-04T17:00:03.879Z,,,1,AV,2454.032999999996,,,,311061.0999999996,311061,308590.294,308594.4000000004,308606.967,311075.376,,grey
Fixation,canvas.Screen,2_82_0_0,2022-07-04T17:00:05.579Z,,,1,AV,1700.7210000000196,timeout,,,312760.5999999996,312759.423,311058.699,311062.0999999996,311075.376,312776.097,,grey
Stimulus,canvas.Screen,2_82_0_1,2022-07-04T17:00:05.680Z,,,1,AV,100.44199999998091,timeout,,,312861.5,312859.815,312759.423,312760.9000000004,312776.097,312876.539,,grey
Reaction,canvas.Screen,2_82_0_2,2022-07-04T17:00:05.830Z,,,1,AV,133.36100000038277,response,stim_detected,mousedown,313011.2999999998,313009.9000000004,312859.815,312861.7999999998,312876.539,313026.632,,grey
Trial,flow.Sequence,2_82_0,2022-07-04T17:00:05.830Z,,,1,AV,1934.5240000003832,completion,,,313011.7000000002,313009.9000000004,311058.699,311062,311075.376,313026.632,,grey
Frame,canvas.Frame,2_82,2022-07-04T17:00:05.830Z,,,1,AV,1936.5240000003832,,,,313012,313011.9000000004,311058.699,311061.2999999998,311075.376,313026.632,,grey
Fixation,canvas.Screen,2_83_0_0,2022-07-04T17:00:08.249Z,,,0,V,2419.280000000028,timeout,,,315430.7999999998,315429.228,313009.955,313013.0999999996,313026.632,315445.912,,grey
Stimulus,canvas.Screen,2_83_0_1,2022-07-04T17:00:08.348Z,,,0,V,99.12900000001537,timeout,,,315529.7999999998,315528.364,315429.228,315431.0999999996,315445.912,315545.041,,grey
Reaction,canvas.Screen,2_83_0_2,2022-07-04T17:00:08.476Z,,,0,V,110.85900000034599,response,stim_detected,mousedown,315657.4000000004,315655.9000000004,315528.364,315530,315545.041,315661.774,,grey
Trial,flow.Sequence,2_83_0,2022-07-04T17:00:08.476Z,,,0,V,2629.2680000003893,completion,,,315657.7999999998,315655.9000000004,313009.955,313013,313026.632,315661.774,,grey
Frame,canvas.Frame,2_83,2022-07-04T17:00:08.476Z,,,0,V,2631.2680000003893,,,,315658.2000000002,315657.9000000004,313009.955,313012.2000000002,313026.632,315661.774,,grey
Fixation,canvas.Screen,2_84_0_0,2022-07-04T17:00:10.182Z,,,0,V,1717.7430000000168,timeout,,,317363.7999999998,317362.84,315645.097,315659.0999999996,315661.774,317379.517,,grey
Stimulus,canvas.Screen,2_84_0_1,2022-07-04T17:00:10.282Z,,,0,V,100.11200000002282,timeout,,,317463.7999999998,317462.952,317362.84,317364.0999999996,317379.517,317479.629,,grey
Reaction,canvas.Screen,2_84_0_2,2022-07-04T17:00:10.445Z,,,0,V,145.27100000035716,response,stim_detected,mousedown,317626.7000000002,317624.9000000004,317462.952,317464.2000000002,317479.629,317629.745,,grey
Trial,flow.Sequence,2_84_0,2022-07-04T17:00:10.445Z,,,0,V,1963.1260000003967,completion,,,317627.0999999996,317624.9000000004,315645.097,315659,315661.774,317629.745,,grey
Frame,canvas.Frame,2_84,2022-07-04T17:00:10.446Z,,,0,V,1965.4260000002105,,,,317627.4000000004,317627.2000000002,315645.097,315658.2999999998,315661.774,317629.745,,grey
Fixation,canvas.Screen,2_85_0_0,2022-07-04T17:00:12.501Z,,,1,AV,2068.088999999978,timeout,,,319682.9000000004,319681.156,317613.068,317628.5,317629.745,319697.834,,grey
Stimulus,canvas.Screen,2_85_0_1,2022-07-04T17:00:12.601Z,,,1,AV,100.07100000005448,timeout,,,319782.9000000004,319781.227,319681.156,319683.0999999996,319697.834,319797.905,,grey
Reaction,canvas.Screen,2_85_0_2,2022-07-04T17:00:12.711Z,,,1,AV,93.8949999997858,response,stim_detected,mousedown,319893.2999999998,319891.7999999998,319781.227,319783.0999999996,319797.905,319914.588,,grey
Trial,flow.Sequence,2_85_0,2022-07-04T17:00:12.712Z,,,1,AV,2262.0549999998184,completion,,,319893.5999999996,319891.7999999998,317613.068,317628.4000000004,317629.745,319914.588,,grey
Frame,canvas.Frame,2_85,2022-07-04T17:00:12.712Z,,,1,AV,2264.0549999998184,,,,319894,319893.7999999998,317613.068,317627.7000000002,317629.745,319914.588,,grey
Fixation,canvas.Screen,2_86_0_0,2022-07-04T17:00:14.686Z,,,1,A,1968.655000000028,timeout,,,321868.0999999996,321866.56,319881.234,319895,319914.588,321883.243,,black
Stimulus,canvas.Screen,2_86_0_1,2022-07-04T17:00:14.785Z,,,1,A,99.10999999998603,timeout,,,321966.9000000004,321965.678,321866.56,321868.4000000004,321883.243,321982.353,,black
Reaction,canvas.Screen,2_86_0_2,2022-07-04T17:00:14.923Z,,,1,A,120.54700000036974,response,stim_detected,mousedown,322104.2999999998,322102.9000000004,321965.678,321967.2000000002,321982.353,322116.058,,black
Trial,flow.Sequence,2_86_0,2022-07-04T17:00:14.923Z,,,1,A,2188.3120000003837,completion,,,322104.7000000002,322102.9000000004,319881.234,319894.9000000004,319914.588,322116.058,,black
Frame,canvas.Frame,2_86,2022-07-04T17:00:14.923Z,,,1,A,2190.3120000003837,,,,322105,322104.9000000004,319881.234,319894.0999999996,319914.588,322116.058,,black
Fixation,canvas.Screen,2_87_0_0,2022-07-04T17:00:16.470Z,,,1,A,1551.070000000007,timeout,,,323652.0999999996,323650.45,322099.381,322106.2999999998,322116.058,323667.128,,black
Stimulus,canvas.Screen,2_87_0_1,2022-07-04T17:00:16.570Z,,,1,A,100.12299999996321,timeout,,,323752.0999999996,323750.573,323650.45,323652.2000000002,323667.128,323767.251,,black
Reaction,canvas.Screen,2_87_0_2,2022-07-04T17:00:16.792Z,,,1,A,205.44900000019697,response,stim_detected,mousedown,323973.7000000002,323972.7000000002,323750.573,323752.2999999998,323767.251,323983.992,,black
Trial,flow.Sequence,2_87_0,2022-07-04T17:00:16.792Z,,,1,A,1856.6420000001672,completion,,,323973.9000000004,323972.7000000002,322099.381,322106.2000000002,322116.058,323983.992,,black
Frame,canvas.Frame,2_87,2022-07-04T17:00:16.792Z,,,1,A,1857.941999999981,,,,323974.0999999996,323974,322099.381,322105.2999999998,322116.058,323983.992,,black
Fixation,canvas.Screen,2_88_0_0,2022-07-04T17:00:19.106Z,,,1,AV,2318.2639999999665,timeout,,,326287.2999999998,326285.578,323967.315,323974.7999999998,323983.992,326302.256,,grey
Stimulus,canvas.Screen,2_88_0_1,2022-07-04T17:00:19.206Z,,,1,AV,99.9890000000014,timeout,,,326387.5,326385.568,326285.578,326287.5999999996,326302.256,326402.245,,grey
Reaction,canvas.Screen,2_88_0_2,2022-07-04T17:00:19.338Z,,,1,AV,116.45500000019092,response,stim_detected,mousedown,326520.2000000002,326518.7000000002,326385.568,326387.7000000002,326402.245,326535.655,,grey
Trial,flow.Sequence,2_88_0,2022-07-04T17:00:19.339Z,,,1,AV,2534.708000000159,completion,,,326520.7000000002,326518.7000000002,323967.315,323974.7000000002,323983.992,326535.655,,grey
Frame,canvas.Frame,2_88,2022-07-04T17:00:19.339Z,,,1,AV,2536.708000000159,,,,326520.9000000004,326520.7000000002,323967.315,323974.2000000002,323983.992,326535.655,,grey
Fixation,canvas.Screen,2_89_0_0,2022-07-04T17:00:21.090Z,,,1,A,1752.0929999999935,timeout,,,328272.2000000002,328271.062,326518.978,326522,326535.655,328287.748,,black
Stimulus,canvas.Screen,2_89_0_1,2022-07-04T17:00:21.189Z,,,1,A,98.60599999997066,timeout,,,328371.2000000002,328369.682,328271.062,328272.5,328287.748,328386.354,,black
Reaction,canvas.Screen,2_89_0_2,2022-07-04T17:00:21.351Z,,,1,A,145.34600000019418,response,stim_detected,mousedown,328533.2000000002,328531.7000000002,328369.682,328371.5,328386.354,328537.036,,black
Trial,flow.Sequence,2_89_0,2022-07-04T17:00:21.352Z,,,1,A,1996.0450000001583,completion,,,328533.7000000002,328531.7000000002,326518.978,326521.7999999998,326535.655,328537.036,,black
Frame,canvas.Frame,2_89,2022-07-04T17:00:21.352Z,,,1,A,1998.1449999997858,,,,328534,328533.7999999998,326518.978,326521.0999999996,326535.655,328537.036,,black
Fixation,canvas.Screen,2_90_0_0,2022-07-04T17:00:23.691Z,,,1,AV,2350.9989999999525,timeout,,,330872.5999999996,330871.361,328520.359,328535.0999999996,328537.036,330888.035,,grey
Stimulus,canvas.Screen,2_90_0_1,2022-07-04T17:00:23.792Z,,,1,AV,100.68400000000838,timeout,,,330973.5,330972.04,330871.361,330872.9000000004,330888.035,330988.719,,grey
Reaction,canvas.Screen,2_90_0_2,2022-07-04T17:00:23.935Z,,,1,AV,126.08099999983096,response,stim_detected,mousedown,331116.4000000004,331114.7999999998,330972.04,330973.7999999998,330988.719,331155.414,,grey
Trial,flow.Sequence,2_90_0,2022-07-04T17:00:23.935Z,,,1,AV,2577.763999999792,completion,,,331116.7999999998,331114.7999999998,328520.359,328535,328537.036,331155.414,,grey
Frame,canvas.Frame,2_90,2022-07-04T17:00:23.935Z,,,1,AV,2579.8640000003506,,,,331117.0999999996,331116.9000000004,328520.359,328534.2000000002,328537.036,331155.414,,grey
Loop,flow.Loop,2,2022-07-04T17:00:23.936Z,,,,,203264.7140000004,completion,,,331117.5,331116.9000000004,127835.514,127837.70000000019,127852.186,331155.414,,
end,html.Page,3,2022-07-04T17:00:31.563Z,,,,,7588.885999999824,form submission,,,338744.9000000004,338744.2999999998,331138.737,331117.7000000002,331155.414,338743.753,,
root,flow.Sequence,,2022-07-04T17:00:31.566Z,,,,,336625.5349999998,completion,,,338747.7000000002,338744.2999999998,2102.089,2111.2000000001863,2118.765,338743.753,,