sender,sender_type,sender_id,timestamp,meta,,aud,condition,duration,ended_on,response,response_action,time_commit,time_end,time_render,time_run,time_show,time_switch,url,vis
Instructions,html.Page,0,2022-07-11T15:16:56.085Z,"{""labjs_version"":""20.2.4"",""labjs_build"":{""flavor"":""production"",""commit"":""f5b4a49f956347addd546a832a3327688c2c0fef""},""location"":""file:///C:/Users/Proband%207/Desktop/RTE/index.html"",""userAgent"":""Mozilla/5.0 (Windows NT 6.1; Win64; x64) AppleWebKit/537.36 (KHTML, like Gecko) Chrome/103.0.0.0 Safari/537.36"",""platform"":""Win32"",""language"":""de-DE"",""locale"":""de"",""timeZone"":""Europe/Berlin"",""timezoneOffset"":-120,""screen_width"":1366,""screen_height"":768,""scroll_width"":779,""scroll_height"":560,""window_innerWidth"":779,""window_innerHeight"":608,""devicePixelRatio"":1}",,,,771293.6290000001,form submission,,,777474.8,777473.4,6163.093,6166.399999999994,6179.771,777485.803,{},
Change Background,canvas.Screen,1,2022-07-11T15:16:59.082Z,,,,,3000.466000000015,timeout,,,780471.7000000001,780469.604,777452.449,777475.6,777485.803,780486.269,,
Fixation,canvas.Screen,2_0_0_0,2022-07-11T15:17:00.719Z,,,1,AV,1638.1560000000754,timeout,,,782109.4,782107.725,780469.604,780473.2000000001,780486.269,782124.425,,grey
Stimulus,canvas.Screen,2_0_0_1,2022-07-11T15:17:00.817Z,,,1,AV,97.81399999989662,timeout,,,782206.9,782205.562,782107.725,782109.7000000001,782124.425,782222.239,,grey
Reaction,canvas.Screen,2_0_0_2,2022-07-11T15:17:01.065Z,,,1,AV,231.56100000010338,response,stim_detected,mousedown,782455.1,782453.8,782205.562,782207.2000000001,782222.239,782455.795,,grey
Trial,flow.Sequence,2_0_0,2022-07-11T15:17:01.065Z,,,1,AV,1967.5310000000754,completion,,,782455.3,782453.8,780469.604,780473.1,780486.269,782455.795,,grey
Frame,canvas.Frame,2_0,2022-07-11T15:17:01.066Z,,,1,AV,1969.1310000000522,,,,782455.5,782455.4,780469.604,780472,780486.269,782455.795,,grey
Fixation,canvas.Screen,2_1_0_0,2022-07-11T15:17:03.201Z,,,1,A,2151.19299999997,timeout,,,784591.2000000001,784590.312,782439.118,782456.1,782455.795,784606.988,,black
Stimulus,canvas.Screen,2_1_0_1,2022-07-11T15:17:03.301Z,,,1,A,99.86499999999069,timeout,,,784690.9,784690.179,784590.312,784591.5,784606.988,784706.853,,black
Reaction,canvas.Screen,2_1_0_2,2022-07-11T15:17:03.580Z,,,1,A,261.0470000000205,response,stim_detected,mousedown,784969.8,784967.9,784690.179,784691.1,784706.853,784974.059,,black
Trial,flow.Sequence,2_1_0,2022-07-11T15:17:03.581Z,,,1,A,2512.1049999999814,completion,,,784970.8,784967.9,782439.118,782456.1,782455.795,784974.059,,black
Frame,canvas.Frame,2_1,2022-07-11T15:17:03.581Z,,,1,A,2515.204999999958,,,,784971.4,784971,782439.118,782455.5,782455.795,784974.059,,black
Fixation,canvas.Screen,2_2_0_0,2022-07-11T15:17:05.756Z,,,1,A,2186.3360000000102,timeout,,,787145.8,787143.706,784957.382,784972.8,784974.059,787160.395,,black
Stimulus,canvas.Screen,2_2_0_1,2022-07-11T15:17:05.854Z,,,1,A,98.48399999993853,timeout,,,787243.7000000001,787242.202,787143.706,787146.1,787160.395,787258.879,,black
Reaction,canvas.Screen,2_2_0_2,2022-07-11T15:17:06.077Z,,,1,A,206.02100000006612,response,stim_detected,mousedown,787466.8,787464.9,787242.202,787243.9,787258.879,787475.756,,black
Trial,flow.Sequence,2_2_0,2022-07-11T15:17:06.077Z,,,1,A,2490.841000000015,completion,,,787467.3,787464.9,784957.382,784972.7000000001,784974.059,787475.756,,black
Frame,canvas.Frame,2_2,2022-07-11T15:17:06.078Z,,,1,A,2493.341000000015,,,,787467.6,787467.4,784957.382,784971.8,784974.059,787475.756,,black
Fixation,canvas.Screen,2_3_0_0,2022-07-11T15:17:08.188Z,,,1,AV,2117.561999999918,timeout,,,789577.5,789576.644,787459.079,787468.9,787475.756,789593.318,,grey
Stimulus,canvas.Screen,2_3_0_1,2022-07-11T15:17:08.289Z,,,1,AV,100.38800000003539,timeout,,,789678.5,789677.03,789576.644,789577.8,789593.318,789693.706,,grey
Reaction,canvas.Screen,2_3_0_2,2022-07-11T15:17:08.500Z,,,1,AV,194.2939999999944,response,stim_detected,mousedown,789889.8,789888,789677.03,789678.9,789693.706,789893.958,,grey
Trial,flow.Sequence,2_3_0,2022-07-11T15:17:08.500Z,,,1,AV,2412.243999999948,completion,,,789890.2000000001,789888,787459.079,787468.8,787475.756,789893.958,,grey
Frame,canvas.Frame,2_3,2022-07-11T15:17:08.501Z,,,1,AV,2414.5439999999944,,,,789890.6,789890.3,787459.079,787467.8,787475.756,789893.958,,grey
Fixation,canvas.Screen,2_4_0_0,2022-07-11T15:17:10.607Z,,,1,A,2118.121999999974,timeout,,,791997.2000000001,791995.402,789877.281,789892,789893.958,792012.08,,black
Stimulus,canvas.Screen,2_4_0_1,2022-07-11T15:17:10.707Z,,,1,A,100.09799999999814,timeout,,,792096.6,792095.498,791995.402,791997.5,792012.08,792112.178,,black
Reaction,canvas.Screen,2_4_0_2,2022-07-11T15:17:10.949Z,,,1,A,224.62200000009034,response,stim_detected,mousedown,792338.8,792336.8,792095.498,792096.8,792112.178,792345.558,,black
Trial,flow.Sequence,2_4_0,2022-07-11T15:17:10.949Z,,,1,A,2442.8420000000624,completion,,,792339.2000000001,792336.8,789877.281,789891.8,789893.958,792345.558,,black
Frame,canvas.Frame,2_4,2022-07-11T15:17:10.950Z,,,1,A,2445.3420000000624,,,,792339.5,792339.3,789877.281,789890.9,789893.958,792345.558,,black
Fixation,canvas.Screen,2_5_0_0,2022-07-11T15:17:12.709Z,,,1,AV,1768.5929999999935,timeout,,,794098.5,794097.467,792328.882,792340.7000000001,792345.558,794114.151,,grey
Stimulus,canvas.Screen,2_5_0_1,2022-07-11T15:17:12.809Z,,,1,AV,99.42300000006799,timeout,,,794198.6,794196.896,794097.467,794098.8,794114.151,794213.574,,grey
Reaction,canvas.Screen,2_5_0_2,2022-07-11T15:17:12.953Z,,,1,AV,128.22600000002421,response,stim_detected,mousedown,794343.4,794341.8,794196.896,794198.9,794213.574,794346.895,,grey
Trial,flow.Sequence,2_5_0,2022-07-11T15:17:12.954Z,,,1,AV,1996.2420000000857,completion,,,794343.8,794341.8,792328.882,792340.6,792345.558,794346.895,,grey
Frame,canvas.Frame,2_5,2022-07-11T15:17:12.954Z,,,1,AV,1998.3420000000624,,,,794344.1,794343.9,792328.882,792339.6,792345.558,794346.895,,grey
Fixation,canvas.Screen,2_6_0_0,2022-07-11T15:17:14.961Z,,,1,A,2018.920999999973,timeout,,,796350.6,796349.131,794330.219,794345.5,794346.895,796365.816,,black
Stimulus,canvas.Screen,2_6_0_1,2022-07-11T15:17:15.060Z,,,1,A,99.08900000003632,timeout,,,796449.6,796448.229,796349.131,796351,796365.816,796464.905,,black
Reaction,canvas.Screen,2_6_0_2,2022-07-11T15:17:15.345Z,,,1,A,268.7950000000419,response,stim_detected,mousedown,796735.4,796733.7000000001,796448.229,796449.9,796464.905,796748.517,,black
Trial,flow.Sequence,2_6_0,2022-07-11T15:17:15.346Z,,,1,A,2386.805000000051,completion,,,796735.8,796733.7000000001,794330.219,794345.4,794346.895,796748.517,,black
Frame,canvas.Frame,2_6,2022-07-11T15:17:15.346Z,,,1,A,2389.1049999999814,,,,796736.2000000001,796736,794330.219,794344.4,794346.895,796748.517,,black
Fixation,canvas.Screen,2_7_0_0,2022-07-11T15:17:17.078Z,,,1,AV,1734.4150000000373,timeout,,,798467.7000000001,798466.255,796731.84,796737.5,796748.517,798482.932,,grey
Stimulus,canvas.Screen,2_7_0_1,2022-07-11T15:17:17.178Z,,,1,AV,100.0889999999199,timeout,,,798567.7000000001,798566.294,798466.255,798467.9,798482.932,798583.021,,grey
Reaction,canvas.Screen,2_7_0_2,2022-07-11T15:17:17.345Z,,,1,AV,150.579000000027,response,stim_detected,mousedown,798735.3,798733.6,798566.294,798568,798583.021,798749.791,,grey
Trial,flow.Sequence,2_7_0,2022-07-11T15:17:17.346Z,,,1,AV,1985.0829999999842,completion,,,798735.8,798733.6,796731.84,796737.4,796748.517,798749.791,,grey
Frame,canvas.Frame,2_7,2022-07-11T15:17:17.346Z,,,1,AV,1987.4830000000075,,,,798736.2000000001,798736,796731.84,796736.3,796748.517,798749.791,,grey
Fixation,canvas.Screen,2_8_0_0,2022-07-11T15:17:18.997Z,,,1,AV,1652.1049999999814,timeout,,,800387,800385.209,798733.114,798737.7000000001,798749.791,800401.896,,grey
Stimulus,canvas.Screen,2_8_0_1,2022-07-11T15:17:19.096Z,,,1,AV,98.92200000002049,timeout,,,800485.7000000001,800484.142,800385.209,800387.4,800401.896,800500.818,,grey
Reaction,canvas.Screen,2_8_0_2,2022-07-11T15:17:19.251Z,,,1,AV,137.78200000000652,response,stim_detected,mousedown,800640.6,800638.6,800484.142,800486,800500.818,800651.064,,grey
Trial,flow.Sequence,2_8_0,2022-07-11T15:17:19.251Z,,,1,AV,1888.8090000000084,completion,,,800641.1,800638.6,798733.114,798737.6,798749.791,800651.064,,grey
Frame,canvas.Frame,2_8,2022-07-11T15:17:19.252Z,,,1,AV,1891.5090000000782,,,,800641.5,800641.3,798733.114,798736.5,798749.791,800651.064,,grey
Fixation,canvas.Screen,2_9_0_0,2022-07-11T15:17:20.947Z,,,1,AV,1701.5209999999497,timeout,,,802336.9,802335.904,800634.387,800643.1,800651.064,802352.585,,grey
Stimulus,canvas.Screen,2_9_0_1,2022-07-11T15:17:21.047Z,,,1,AV,99.70100000000093,timeout,,,802437,802435.609,802335.904,802337.2000000001,802352.585,802452.286,,grey
Reaction,canvas.Screen,2_9_0_2,2022-07-11T15:17:21.167Z,,,1,AV,103.21400000003632,response,stim_detected,mousedown,802557.4,802555.5,802435.609,802437.2000000001,802452.286,802569.003,,grey
Trial,flow.Sequence,2_9_0,2022-07-11T15:17:21.168Z,,,1,AV,1904.435999999987,completion,,,802557.7000000001,802555.5,800634.387,800642.9,800651.064,802569.003,,grey
Frame,canvas.Frame,2_9,2022-07-11T15:17:21.168Z,,,1,AV,1906.8360000000102,,,,802558,802557.9,800634.387,800641.8,800651.064,802569.003,,grey
Fixation,canvas.Screen,2_10_0_0,2022-07-11T15:17:23.499Z,,,0,V,2334.939000000013,timeout,,,804889,804887.264,802552.326,802559.2000000001,802569.003,804903.942,,grey
Stimulus,canvas.Screen,2_10_0_1,2022-07-11T15:17:23.598Z,,,0,V,99.00500000000466,timeout,,,804988.1,804986.276,804887.264,804889.3,804903.942,805002.947,,grey
Reaction,canvas.Screen,2_10_0_2,2022-07-11T15:17:23.854Z,,,0,V,238.55299999995623,response,stim_detected,mousedown,805243.5,805241.5,804986.276,804988.3,805002.947,805254.052,,grey
Trial,flow.Sequence,2_10_0,2022-07-11T15:17:23.854Z,,,0,V,2672.496999999974,completion,,,805243.9,805241.5,802552.326,802559.1,802569.003,805254.052,,grey
Frame,canvas.Frame,2_10,2022-07-11T15:17:23.854Z,,,0,V,2674.996999999974,,,,805244.3,805244,802552.326,802558.2000000001,802569.003,805254.052,,grey
Fixation,canvas.Screen,2_11_0_0,2022-07-11T15:17:26.284Z,,,1,AV,2435.1909999999916,timeout,,,807674,807672.564,805237.375,805245.4,805254.052,807689.243,,grey
Stimulus,canvas.Screen,2_11_0_1,2022-07-11T15:17:26.384Z,,,1,AV,99.86399999994319,timeout,,,807774,807772.428,807672.564,807674.2000000001,807689.243,807789.107,,grey
Reaction,canvas.Screen,2_11_0_2,2022-07-11T15:17:26.706Z,,,1,AV,305.39300000004005,response,stim_detected,mousedown,808096.1,808094.5,807772.428,807774.3,807789.107,808105.94,,grey
Trial,flow.Sequence,2_11_0,2022-07-11T15:17:26.707Z,,,1,AV,2840.447999999975,completion,,,808096.5,808094.5,805237.375,805245.3,805254.052,808105.94,,grey
Frame,canvas.Frame,2_11,2022-07-11T15:17:26.707Z,,,1,AV,2842.6480000000447,,,,808096.9,808096.7000000001,805237.375,805244.4,805254.052,808105.94,,grey
Fixation,canvas.Screen,2_12_0_0,2022-07-11T15:17:28.502Z,,,1,A,1801.1230000000214,timeout,,,809892.1,809890.386,808089.263,808098.1,808105.94,809907.063,,black
Stimulus,canvas.Screen,2_12_0_1,2022-07-11T15:17:28.602Z,,,1,A,100.15500000002794,timeout,,,809992,809990.541,809890.386,809892.3,809907.063,810007.218,,black
Reaction,canvas.Screen,2_12_0_2,2022-07-11T15:17:28.818Z,,,1,A,173.1820000000298,response,stim_detected,mousedown,810207.9,810180.4,809990.541,809992.4,810007.218,810223.953,,black
Trial,flow.Sequence,2_12_0,2022-07-11T15:17:28.819Z,,,1,A,2074.460000000079,completion,,,810209.1,810180.4,808089.263,808098,808105.94,810223.953,,black
Frame,canvas.Frame,2_12,2022-07-11T15:17:28.820Z,,,1,A,2103.2600000001257,,,,810209.4,810209.2000000001,808089.263,808097,808105.94,810223.953,,black
Fixation,canvas.Screen,2_13_0_0,2022-07-11T15:17:31.154Z,,,1,A,2335.8880000000354,timeout,,,812543.9,812543.157,810207.277,810210.9,810223.953,812559.841,,black
Stimulus,canvas.Screen,2_13_0_1,2022-07-11T15:17:31.254Z,,,1,A,99.15299999993294,timeout,,,812643.5,812642.316,812543.157,812544.1,812559.841,812658.994,,black
Reaction,canvas.Screen,2_13_0_2,2022-07-11T15:17:31.406Z,,,1,A,135.40600000007544,response,stim_detected,mousedown,812796.2000000001,812794.4,812642.316,812643.7000000001,812658.994,812808.982,,black
Trial,flow.Sequence,2_13_0,2022-07-11T15:17:31.407Z,,,1,A,2570.4470000000438,completion,,,812796.6,812794.4,810207.277,810210.7000000001,810223.953,812808.982,,black
Frame,canvas.Frame,2_13,2022-07-11T15:17:31.407Z,,,1,A,2572.7470000000903,,,,812796.9,812796.7000000001,810207.277,810209.6,810223.953,812808.982,,black
Fixation,canvas.Screen,2_14_0_0,2022-07-11T15:17:33.189Z,,,1,AV,1785.2960000000894,timeout,,,814579.3,814577.594,812792.306,812798.1,812808.982,814594.278,,grey
Stimulus,canvas.Screen,2_14_0_1,2022-07-11T15:17:33.288Z,,,1,AV,99.37899999995716,timeout,,,814678.2000000001,814676.979,814577.594,814579.4,814594.278,814693.657,,grey
Reaction,canvas.Screen,2_14_0_2,2022-07-11T15:17:33.424Z,,,1,AV,118.64300000004005,response,stim_detected,mousedown,814813.9,814812.3,814676.979,814678.4,814693.657,814827.024,,grey
Trial,flow.Sequence,2_14_0,2022-07-11T15:17:33.424Z,,,1,AV,2003.3180000000866,completion,,,814814.3,814812.3,812792.306,812798.1,812808.982,814827.024,,grey
Frame,canvas.Frame,2_14,2022-07-11T15:17:33.425Z,,,1,AV,2005.51800000004,,,,814814.7000000001,814814.5,812792.306,812797.1,812808.982,814827.024,,grey
Fixation,canvas.Screen,2_15_0_0,2022-07-11T15:17:35.357Z,,,1,A,1935.5100000000093,timeout,,,816747.2000000001,816745.849,814810.347,814815.9,814827.024,816762.534,,black
Stimulus,canvas.Screen,2_15_0_1,2022-07-11T15:17:35.456Z,,,1,A,98.82600000000093,timeout,,,816846.4,816844.686,816745.849,816747.4,816762.534,816861.36,,black
Reaction,canvas.Screen,2_15_0_2,2022-07-11T15:17:35.693Z,,,1,A,219.94000000006054,response,stim_detected,mousedown,817082.9,817081.3,816844.686,816846.6,816861.36,817095.168,,black
Trial,flow.Sequence,2_15_0,2022-07-11T15:17:35.693Z,,,1,A,2254.276000000071,completion,,,817083.2000000001,817081.3,814810.347,814815.7000000001,814827.024,817095.168,,black
Frame,canvas.Frame,2_15,2022-07-11T15:17:35.694Z,,,1,A,2256.3760000000475,,,,817083.6,817083.4,814810.347,814814.9,814827.024,817095.168,,black
Fixation,canvas.Screen,2_16_0_0,2022-07-11T15:17:37.742Z,,,1,AV,2052.570000000065,timeout,,,819132.4,819131.051,817078.491,817084.8,817095.168,819147.738,,grey
Stimulus,canvas.Screen,2_16_0_1,2022-07-11T15:17:37.840Z,,,1,AV,98.3859999999404,timeout,,,819230.4,819229.45,819131.051,819132.6,819147.738,819246.124,,grey
Reaction,canvas.Screen,2_16_0_2,2022-07-11T15:17:38.056Z,,,1,AV,198.17600000009406,response,stim_detected,mousedown,819446.2000000001,819444.3,819229.45,819230.6,819246.124,819463.424,,grey
Trial,flow.Sequence,2_16_0,2022-07-11T15:17:38.057Z,,,1,AV,2349.1320000000997,completion,,,819446.7000000001,819444.3,817078.491,817084.7000000001,817095.168,819463.424,,grey
Frame,canvas.Frame,2_16,2022-07-11T15:17:38.057Z,,,1,AV,2351.6320000000997,,,,819447.1,819446.8,817078.491,817083.8,817095.168,819463.424,,grey
Fixation,canvas.Screen,2_17_0_0,2022-07-11T15:17:39.876Z,,,0,V,1817.5470000000205,timeout,,,821265.5,821264.296,819446.747,819448.1,819463.424,821280.971,,grey
Stimulus,canvas.Screen,2_17_0_1,2022-07-11T15:17:39.977Z,,,0,V,100.3969999999972,timeout,,,821366.9,821364.691,821264.296,821265.8,821280.971,821381.368,,grey
Reaction,canvas.Screen,2_17_0_2,2022-07-11T15:17:40.217Z,,,0,V,223.73199999995995,response,stim_detected,mousedown,821606.8,821605.1,821364.691,821367.2000000001,821381.368,821614.822,,grey
Trial,flow.Sequence,2_17_0,2022-07-11T15:17:40.217Z,,,0,V,2141.6759999999776,completion,,,821607.1,821605.1,819446.747,819448,819463.424,821614.822,,grey
Frame,canvas.Frame,2_17,2022-07-11T15:17:40.218Z,,,0,V,2143.776000000071,,,,821607.4,821607.2000000001,819446.747,819447.2000000001,819463.424,821614.822,,grey
Fixation,canvas.Screen,2_18_0_0,2022-07-11T15:17:41.960Z,,,1,A,1749.9929999999003,timeout,,,823349.5,823348.147,821598.145,821608.5,821614.822,823364.815,,black
Stimulus,canvas.Screen,2_18_0_1,2022-07-11T15:17:42.061Z,,,1,A,101.26400000008289,timeout,,,823450.5,823449.401,823348.147,823349.7000000001,823364.815,823466.079,,black
Reaction,canvas.Screen,2_18_0_2,2022-07-11T15:17:42.293Z,,,1,A,215.0209999999497,response,stim_detected,mousedown,823682.7000000001,823681.1,823449.401,823450.7000000001,823466.079,823699.494,,black
Trial,flow.Sequence,2_18_0,2022-07-11T15:17:42.293Z,,,1,A,2066.277999999933,completion,,,823683.1,823681.1,821598.145,821608.4,821614.822,823699.494,,black
Frame,canvas.Frame,2_18,2022-07-11T15:17:42.294Z,,,1,A,2068.478000000003,,,,823683.5,823683.3,821598.145,821607.7000000001,821614.822,823699.494,,black
Fixation,canvas.Screen,2_19_0_0,2022-07-11T15:17:44.331Z,,,1,A,2036.1900000000605,timeout,,,825720.6,825718.994,823682.817,823684.9,823699.494,825735.684,,black
Stimulus,canvas.Screen,2_19_0_1,2022-07-11T15:17:44.429Z,,,1,A,98.38800000003539,timeout,,,825818.6,825817.396,825718.994,825720.8,825735.684,825834.072,,black
Reaction,canvas.Screen,2_19_0_2,2022-07-11T15:17:44.567Z,,,1,A,121.02799999993294,response,stim_detected,mousedown,825957,825955.1,825817.396,825818.9,825834.072,825967.679,,black
Trial,flow.Sequence,2_19_0,2022-07-11T15:17:44.567Z,,,1,A,2255.606000000029,completion,,,825957.3,825955.1,823682.817,823684.9,823699.494,825967.679,,black
Frame,canvas.Frame,2_19,2022-07-11T15:17:44.568Z,,,1,A,2257.9060000000754,,,,825957.7000000001,825957.4,823682.817,823683.6,823699.494,825967.679,,black
Fixation,canvas.Screen,2_20_0_0,2022-07-11T15:17:46.713Z,,,1,AV,2150.082999999984,timeout,,,828102.7000000001,828101.094,825951.002,825958.8,825967.679,828117.762,,grey
Stimulus,canvas.Screen,2_20_0_1,2022-07-11T15:17:46.814Z,,,1,AV,101.32299999997485,timeout,,,828203.7000000001,828202.408,828101.094,828102.9,828117.762,828219.085,,grey
Reaction,canvas.Screen,2_20_0_2,2022-07-11T15:17:46.956Z,,,1,AV,124.91500000003725,response,stim_detected,mousedown,828345.7000000001,828344,828202.408,828204,828219.085,828352.572,,grey
Trial,flow.Sequence,2_20_0,2022-07-11T15:17:46.956Z,,,1,AV,2376.3209999999963,completion,,,828346.3,828344,825951.002,825958.7000000001,825967.679,828352.572,,grey
Frame,canvas.Frame,2_20,2022-07-11T15:17:46.957Z,,,1,AV,2378.7210000000196,,,,828346.6,828346.4,825951.002,825957.9,825967.679,828352.572,,grey
Fixation,canvas.Screen,2_21_0_0,2022-07-11T15:17:49.249Z,,,0,V,2301.5810000000056,timeout,,,830638.7000000001,830637.475,828335.895,828347.7000000001,828352.572,830654.153,,grey
Stimulus,canvas.Screen,2_21_0_1,2022-07-11T15:17:49.349Z,,,0,V,100.03499999991618,timeout,,,830739.1,830737.51,830637.475,830638.9,830654.153,830754.188,,grey
Reaction,canvas.Screen,2_21_0_2,2022-07-11T15:17:49.364Z,,,0,V,15.39000000001397,response,stim_detected,mousedown,830754.3,830752.9,830737.51,830739.3,,830770.866,,grey
Trial,flow.Sequence,2_21_0,2022-07-11T15:17:49.365Z,,,0,V,2400.3279999999795,completion,,,830754.6,830752.9,828335.895,828347.6,828352.572,830770.866,,grey
Frame,canvas.Frame,2_21,2022-07-11T15:17:49.366Z,,,0,V,2402.228000000003,,,,830755.5,830754.8,828335.895,828346.8,828352.572,830770.866,,grey
Fixation,canvas.Screen,2_22_0_0,2022-07-11T15:17:51.783Z,,,1,AV,2417.667000000016,timeout,,,833172.9,833171.859,830754.188,830756.7000000001,830770.866,833188.533,,grey
Stimulus,canvas.Screen,2_22_0_1,2022-07-11T15:17:51.884Z,,,1,AV,100.68999999994412,timeout,,,833273.8,833272.535,833171.859,833173.2000000001,833188.533,833289.223,,grey
Reaction,canvas.Screen,2_22_0_2,2022-07-11T15:17:52.044Z,,,1,AV,142.67700000002515,response,stim_detected,mousedown,833433.6,833431.9,833272.535,833274.2000000001,833289.223,833439.204,,grey
Trial,flow.Sequence,2_22_0,2022-07-11T15:17:52.044Z,,,1,AV,2661.033999999985,completion,,,833434,833431.9,830754.188,830756.6,830770.866,833439.204,,grey
Frame,canvas.Frame,2_22,2022-07-11T15:17:52.044Z,,,1,AV,2663.2339999999385,,,,833434.3,833434.1,830754.188,830755.7000000001,830770.866,833439.204,,grey
Fixation,canvas.Screen,2_23_0_0,2022-07-11T15:17:54.002Z,,,1,A,1968.6840000000084,timeout,,,835392,835391.205,833422.527,833435.5,833439.204,835407.888,,black
Stimulus,canvas.Screen,2_23_0_1,2022-07-11T15:17:54.102Z,,,1,A,99.39500000001863,timeout,,,835491.9,835490.606,835391.205,835392.2000000001,835407.888,835507.283,,black
Reaction,canvas.Screen,2_23_0_2,2022-07-11T15:17:54.278Z,,,1,A,159.51699999999255,response,stim_detected,mousedown,835668.3,835666.8,835490.606,835492.2000000001,835507.283,835674.035,,black
Trial,flow.Sequence,2_23_0,2022-07-11T15:17:54.279Z,,,1,A,2227.5960000000196,completion,,,835668.8,835666.8,833422.527,833435.4,833439.204,835674.035,,black
Frame,canvas.Frame,2_23,2022-07-11T15:17:54.279Z,,,1,A,2229.6959999999963,,,,835669.1,835668.9,833422.527,833434.5,833439.204,835674.035,,black
Fixation,canvas.Screen,2_24_0_0,2022-07-11T15:17:56.739Z,,,0,V,2469.2559999999357,timeout,,,838128.3,838126.607,835657.358,835670.6,835674.035,838143.291,,grey
Stimulus,canvas.Screen,2_24_0_1,2022-07-11T15:17:56.839Z,,,0,V,99.00800000003073,timeout,,,838227.4,838225.623,838126.607,838128.5,838143.291,838242.299,,grey
Reaction,canvas.Screen,2_24_0_2,2022-07-11T15:17:56.992Z,,,0,V,137.5010000000475,response,stim_detected,mousedown,838381.4,838379.8,838225.623,838227.7000000001,838242.299,838392.487,,grey
Trial,flow.Sequence,2_24_0,2022-07-11T15:17:56.993Z,,,0,V,2705.765000000014,completion,,,838381.8,838379.8,835657.358,835670.4,835674.035,838392.487,,grey
Frame,canvas.Frame,2_24,2022-07-11T15:17:56.993Z,,,0,V,2707.9649999999674,,,,838382.1,838382,835657.358,835669.4,835674.035,838392.487,,grey
Fixation,canvas.Screen,2_25_0_0,2022-07-11T15:17:59.124Z,,,1,AV,2136.05700000003,timeout,,,840513.1,840511.857,838375.81,838383.4,838392.487,840528.544,,grey
Stimulus,canvas.Screen,2_25_0_1,2022-07-11T15:17:59.222Z,,,1,AV,97.85900000005495,timeout,,,840610.8,840609.732,840511.857,840513.3,840528.544,840626.403,,grey
Reaction,canvas.Screen,2_25_0_2,2022-07-11T15:17:59.338Z,,,1,AV,99.3969999999972,response,stim_detected,mousedown,840727.4,840725.8,840609.732,840610.9,840626.403,840744.052,,grey
Trial,flow.Sequence,2_25_0,2022-07-11T15:17:59.339Z,,,1,AV,2333.313000000082,completion,,,840727.8,840725.8,838375.81,838383.2000000001,838392.487,840744.052,,grey
Frame,canvas.Frame,2_25,2022-07-11T15:17:59.339Z,,,1,AV,2335.4130000000587,,,,840728.1,840727.9,838375.81,838382.4,838392.487,840744.052,,grey
Fixation,canvas.Screen,2_26_0_0,2022-07-11T15:18:01.424Z,,,1,A,2084.2219999999506,timeout,,,842813.3,842811.6,840727.375,840729.2000000001,840744.052,842828.274,,black
Stimulus,canvas.Screen,2_26_0_1,2022-07-11T15:18:01.524Z,,,1,A,99.9670000000624,timeout,,,842913.2000000001,842911.568,842811.6,842813.5,842828.274,842928.241,,black
Reaction,canvas.Screen,2_26_0_2,2022-07-11T15:18:01.644Z,,,1,A,103.45900000003166,response,stim_detected,mousedown,843033.3,843031.7000000001,842911.568,842913.5,842928.241,843062.211,,black
Trial,flow.Sequence,2_26_0,2022-07-11T15:18:01.645Z,,,1,A,2287.6480000000447,completion,,,843033.7000000001,843031.7000000001,840727.375,840729.2000000001,840744.052,843062.211,,black
Frame,canvas.Frame,2_26,2022-07-11T15:18:01.645Z,,,1,A,2289.7480000000214,,,,843034,843033.8,840727.375,840728.3,840744.052,843062.211,,black
Fixation,canvas.Screen,2_27_0_0,2022-07-11T15:18:03.927Z,,,0,V,2268.3580000000075,timeout,,,845315.6,845313.89,843028.857,843035.3,843062.211,845330.569,,grey
Stimulus,canvas.Screen,2_27_0_1,2022-07-11T15:18:04.026Z,,,0,V,99.34399999992456,timeout,,,845414.5,845413.239,845313.89,845315.9,845330.569,845429.913,,grey
Reaction,canvas.Screen,2_27_0_2,2022-07-11T15:18:04.224Z,,,0,V,181.58700000005774,response,stim_detected,mousedown,845613.1,845611.5,845413.239,845414.7000000001,845429.913,845630.541,,grey
Trial,flow.Sequence,2_27_0,2022-07-11T15:18:04.225Z,,,0,V,2549.2889999999898,completion,,,845613.6,845611.5,843028.857,843035.1,843062.211,845630.541,,grey
Frame,canvas.Frame,2_27,2022-07-11T15:18:04.225Z,,,0,V,2551.4890000000596,,,,845614,845613.7000000001,843028.857,843034.2000000001,843062.211,845630.541,,grey
Fixation,canvas.Screen,2_28_0_0,2022-07-11T15:18:06.028Z,,,1,A,1802.2310000000289,timeout,,,847417.4,847416.085,845613.864,845615.2000000001,845630.541,847432.772,,black
Stimulus,canvas.Screen,2_28_0_1,2022-07-11T15:18:06.126Z,,,1,A,98.49399999994785,timeout,,,847515.4,847514.593,847416.085,847417.6,847432.772,847531.266,,black
Reaction,canvas.Screen,2_28_0_2,2022-07-11T15:18:06.250Z,,,1,A,105.63400000007823,response,stim_detected,mousedown,847638.8,847636.9,847514.593,847515.6,847531.266,847648.541,,black
Trial,flow.Sequence,2_28_0,2022-07-11T15:18:06.250Z,,,1,A,2006.359000000055,completion,,,847639.2000000001,847636.9,845613.864,845615,845630.541,847648.541,,black
Frame,canvas.Frame,2_28,2022-07-11T15:18:06.251Z,,,1,A,2008.859000000055,,,,847639.6,847639.4,845613.864,845614.1,845630.541,847648.541,,black
Fixation,canvas.Screen,2_29_0_0,2022-07-11T15:18:07.879Z,,,0,V,1635.451000000001,timeout,,,849268.3,849267.304,847631.864,847640.5,847648.541,849283.992,,grey
Stimulus,canvas.Screen,2_29_0_1,2022-07-11T15:18:07.978Z,,,0,V,98.51600000006147,timeout,,,849367.4,849365.836,849267.304,849268.6,849283.992,849382.508,,grey
Reaction,canvas.Screen,2_29_0_2,2022-07-11T15:18:08.297Z,,,0,V,301.091999999946,response,stim_detected,mousedown,849685.5,849683.6,849365.836,849367.7000000001,849382.508,849699.9,,grey
Trial,flow.Sequence,2_29_0,2022-07-11T15:18:08.297Z,,,0,V,2035.0590000000084,completion,,,849685.9,849683.6,847631.864,847640.4,847648.541,849699.9,,grey
Frame,canvas.Frame,2_29,2022-07-11T15:18:08.297Z,,,0,V,2037.5590000000084,,,,849686.2000000001,849686.1,847631.864,847639.8,847648.541,849699.9,,grey
Fixation,canvas.Screen,2_30_0_0,2022-07-11T15:18:10.614Z,,,1,AV,2318.277000000002,timeout,,,852002.5,852001.499,849683.223,849687.3,849699.9,852018.177,,grey
Stimulus,canvas.Screen,2_30_0_1,2022-07-11T15:18:10.714Z,,,1,AV,99.94799999997485,timeout,,,852102.5,852101.448,852001.499,852002.7000000001,852018.177,852118.125,,grey
Reaction,canvas.Screen,2_30_0_2,2022-07-11T15:18:10.836Z,,,1,AV,105.47499999997672,response,stim_detected,mousedown,852225.5,852223.6,852101.448,852102.7000000001,852118.125,852234.921,,grey
Trial,flow.Sequence,2_30_0,2022-07-11T15:18:10.837Z,,,1,AV,2523.6999999999534,completion,,,852225.9,852223.6,849683.223,849687.3,849699.9,852234.921,,grey
Frame,canvas.Frame,2_30,2022-07-11T15:18:10.837Z,,,1,AV,2526.0999999999767,,,,852226.2000000001,852226,849683.223,849686.5,849699.9,852234.921,,grey
Fixation,canvas.Screen,2_31_0_0,2022-07-11T15:18:13.315Z,,,1,A,2483.9220000000205,timeout,,,854703.7000000001,854702.172,852218.244,852227.3,852234.921,854718.843,,black
Stimulus,canvas.Screen,2_31_0_1,2022-07-11T15:18:13.415Z,,,1,A,100.67500000004657,timeout,,,854803.8,854802.843,854702.172,854704,854718.843,854819.518,,black
Reaction,canvas.Screen,2_31_0_2,2022-07-11T15:18:13.637Z,,,1,A,204.88199999998324,response,stim_detected,mousedown,855026.1,855024.4,854802.843,854804,854819.518,855036.713,,black
Trial,flow.Sequence,2_31_0,2022-07-11T15:18:13.638Z,,,1,A,2789.4790000000503,completion,,,855026.5,855024.4,852218.244,852227.2000000001,852234.921,855036.713,,black
Frame,canvas.Frame,2_31,2022-07-11T15:18:13.638Z,,,1,A,2791.779000000097,,,,855026.8,855026.7000000001,852218.244,852226.4,852234.921,855036.713,,black
Fixation,canvas.Screen,2_32_0_0,2022-07-11T15:18:15.902Z,,,1,AV,2269.8059999999823,timeout,,,857290.9,857289.83,855020.036,855028.2000000001,855036.713,857306.519,,grey
Stimulus,canvas.Screen,2_32_0_1,2022-07-11T15:18:16.000Z,,,1,AV,98.07600000000093,timeout,,,857388.5,857387.92,857289.83,857291.1,857306.519,857404.595,,grey
Reaction,canvas.Screen,2_32_0_2,2022-07-11T15:18:16.177Z,,,1,AV,158.7050000000745,response,stim_detected,mousedown,857565.5,857563.3,857387.92,857388.7000000001,857404.595,857588.425,,grey
Trial,flow.Sequence,2_32_0,2022-07-11T15:18:16.177Z,,,1,AV,2526.5870000000577,completion,,,857565.9,857563.3,855020.036,855028.1,855036.713,857588.425,,grey
Frame,canvas.Frame,2_32,2022-07-11T15:18:16.177Z,,,1,AV,2529.287000000011,,,,857566.2000000001,857566,855020.036,855027,855036.713,857588.425,,grey
Fixation,canvas.Screen,2_33_0_0,2022-07-11T15:18:18.252Z,,,1,AV,2068.198999999906,timeout,,,859640.8,859639.945,857555.071,857567.4,857588.425,859656.624,,grey
Stimulus,canvas.Screen,2_33_0_1,2022-07-11T15:18:18.351Z,,,1,AV,99.2730000000447,timeout,,,859740.3,859739.224,859639.945,859641.2000000001,859656.624,859755.897,,grey
Reaction,canvas.Screen,2_33_0_2,2022-07-11T15:18:18.458Z,,,1,AV,89.40300000004936,response,stim_detected,mousedown,859847,859845.3,859739.224,859740.5,859755.897,859856.58,,grey
Trial,flow.Sequence,2_33_0,2022-07-11T15:18:18.458Z,,,1,AV,2256.875,completion,,,859847.4,859845.3,857555.071,857567.3,857588.425,859856.58,,grey
Frame,canvas.Frame,2_33,2022-07-11T15:18:18.459Z,,,1,AV,2259.0749999999534,,,,859847.7000000001,859847.5,857555.071,857566.4,857588.425,859856.58,,grey
Fixation,canvas.Screen,2_34_0_0,2022-07-11T15:18:20.252Z,,,0,V,1800.1870000000345,timeout,,,861640.8,861640.098,859839.903,859849,859856.58,861656.767,,grey
Stimulus,canvas.Screen,2_34_0_1,2022-07-11T15:18:20.354Z,,,0,V,101.10800000000745,timeout,,,861742.9,861741.193,861640.098,861641.1,861656.767,861757.875,,grey
Reaction,canvas.Screen,2_34_0_2,2022-07-11T15:18:20.544Z,,,0,V,173.52500000002328,response,stim_detected,mousedown,861932.8,861931.4,861741.193,861743.1,861757.875,861941.264,,grey
Trial,flow.Sequence,2_34_0,2022-07-11T15:18:20.544Z,,,0,V,2074.820000000065,completion,,,861933.3,861931.4,859839.903,859848.9,859856.58,861941.264,,grey
Frame,canvas.Frame,2_34,2022-07-11T15:18:20.545Z,,,0,V,2076.820000000065,,,,861933.6,861933.4,859839.903,859847.9,859856.58,861941.264,,grey
Fixation,canvas.Screen,2_35_0_0,2022-07-11T15:18:22.988Z,,,0,V,2451.530000000028,timeout,,,864376.9,864376.117,861924.587,861934.6,861941.264,864392.794,,grey
Stimulus,canvas.Screen,2_35_0_1,2022-07-11T15:18:23.089Z,,,0,V,100.19200000003912,timeout,,,864478,864476.307,864376.117,864377.2000000001,864392.794,864492.986,,grey
Reaction,canvas.Screen,2_35_0_2,2022-07-11T15:18:23.263Z,,,0,V,158.21400000003632,response,stim_detected,mousedown,864652.4,864651.2000000001,864476.307,864478.3,864492.986,864659.737,,grey
Trial,flow.Sequence,2_35_0,2022-07-11T15:18:23.264Z,,,0,V,2709.9360000001034,completion,,,864652.7000000001,864651.2000000001,861924.587,861934.5,861941.264,864659.737,,grey
Frame,canvas.Frame,2_35,2022-07-11T15:18:23.264Z,,,0,V,2711.53600000008,,,,864653,864652.8,861924.587,861933.8,861941.264,864659.737,,grey
Fixation,canvas.Screen,2_36_0_0,2022-07-11T15:18:25.474Z,,,1,A,2218.3460000000196,timeout,,,866863,866861.404,864643.06,864653.8,864659.737,866878.083,,black
Stimulus,canvas.Screen,2_36_0_1,2022-07-11T15:18:25.573Z,,,1,A,99.85800000000745,timeout,,,866962.1,866961.182,866861.404,866863.3,866878.083,866977.941,,black
Reaction,canvas.Screen,2_36_0_2,2022-07-11T15:18:25.710Z,,,1,A,119.25900000007823,response,stim_detected,mousedown,867098.8,867097.2000000001,866961.182,866962.4,866977.941,867111.357,,black
Trial,flow.Sequence,2_36_0,2022-07-11T15:18:25.710Z,,,1,A,2437.4630000001052,completion,,,867099.2000000001,867097.2000000001,864643.06,864653.7000000001,864659.737,867111.357,,black
Frame,canvas.Frame,2_36,2022-07-11T15:18:25.711Z,,,1,A,2439.563000000082,,,,867099.5,867099.3,864643.06,864653.1,864659.737,867111.357,,black
Fixation,canvas.Screen,2_37_0_0,2022-07-11T15:18:27.490Z,,,0,V,1783.3810000000522,timeout,,,868879.1,868878.07,867094.68,867100.6,867111.357,868894.738,,grey
Stimulus,canvas.Screen,2_37_0_1,2022-07-11T15:18:27.592Z,,,0,V,101.33400000003166,timeout,,,868981.1,868979.393,868878.07,868879.3,868894.738,868996.072,,grey
Reaction,canvas.Screen,2_37_0_2,2022-07-11T15:18:27.827Z,,,0,V,218.02799999993294,response,stim_detected,mousedown,869215.8,869214.1,868979.393,868981.4,868996.072,869229.391,,grey
Trial,flow.Sequence,2_37_0,2022-07-11T15:18:27.827Z,,,0,V,2102.7430000000168,completion,,,869216.3,869214.1,867094.68,867100.5,867111.357,869229.391,,grey
Frame,canvas.Frame,2_37,2022-07-11T15:18:27.828Z,,,0,V,2105.0430000000633,,,,869216.6,869216.4,867094.68,867099.7000000001,867111.357,869229.391,,grey
Fixation,canvas.Screen,2_38_0_0,2022-07-11T15:18:30.294Z,,,1,A,2468.9770000000717,timeout,,,871683.1,871681.686,869212.714,869217.8,869229.391,871698.368,,black
Stimulus,canvas.Screen,2_38_0_1,2022-07-11T15:18:30.393Z,,,1,A,98.85499999998137,timeout,,,871781.8,871780.549,871681.686,871683.4,871698.368,871797.223,,black
Reaction,canvas.Screen,2_38_0_2,2022-07-11T15:18:30.531Z,,,1,A,120.87699999997858,response,stim_detected,mousedown,871919.8,871918.1,871780.549,871781.9,871797.223,871931.155,,black
Trial,flow.Sequence,2_38_0,2022-07-11T15:18:30.531Z,,,1,A,2688.7090000000317,completion,,,871920.3,871918.1,869212.714,869217.6,869229.391,871931.155,,black
Frame,canvas.Frame,2_38,2022-07-11T15:18:30.532Z,,,1,A,2691.0090000000782,,,,871920.6,871920.4,869212.714,869216.7000000001,869229.391,871931.155,,black
Fixation,canvas.Screen,2_39_0_0,2022-07-11T15:18:33.013Z,,,1,A,2485.3649999999907,timeout,,,874401.6,874399.84,871914.478,871921.7000000001,871931.155,874416.52,,black
Stimulus,canvas.Screen,2_39_0_1,2022-07-11T15:18:33.113Z,,,1,A,99.76000000000931,timeout,,,874501.5,874499.602,874399.84,874401.9,874416.52,874516.28,,black
Reaction,canvas.Screen,2_39_0_2,2022-07-11T15:18:33.313Z,,,1,A,183.71999999997206,response,stim_detected,mousedown,874701.8,874700,874499.602,874501.9,874516.28,874716.335,,black
Trial,flow.Sequence,2_39_0,2022-07-11T15:18:33.313Z,,,1,A,2768.844999999972,completion,,,874702.1,874700,871914.478,871921.7000000001,871931.155,874716.335,,black
Frame,canvas.Frame,2_39,2022-07-11T15:18:33.313Z,,,1,A,2771.045000000042,,,,874702.4,874702.2000000001,871914.478,871920.8,871931.155,874716.335,,black
Fixation,canvas.Screen,2_40_0_0,2022-07-11T15:18:35.046Z,,,1,AV,1734.3969999999972,timeout,,,876435.3,876434.055,874699.658,874703.7000000001,874716.335,876450.732,,grey
Stimulus,canvas.Screen,2_40_0_1,2022-07-11T15:18:35.146Z,,,1,AV,99.95799999998417,timeout,,,876535.5,876534.014,876434.055,876435.5,876450.732,876550.69,,grey
Reaction,canvas.Screen,2_40_0_2,2022-07-11T15:18:35.322Z,,,1,AV,158.31000000005588,response,stim_detected,mousedown,876710.6,876709,876534.014,876535.7000000001,876550.69,876717.642,,grey
Trial,flow.Sequence,2_40_0,2022-07-11T15:18:35.322Z,,,1,AV,1992.6650000000373,completion,,,876711,876709,874699.658,874703.6,874716.335,876717.642,,grey
Frame,canvas.Frame,2_40,2022-07-11T15:18:35.322Z,,,1,AV,1994.6650000000373,,,,876711.3,876711,874699.658,874702.6,874716.335,876717.642,,grey
Fixation,canvas.Screen,2_41_0_0,2022-07-11T15:18:37.499Z,,,1,A,2185.3919999999925,timeout,,,878887.5,878886.352,876700.965,876712.2000000001,876717.642,878903.034,,black
Stimulus,canvas.Screen,2_41_0_1,2022-07-11T15:18:37.598Z,,,1,A,99.45700000005309,timeout,,,878986.5,878985.473,878886.352,878887.8,878903.034,879002.491,,black
Reaction,canvas.Screen,2_41_0_2,2022-07-11T15:18:39.099Z,,,1,A,1500.9299999999348,timeout,,,880487.4,880486.744,878985.473,878987,879002.491,880503.421,,black
Trial,flow.Sequence,2_41_0,2022-07-11T15:18:39.099Z,,,1,A,3769.1019999999553,completion,,,880487.8,880486.744,876700.965,876712.2000000001,876717.642,880503.421,,black
Frame,canvas.Frame,2_41,2022-07-11T15:18:39.099Z,,,1,A,3770.3580000000075,,,,880488.2000000001,880488,876700.965,876711.4,876717.642,880520.098,,black
Fixation,canvas.Screen,2_42_0_0,2022-07-11T15:18:41.234Z,,,1,A,2117.863000000012,timeout,,,882622.6,882621.285,880503.421,880489.1,880520.098,882637.961,,black
Stimulus,canvas.Screen,2_42_0_1,2022-07-11T15:18:41.334Z,,,1,A,99.79500000004191,timeout,,,882722.6,882721.082,882621.285,882622.8,882637.961,882737.756,,black
Reaction,canvas.Screen,2_42_0_2,2022-07-11T15:18:41.507Z,,,1,A,155.14399999997113,response,stim_detected,mousedown,882895.6,882892.9,882721.082,882723,882737.756,882905.019,,black
Trial,flow.Sequence,2_42_0,2022-07-11T15:18:41.507Z,,,1,A,2372.802000000025,completion,,,882896,882892.9,880503.421,880489,880520.098,882905.019,,black
Frame,canvas.Frame,2_42,2022-07-11T15:18:41.507Z,,,1,A,2376.0019999999786,,,,882896.3,882896.1,880503.421,880488.4,880520.098,882905.019,,black
Fixation,canvas.Screen,2_43_0_0,2022-07-11T15:18:43.419Z,,,1,A,1917.8660000000382,timeout,,,884807.7000000001,884806.208,882888.342,882897.5,882905.019,884822.885,,black
Stimulus,canvas.Screen,2_43_0_1,2022-07-11T15:18:43.519Z,,,1,A,99.97999999998137,timeout,,,884907.6,884906.189,884806.208,884808.1,884822.885,884922.865,,black
Reaction,canvas.Screen,2_43_0_2,2022-07-11T15:18:43.691Z,,,1,A,155.83500000007916,response,stim_detected,mousedown,885080.3,885078.7000000001,884906.189,884907.9,884922.865,885089.802,,black
Trial,flow.Sequence,2_43_0,2022-07-11T15:18:43.692Z,,,1,A,2173.6810000000987,completion,,,885080.7000000001,885078.7000000001,882888.342,882897.3,882905.019,885089.802,,black
Frame,canvas.Frame,2_43,2022-07-11T15:18:43.692Z,,,1,A,2175.881000000052,,,,885081.1,885080.9,882888.342,882896.5,882905.019,885089.802,,black
Fixation,canvas.Screen,2_44_0_0,2022-07-11T15:18:45.738Z,,,0,V,2051.9379999999655,timeout,,,887126.8,887125.058,885073.125,885082.3,885089.802,887141.74,,grey
Stimulus,canvas.Screen,2_44_0_1,2022-07-11T15:18:45.837Z,,,0,V,99.3969999999972,timeout,,,887225.7000000001,887224.461,887125.058,887127,887141.74,887241.137,,grey
Reaction,canvas.Screen,2_44_0_2,2022-07-11T15:18:46.156Z,,,0,V,302.56300000008196,response,stim_detected,mousedown,887545.4,887543.7000000001,887224.461,887226,887241.137,887558.079,,grey
Trial,flow.Sequence,2_44_0,2022-07-11T15:18:46.157Z,,,0,V,2453.8980000000447,completion,,,887545.8,887543.7000000001,885073.125,885082.1,885089.802,887558.079,,grey
Frame,canvas.Frame,2_44,2022-07-11T15:18:46.157Z,,,0,V,2456.197999999975,,,,887546.2000000001,887546,885073.125,885081.3,885089.802,887558.079,,grey
Fixation,canvas.Screen,2_45_0_0,2022-07-11T15:18:48.623Z,,,1,A,2468.878999999957,timeout,,,890011.8,890010.277,887541.402,887547.4,887558.079,890026.958,,black
Stimulus,canvas.Screen,2_45_0_1,2022-07-11T15:18:48.722Z,,,1,A,99.2280000000028,timeout,,,890110.8,890109.51,890010.277,890012,890026.958,890126.186,,black
Reaction,canvas.Screen,2_45_0_2,2022-07-11T15:18:48.952Z,,,1,A,213.5140000000829,response,stim_detected,mousedown,890341.3,890339.7000000001,890109.51,890111.1,890126.186,890343.253,,black
Trial,flow.Sequence,2_45_0,2022-07-11T15:18:48.953Z,,,1,A,2781.621000000043,completion,,,890341.7000000001,890339.7000000001,887541.402,887547.3,887558.079,890343.253,,black
Frame,canvas.Frame,2_45,2022-07-11T15:18:48.953Z,,,1,A,2783.7210000000196,,,,890342,890341.8,887541.402,887546.4,887558.079,890343.253,,black
Fixation,canvas.Screen,2_46_0_0,2022-07-11T15:18:50.923Z,,,0,V,1984.292999999947,timeout,,,892311.9,892310.871,890326.576,890343.3,890343.253,892327.546,,grey
Stimulus,canvas.Screen,2_46_0_1,2022-07-11T15:18:51.024Z,,,0,V,100.47200000006706,timeout,,,892412.9,892411.34,892310.871,892312.2000000001,892327.546,892428.018,,grey
Reaction,canvas.Screen,2_46_0_2,2022-07-11T15:18:51.232Z,,,0,V,191.6820000000298,response,stim_detected,mousedown,892621.2000000001,892619.7000000001,892411.34,892413.1,892428.018,892644.754,,grey
Trial,flow.Sequence,2_46_0,2022-07-11T15:18:51.233Z,,,0,V,2276.4470000000438,completion,,,892621.5,892619.7000000001,890326.576,890343.1,890343.253,892644.754,,grey
Frame,canvas.Frame,2_46,2022-07-11T15:18:51.233Z,,,0,V,2278.4470000000438,,,,892621.9,892621.7000000001,890326.576,890342.3,890343.253,892644.754,,grey
Fixation,canvas.Screen,2_47_0_0,2022-07-11T15:18:53.409Z,,,0,V,2168.5830000001006,timeout,,,894798.3,894796.656,892611.4,892623,892644.754,894813.337,,grey
Stimulus,canvas.Screen,2_47_0_1,2022-07-11T15:18:53.508Z,,,0,V,99.5889999999199,timeout,,,894897.1,894896.143,894796.656,894798.6,894813.337,894912.926,,grey
Reaction,canvas.Screen,2_47_0_2,2022-07-11T15:18:53.700Z,,,0,V,174.67399999999907,response,stim_detected,mousedown,895089.3,895087.6,894896.143,894897.4,894912.926,895096.373,,grey
Trial,flow.Sequence,2_47_0,2022-07-11T15:18:53.701Z,,,0,V,2442.8460000000196,completion,,,895089.6,895087.6,892611.4,892623,892644.754,895096.373,,grey
Frame,canvas.Frame,2_47,2022-07-11T15:18:53.701Z,,,0,V,2444.9460000001127,,,,895090,895089.7000000001,892611.4,892622.1,892644.754,895096.373,,grey
Fixation,canvas.Screen,2_48_0_0,2022-07-11T15:18:55.260Z,,,1,A,1567.8349999999627,timeout,,,896649.1,896647.529,895079.696,895091.1,895096.373,896664.208,,black
Stimulus,canvas.Screen,2_48_0_1,2022-07-11T15:18:55.359Z,,,1,A,99.91700000001583,timeout,,,896748.2000000001,896747.305,896647.529,896649.3,896664.208,896764.125,,black
Reaction,canvas.Screen,2_48_0_2,2022-07-11T15:18:55.590Z,,,1,A,213.47499999997672,response,stim_detected,mousedown,896979.2000000001,896977.6,896747.305,896748.4,896764.125,896980.926,,black
Trial,flow.Sequence,2_48_0,2022-07-11T15:18:55.591Z,,,1,A,1881.2269999999553,completion,,,896979.5,896977.6,895079.696,895091,895096.373,896980.926,,black
Frame,canvas.Frame,2_48,2022-07-11T15:18:55.591Z,,,1,A,1883.2269999999553,,,,896979.9,896979.6,895079.696,895090.1,895096.373,896980.926,,black
Fixation,canvas.Screen,2_49_0_0,2022-07-11T15:18:57.831Z,,,1,AV,2252.280000000028,timeout,,,899218.3,899216.523,896964.249,896980.9,896980.926,899233.206,,grey
Stimulus,canvas.Screen,2_49_0_1,2022-07-11T15:18:57.930Z,,,1,AV,99.18700000003446,timeout,,,899317.6,899315.717,899216.523,899218.6,899233.206,899332.393,,grey
Reaction,canvas.Screen,2_49_0_2,2022-07-11T15:18:58.170Z,,,1,AV,223.10699999995995,response,stim_detected,mousedown,899557.3,899555.5,899315.717,899317.9,899332.393,899565.913,,grey
Trial,flow.Sequence,2_49_0,2022-07-11T15:18:58.170Z,,,1,AV,2574.5740000000224,completion,,,899557.7000000001,899555.5,896964.249,896980.9,896980.926,899565.913,,grey
Frame,canvas.Frame,2_49,2022-07-11T15:18:58.170Z,,,1,AV,2576.874000000069,,,,899558,899557.8,896964.249,896980,896980.926,899565.913,,grey
Fixation,canvas.Screen,2_50_0_0,2022-07-11T15:18:59.699Z,,,1,A,1535.7200000000885,timeout,,,901086.2000000001,901084.943,899549.237,899559.1,899565.913,901101.633,,black
Stimulus,canvas.Screen,2_50_0_1,2022-07-11T15:18:59.798Z,,,1,A,98.68599999998696,timeout,,,901185.2000000001,901183.643,901084.943,901086.5,901101.633,901200.319,,black
Reaction,canvas.Screen,2_50_0_2,2022-07-11T15:19:00.044Z,,,1,A,230.0810000000056,response,stim_detected,mousedown,901432.1,901430.4,901183.643,901185.4,901200.319,901450.541,,black
Trial,flow.Sequence,2_50_0,2022-07-11T15:19:00.045Z,,,1,A,1864.487000000081,completion,,,901432.4,901430.4,899549.237,899558.9,899565.913,901450.541,,black
Frame,canvas.Frame,2_50,2022-07-11T15:19:00.045Z,,,1,A,1866.6870000000345,,,,901432.8,901432.6,899549.237,899558.2000000001,899565.913,901450.541,,black
Fixation,canvas.Screen,2_51_0_0,2022-07-11T15:19:02.115Z,,,0,V,2068.0920000000624,timeout,,,903502.9,903501.955,901417.187,901433.9,901450.541,903518.633,,grey
Stimulus,canvas.Screen,2_51_0_1,2022-07-11T15:19:02.214Z,,,0,V,99.53799999994226,timeout,,,903601.9,903601.497,903501.955,903503.1,903518.633,903618.171,,grey
Reaction,canvas.Screen,2_51_0_2,2022-07-11T15:19:02.400Z,,,0,V,167.02900000009686,response,stim_detected,mousedown,903787.1,903785.2000000001,903601.497,903602,903618.171,903802.03,,grey
Trial,flow.Sequence,2_51_0,2022-07-11T15:19:02.400Z,,,0,V,2334.6590000001015,completion,,,903787.6,903785.2000000001,901417.187,901433.9,901450.541,903802.03,,grey
Frame,canvas.Frame,2_51,2022-07-11T15:19:02.400Z,,,0,V,2337.1590000001015,,,,903787.9,903787.7000000001,901417.187,901433,901450.541,903802.03,,grey
Fixation,canvas.Screen,2_52_0_0,2022-07-11T15:19:04.018Z,,,1,A,1619.0470000000205,timeout,,,905405.5,905404.386,903785.353,903789.1,903802.03,905421.077,,black
Stimulus,canvas.Screen,2_52_0_1,2022-07-11T15:19:04.117Z,,,1,A,98.3059999999823,timeout,,,905504.4,905502.71,905404.386,905405.7000000001,905421.077,905519.383,,black
Reaction,canvas.Screen,2_52_0_2,2022-07-11T15:19:04.360Z,,,1,A,227.01699999999255,response,stim_detected,mousedown,905748,905746.4,905502.71,905504.8,905519.383,905753.346,,black
Trial,flow.Sequence,2_52_0,2022-07-11T15:19:04.361Z,,,1,A,1944.3699999999953,completion,,,905748.3,905746.4,903785.353,903788.9,903802.03,905753.346,,black
Frame,canvas.Frame,2_52,2022-07-11T15:19:04.361Z,,,1,A,1946.3699999999953,,,,905748.6,905748.4,903785.353,903788,903802.03,905753.346,,black
Fixation,canvas.Screen,2_53_0_0,2022-07-11T15:19:06.053Z,,,1,AV,1702.1239999999525,timeout,,,907440.4,907438.784,905736.669,905749.8,905753.346,907455.47,,grey
Stimulus,canvas.Screen,2_53_0_1,2022-07-11T15:19:06.151Z,,,1,AV,98.91700000001583,timeout,,,907538.5,907537.711,907438.784,907440.7000000001,907455.47,907554.387,,grey
Reaction,canvas.Screen,2_53_0_2,2022-07-11T15:19:06.332Z,,,1,AV,163.91300000005867,response,stim_detected,mousedown,907719.9,907718.3,907537.711,907538.7000000001,907554.387,907721.324,,grey
Trial,flow.Sequence,2_53_0,2022-07-11T15:19:06.333Z,,,1,AV,1964.954000000027,completion,,,907720.3,907718.3,905736.669,905749.7000000001,905753.346,907721.324,,grey
Frame,canvas.Frame,2_53,2022-07-11T15:19:06.333Z,,,1,AV,1967.0540000000037,,,,907720.6,907720.4,905736.669,905748.8,905753.346,907721.324,,grey
Fixation,canvas.Screen,2_54_0_0,2022-07-11T15:19:08.520Z,,,1,A,2202.0509999999776,timeout,,,909907.5,909906.693,907704.647,907721.9,907721.324,909923.375,,black
Stimulus,canvas.Screen,2_54_0_1,2022-07-11T15:19:08.620Z,,,1,A,99.19099999999162,timeout,,,910007.8,910005.891,909906.693,909907.8,909923.375,910022.566,,black
Reaction,canvas.Screen,2_54_0_2,2022-07-11T15:19:08.860Z,,,1,A,223.63400000007823,response,stim_detected,mousedown,910247.7000000001,910246.2000000001,910005.891,910008,910022.566,910256.284,,black
Trial,flow.Sequence,2_54_0,2022-07-11T15:19:08.861Z,,,1,A,2524.8760000000475,completion,,,910248.2000000001,910246.2000000001,907704.647,907721.5,907721.324,910256.284,,black
Frame,canvas.Frame,2_54,2022-07-11T15:19:08.861Z,,,1,A,2526.976000000024,,,,910248.4,910248.3,907704.647,907720.8,907721.324,910256.284,,black
Fixation,canvas.Screen,2_55_0_0,2022-07-11T15:19:10.437Z,,,0,V,1583.875,timeout,,,911824.7000000001,911823.486,910239.607,910249.5,910256.284,911840.159,,grey
Stimulus,canvas.Screen,2_55_0_1,2022-07-11T15:19:10.538Z,,,0,V,100.6140000000596,timeout,,,911925.6,911924.094,911823.486,911824.9,911840.159,911940.773,,grey
Reaction,canvas.Screen,2_55_0_2,2022-07-11T15:19:10.724Z,,,0,V,169.42700000002515,response,stim_detected,mousedown,912111.8,912110.2000000001,911924.094,911925.8,911940.773,912124.17,,grey
Trial,flow.Sequence,2_55_0,2022-07-11T15:19:10.725Z,,,0,V,1853.9160000000848,completion,,,912112.2000000001,912110.2000000001,910239.607,910249.4,910256.284,912124.17,,grey
Frame,canvas.Frame,2_55,2022-07-11T15:19:10.725Z,,,0,V,1856.1160000000382,,,,912112.5,912112.4,910239.607,910248.6,910256.284,912124.17,,grey
Fixation,canvas.Screen,2_56_0_0,2022-07-11T15:19:12.490Z,,,1,A,1769.109999999986,timeout,,,913877.6,913876.591,912107.493,912113.7000000001,912124.17,913893.28,,black
Stimulus,canvas.Screen,2_56_0_1,2022-07-11T15:19:12.589Z,,,1,A,98.43499999993946,timeout,,,913976.6,913975.041,913876.591,913877.9,913893.28,913991.715,,black
Reaction,canvas.Screen,2_56_0_2,2022-07-11T15:19:12.738Z,,,1,A,131.98500000010245,response,stim_detected,mousedown,914125.3,914123.7000000001,913975.041,913976.9,913991.715,914142.183,,black
Trial,flow.Sequence,2_56_0,2022-07-11T15:19:12.738Z,,,1,A,1999.530000000028,completion,,,914125.8,914123.7000000001,912107.493,912113.5,912124.17,914142.183,,black
Frame,canvas.Frame,2_56,2022-07-11T15:19:12.739Z,,,1,A,2001.7299999999814,,,,914126.1,914125.9,912107.493,912112.7000000001,912124.17,914142.183,,black
Fixation,canvas.Screen,2_57_0_0,2022-07-11T15:19:14.875Z,,,1,A,2135.7780000000494,timeout,,,916262.7000000001,916261.276,914125.506,914127.2000000001,914142.183,916277.961,,black
Stimulus,canvas.Screen,2_57_0_1,2022-07-11T15:19:14.973Z,,,1,A,98.4089999999851,timeout,,,916360.7000000001,916359.697,916261.276,916262.8,916277.961,916376.37,,black
Reaction,canvas.Screen,2_57_0_2,2022-07-11T15:19:15.143Z,,,1,A,152.72999999998137,response,stim_detected,mousedown,916530.7000000001,916529.1,916359.697,916361,916376.37,916543.774,,black
Trial,flow.Sequence,2_57_0,2022-07-11T15:19:15.144Z,,,1,A,2386.917000000016,completion,,,916531.1,916529.1,914125.506,914127.2000000001,914142.183,916543.774,,black
Frame,canvas.Frame,2_57,2022-07-11T15:19:15.144Z,,,1,A,2389.1170000000857,,,,916531.5,916531.3,914125.506,914126.3,914142.183,916543.774,,black
Fixation,canvas.Screen,2_58_0_0,2022-07-11T15:19:16.775Z,,,1,AV,1634.0200000000186,timeout,,,918162.7000000001,918161.12,916527.097,916532.7000000001,916543.774,918177.794,,grey
Stimulus,canvas.Screen,2_58_0_1,2022-07-11T15:19:16.875Z,,,1,AV,100.45900000003166,timeout,,,918262.4,918261.575,918161.12,918163,918177.794,918278.253,,grey
Reaction,canvas.Screen,2_58_0_2,2022-07-11T15:19:17.046Z,,,1,AV,153.84699999995064,response,stim_detected,mousedown,918433.9,918432.1,918261.575,918262.5,918278.253,918444.964,,grey
Trial,flow.Sequence,2_58_0,2022-07-11T15:19:17.047Z,,,1,AV,1888.326000000001,completion,,,918434.4,918432.1,916527.097,916532.6,916543.774,918444.964,,grey
Frame,canvas.Frame,2_58,2022-07-11T15:19:17.047Z,,,1,AV,1890.7260000000242,,,,918434.7000000001,918434.5,916527.097,916531.7000000001,916543.774,918444.964,,grey
Fixation,canvas.Screen,2_59_0_0,2022-07-11T15:19:18.694Z,,,1,AV,1652.2149999999674,timeout,,,920081.9,920080.491,918428.288,918435.8,918444.964,920097.179,,grey
Stimulus,canvas.Screen,2_59_0_1,2022-07-11T15:19:18.792Z,,,1,AV,98.59199999994598,timeout,,,920179.6,920179.097,920080.491,920082,920097.179,920195.771,,grey
Reaction,canvas.Screen,2_59_0_2,2022-07-11T15:19:18.943Z,,,1,AV,133.12900000007357,response,stim_detected,mousedown,920330.1,920328.9,920179.097,920179.6,920195.771,920346.218,,grey
Trial,flow.Sequence,2_59_0,2022-07-11T15:19:18.943Z,,,1,AV,1883.935999999987,completion,,,920330.3,920328.9,918428.288,918435.7000000001,918444.964,920346.218,,grey
Frame,canvas.Frame,2_59,2022-07-11T15:19:18.943Z,,,1,AV,1885.435999999987,,,,920330.6,920330.4,918428.288,918434.9,918444.964,920346.218,,grey
Fixation,canvas.Screen,2_60_0_0,2022-07-11T15:19:21.146Z,,,0,V,2203.1530000000494,timeout,,,922534.0000000001,922532.681,920329.541,920331.2000000001,920346.218,922549.371,,grey
Stimulus,canvas.Screen,2_60_0_1,2022-07-11T15:19:21.244Z,,,0,V,97.60800000000745,timeout,,,922632.1,922630.307,922532.681,922534.2999999999,922549.371,922646.979,,grey
Reaction,canvas.Screen,2_60_0_2,2022-07-11T15:19:21.412Z,,,0,V,149.920999999973,response,stim_detected,mousedown,922799.2000000001,922796.9,922630.307,922632.4,922646.979,922814.58,,grey
Trial,flow.Sequence,2_60_0,2022-07-11T15:19:21.412Z,,,0,V,2450.68200000003,completion,,,922799.6,922796.9,920329.541,920331.2000000001,920346.218,922814.58,,grey
Frame,canvas.Frame,2_60,2022-07-11T15:19:21.412Z,,,0,V,2453.5819999999367,,,,922799.9,922799.7999999999,920329.541,920330.7000000001,920346.218,922814.58,,grey
Fixation,canvas.Screen,2_61_0_0,2022-07-11T15:19:23.645Z,,,0,V,2233.6810000000987,timeout,,,925033.1,925031.591,922797.903,922801.1,922814.58,925048.261,,grey
Stimulus,canvas.Screen,2_61_0_1,2022-07-11T15:19:23.746Z,,,0,V,101.16199999989476,timeout,,,925134.1,925132.745,925031.591,925033.2999999999,925048.261,925149.423,,grey
Reaction,canvas.Screen,2_61_0_2,2022-07-11T15:19:23.939Z,,,0,V,175.57700000016484,response,stim_detected,mousedown,925326.7000000001,925325.0000000001,925132.745,925134.2999999999,925149.423,925332.837,,grey
Trial,flow.Sequence,2_61_0,2022-07-11T15:19:23.939Z,,,0,V,2510.4200000001583,completion,,,925327.0000000001,925325.0000000001,922797.903,922801.0000000001,922814.58,925332.837,,grey
Frame,canvas.Frame,2_61,2022-07-11T15:19:23.940Z,,,0,V,2512.6200000001118,,,,925327.4,925327.2000000001,922797.903,922800.1,922814.58,925332.837,,grey
Fixation,canvas.Screen,2_62_0_0,2022-07-11T15:19:26.066Z,,,0,V,2136.326999999932,timeout,,,927454.1,927452.474,925316.16,925328.5000000001,925332.837,927469.164,,grey
Stimulus,canvas.Screen,2_62_0_1,2022-07-11T15:19:26.165Z,,,0,V,98.30299999995623,timeout,,,927552.2000000001,927550.791,927452.474,927454.2999999999,927469.164,927567.467,,grey
Reaction,canvas.Screen,2_62_0_2,2022-07-11T15:19:26.339Z,,,0,V,157.4330000000773,response,stim_detected,mousedown,927726.6,927724.9,927550.791,927552.2999999999,927567.467,927734.448,,grey
Trial,flow.Sequence,2_62_0,2022-07-11T15:19:26.339Z,,,0,V,2392.0629999999655,completion,,,927727.0000000001,927724.9,925316.16,925328.4,925332.837,927734.448,,grey
Frame,canvas.Frame,2_62,2022-07-11T15:19:26.340Z,,,0,V,2394.262999999919,,,,927727.4,927727.1,925316.16,925327.6,925332.837,927734.448,,grey
Fixation,canvas.Screen,2_63_0_0,2022-07-11T15:19:28.651Z,,,1,AV,2319.219999999972,timeout,,,930038.4,930036.983,927717.771,927728.5000000001,927734.448,930053.668,,grey
Stimulus,canvas.Screen,2_63_0_1,2022-07-11T15:19:28.750Z,,,1,AV,98.76000000000931,timeout,,,930137.4,930135.753,930036.983,930038.7000000001,930053.668,930152.428,,grey
Reaction,canvas.Screen,2_63_0_2,2022-07-11T15:19:28.904Z,,,1,AV,137.37199999997392,response,stim_detected,mousedown,930291.2999999999,930289.7999999999,930135.753,930137.7000000001,930152.428,930302.807,,grey
Trial,flow.Sequence,2_63_0,2022-07-11T15:19:28.904Z,,,1,AV,2555.3519999999553,completion,,,930291.7999999999,930289.7999999999,927717.771,927728.4,927734.448,930302.807,,grey
Frame,canvas.Frame,2_63,2022-07-11T15:19:28.905Z,,,1,AV,2557.5520000001416,,,,930292.2000000001,930292.0000000001,927717.771,927727.5000000001,927734.448,930302.807,,grey
Fixation,canvas.Screen,2_64_0_0,2022-07-11T15:19:30.833Z,,,0,V,1933.1319999999832,timeout,,,932220.2999999999,932219.273,930286.13,930294.2999999999,930302.807,932235.939,,grey
Stimulus,canvas.Screen,2_64_0_1,2022-07-11T15:19:30.935Z,,,0,V,101.51199999998789,timeout,,,932322.2999999999,932320.774,932219.273,932220.5000000001,932235.939,932337.451,,grey
Reaction,canvas.Screen,2_64_0_2,2022-07-11T15:19:31.204Z,,,0,V,252.24900000006892,response,stim_detected,mousedown,932591.2000000001,932589.7000000001,932320.774,932322.6,932337.451,932604.307,,grey
Trial,flow.Sequence,2_64_0,2022-07-11T15:19:31.204Z,,,0,V,2286.89300000004,completion,,,932591.6,932589.7000000001,930286.13,930294.2999999999,930302.807,932604.307,,grey
Frame,canvas.Frame,2_64,2022-07-11T15:19:31.204Z,,,0,V,2288.89300000004,,,,932591.9,932591.7000000001,930286.13,930293.4,930302.807,932604.307,,grey
Fixation,canvas.Screen,2_65_0_0,2022-07-11T15:19:33.486Z,,,1,AV,2284.9159999999683,timeout,,,934873.5000000001,934872.545,932587.63,932593.0000000001,932604.307,934889.223,,grey
Stimulus,canvas.Screen,2_65_0_1,2022-07-11T15:19:33.586Z,,,1,AV,100.01899999997113,timeout,,,934973.2999999999,934972.565,934872.545,934873.7999999999,934889.223,934989.242,,grey
Reaction,canvas.Screen,2_65_0_2,2022-07-11T15:19:33.700Z,,,1,AV,96.45800000010058,response,stim_detected,mousedown,935087.2999999999,935085.7000000001,934972.565,934973.6,934989.242,935089.277,,grey
Trial,flow.Sequence,2_65_0,2022-07-11T15:19:33.700Z,,,1,AV,2481.39300000004,completion,,,935087.7000000001,935085.7000000001,932587.63,932592.9,932604.307,935089.277,,grey
Frame,canvas.Frame,2_65,2022-07-11T15:19:33.700Z,,,1,AV,2483.4929999999003,,,,935087.9,935087.7999999999,932587.63,932592.0000000001,932604.307,935089.277,,grey
Fixation,canvas.Screen,2_66_0_0,2022-07-11T15:19:36.172Z,,,0,V,2485.3549999999814,timeout,,,937559.6,937557.952,935072.6,935089.1,935089.277,937574.632,,grey
Stimulus,canvas.Screen,2_66_0_1,2022-07-11T15:19:36.271Z,,,0,V,99.36900000006426,timeout,,,937658.6,937657.326,937557.952,937559.9,937574.632,937674.001,,grey
Reaction,canvas.Screen,2_66_0_2,2022-07-11T15:19:36.453Z,,,0,V,164.69900000002235,response,stim_detected,mousedown,937840.2999999999,937838.7000000001,937657.326,937658.7999999999,937674.001,937857.768,,grey
Trial,flow.Sequence,2_66_0,2022-07-11T15:19:36.453Z,,,0,V,2749.423000000068,completion,,,937840.6,937838.7000000001,935072.6,935089.1,935089.277,937857.768,,grey
Frame,canvas.Frame,2_66,2022-07-11T15:19:36.453Z,,,0,V,2751.5229999999283,,,,937840.9,937840.7999999999,935072.6,935088.2000000001,935089.277,937857.768,,grey
Fixation,canvas.Screen,2_67_0_0,2022-07-11T15:19:38.839Z,,,1,A,2383.8739999999525,timeout,,,940226.6,940224.971,937841.091,937842.1,937857.768,940241.642,,black
Stimulus,canvas.Screen,2_67_0_1,2022-07-11T15:19:38.939Z,,,1,A,101.08900000003632,timeout,,,940326.5000000001,940325.79,940224.971,940226.7000000001,940241.642,940342.731,,black
Reaction,canvas.Screen,2_67_0_2,2022-07-11T15:19:39.084Z,,,1,A,127.76900000008754,response,stim_detected,mousedown,940471.2999999999,940470.5000000001,940325.79,940326.7999999999,940342.731,940476.147,,black
Trial,flow.Sequence,2_67_0,2022-07-11T15:19:39.084Z,,,1,A,2612.7320000000764,completion,,,940471.6,940470.5000000001,937841.091,937842.1,937857.768,940476.147,,black
Frame,canvas.Frame,2_67,2022-07-11T15:19:39.084Z,,,1,A,2613.93200000003,,,,940471.7000000001,940471.7000000001,937841.091,937841.1,937857.768,940476.147,,black
Fixation,canvas.Screen,2_68_0_0,2022-07-11T15:19:41.492Z,,,0,V,2418.7880000000587,timeout,,,942879.7999999999,942878.254,940459.47,940472.2999999999,940476.147,942894.935,,grey
Stimulus,canvas.Screen,2_68_0_1,2022-07-11T15:19:41.591Z,,,0,V,99.23299999989104,timeout,,,942978.6,942977.493,942878.254,942880.0000000001,942894.935,942994.168,,grey
Reaction,canvas.Screen,2_68_0_2,2022-07-11T15:19:41.797Z,,,0,V,188.4320000000298,response,stim_detected,mousedown,943184.6,943182.6,942977.493,942979.1,942994.168,943194.607,,grey
Trial,flow.Sequence,2_68_0,2022-07-11T15:19:41.797Z,,,0,V,2706.4529999999795,completion,,,943185.0000000001,943182.6,940459.47,940472.2000000001,940476.147,943194.607,,grey
Frame,canvas.Frame,2_68,2022-07-11T15:19:41.798Z,,,0,V,2708.9529999999795,,,,943185.2999999999,943185.1,940459.47,940471.7999999999,940476.147,943194.607,,grey
Fixation,canvas.Screen,2_69_0_0,2022-07-11T15:19:43.358Z,,,1,AV,1566.8830000000307,timeout,,,944745.7000000001,944744.82,943177.93,943186.5000000001,943194.607,944761.49,,grey
Stimulus,canvas.Screen,2_69_0_1,2022-07-11T15:19:43.459Z,,,1,AV,100.91300000005867,timeout,,,944846.7000000001,944845.725,944744.82,944746.0000000001,944761.49,944862.403,,grey
Reaction,canvas.Screen,2_69_0_2,2022-07-11T15:19:43.600Z,,,1,AV,123.09700000006706,response,stim_detected,mousedown,944987.2000000001,944985.5000000001,944845.725,944846.9,944862.403,944995.773,,grey
Trial,flow.Sequence,2_69_0,2022-07-11T15:19:43.600Z,,,1,AV,1790.8930000001565,completion,,,944987.5000000001,944985.5000000001,943177.93,943186.4,943194.607,944995.773,,grey
Frame,canvas.Frame,2_69,2022-07-11T15:19:43.600Z,,,1,AV,1793.09300000011,,,,944987.7999999999,944987.7000000001,943177.93,943185.5000000001,943194.607,944995.773,,grey
Fixation,canvas.Screen,2_70_0_0,2022-07-11T15:19:45.310Z,,,0,V,1717.3989999999758,timeout,,,946698.0000000001,946696.498,944979.096,944988.9,944995.773,946713.172,,grey
Stimulus,canvas.Screen,2_70_0_1,2022-07-11T15:19:45.411Z,,,0,V,100.62599999993108,timeout,,,946798.9,946797.119,946696.498,946698.2999999999,946713.172,946813.798,,grey
Reaction,canvas.Screen,2_70_0_2,2022-07-11T15:19:45.649Z,,,0,V,221.6020000000717,response,stim_detected,mousedown,947037.0000000001,947035.4,946797.119,946799.1,946813.798,947047.119,,grey
Trial,flow.Sequence,2_70_0,2022-07-11T15:19:45.650Z,,,0,V,2039.6269999999786,completion,,,947037.4,947035.4,944979.096,944988.9,944995.773,947047.119,,grey
Frame,canvas.Frame,2_70,2022-07-11T15:19:45.650Z,,,0,V,2041.7270000000717,,,,947037.7000000001,947037.5000000001,944979.096,944988.0000000001,944995.773,947047.119,,grey
Fixation,canvas.Screen,2_71_0_0,2022-07-11T15:19:47.262Z,,,1,A,1617.9960000000428,timeout,,,948649.9,948648.435,947030.442,947038.9,947047.119,948665.115,,black
Stimulus,canvas.Screen,2_71_0_1,2022-07-11T15:19:47.361Z,,,1,A,99.81299999996554,timeout,,,948748.9,948748.081,948648.435,948650.2000000001,948665.115,948764.928,,black
Reaction,canvas.Screen,2_71_0_2,2022-07-11T15:19:47.537Z,,,1,A,158.47200000006706,response,stim_detected,mousedown,948924.9,948923.4,948748.081,948749.1,948764.928,948931.698,,black
Trial,flow.Sequence,2_71_0,2022-07-11T15:19:47.538Z,,,1,A,1876.2810000000754,completion,,,948925.4,948923.4,947030.442,947038.7000000001,947047.119,948931.698,,black
Frame,canvas.Frame,2_71,2022-07-11T15:19:47.538Z,,,1,A,1878.3810000001686,,,,948925.7000000001,948925.5000000001,947030.442,947037.7999999999,947047.119,948931.698,,black
Fixation,canvas.Screen,2_72_0_0,2022-07-11T15:19:49.630Z,,,1,AV,2101.5620000000345,timeout,,,951018.0000000001,951016.581,948915.021,948926.9,948931.698,951033.26,,grey
Stimulus,canvas.Screen,2_72_0_1,2022-07-11T15:19:49.730Z,,,1,AV,99.73199999995995,timeout,,,951117.9,951116.316,951016.581,951018.2000000001,951033.26,951132.992,,grey
Reaction,canvas.Screen,2_72_0_2,2022-07-11T15:19:49.884Z,,,1,AV,136.50800000014715,response,stim_detected,mousedown,951271.2999999999,951269.5000000001,951116.316,951118.2000000001,951132.992,951283.231,,grey
Trial,flow.Sequence,2_72_0,2022-07-11T15:19:49.884Z,,,1,AV,2337.8020000001416,completion,,,951271.7000000001,951269.5000000001,948915.021,948926.7999999999,948931.698,951283.231,,grey
Frame,canvas.Frame,2_72,2022-07-11T15:19:49.884Z,,,1,AV,2340.1019999999553,,,,951272.0000000001,951271.7999999999,948915.021,948925.9,948931.698,951283.231,,grey
Fixation,canvas.Screen,2_73_0_0,2022-07-11T15:19:51.765Z,,,1,A,1885.1080000000075,timeout,,,953153.1,953151.657,951266.554,951273.4,951283.231,953168.339,,black
Stimulus,canvas.Screen,2_73_0_1,2022-07-11T15:19:51.864Z,,,1,A,99.24699999997392,timeout,,,953251.9,953250.911,953151.657,953153.4,953168.339,953267.586,,black
Reaction,canvas.Screen,2_73_0_2,2022-07-11T15:19:52.041Z,,,1,A,159.7139999999199,response,stim_detected,mousedown,953428.9,953427.2999999999,953250.911,953252.2000000001,953267.586,953434.647,,black
Trial,flow.Sequence,2_73_0,2022-07-11T15:19:52.042Z,,,1,A,2144.0689999999013,completion,,,953429.2999999999,953427.2999999999,951266.554,951273.4,951283.231,953434.647,,black
Frame,canvas.Frame,2_73,2022-07-11T15:19:52.042Z,,,1,A,2146.1689999999944,,,,953429.6,953429.4,951266.554,951272.2000000001,951283.231,953434.647,,black
Fixation,canvas.Screen,2_74_0_0,2022-07-11T15:19:54.033Z,,,0,V,2000.7219999999506,timeout,,,955420.1,955418.696,953417.97,953430.7000000001,953434.647,955435.369,,grey
Stimulus,canvas.Screen,2_74_0_1,2022-07-11T15:19:54.133Z,,,0,V,100.61000000010245,timeout,,,955520.2000000001,955519.302,955418.696,955420.4,955435.369,955535.979,,grey
Reaction,canvas.Screen,2_74_0_2,2022-07-11T15:19:54.319Z,,,0,V,169.32099999987986,response,stim_detected,mousedown,955706.7999999999,955705.2999999999,955519.302,955520.4,955535.979,955719.461,,grey
Trial,flow.Sequence,2_74_0,2022-07-11T15:19:54.320Z,,,0,V,2270.652999999933,completion,,,955707.2000000001,955705.2999999999,953417.97,953430.6,953434.647,955719.461,,grey
Frame,canvas.Frame,2_74,2022-07-11T15:19:54.320Z,,,0,V,2272.753000000026,,,,955707.5000000001,955707.4,953417.97,953429.7000000001,953434.647,955719.461,,grey
Fixation,canvas.Screen,2_75_0_0,2022-07-11T15:19:56.218Z,,,1,AV,1901.298999999999,timeout,,,957605.2000000001,957604.082,955702.784,955708.5000000001,955719.461,957620.76,,grey
Stimulus,canvas.Screen,2_75_0_1,2022-07-11T15:19:56.318Z,,,1,AV,99.9320000000298,timeout,,,957705.2000000001,957704.016,957604.082,957605.4,957620.76,957720.692,,grey
Reaction,canvas.Screen,2_75_0_2,2022-07-11T15:19:56.453Z,,,1,AV,118.50800000003073,response,stim_detected,mousedown,957840.7999999999,957839.2000000001,957704.016,957705.5000000001,957720.692,957854.23,,grey
Trial,flow.Sequence,2_75_0,2022-07-11T15:19:56.454Z,,,1,AV,2119.7390000000596,completion,,,957841.2000000001,957839.2000000001,955702.784,955708.5000000001,955719.461,957854.23,,grey
Frame,canvas.Frame,2_75,2022-07-11T15:19:56.454Z,,,1,AV,2121.83899999992,,,,957841.5000000001,957841.2999999999,955702.784,955707.7000000001,955719.461,957854.23,,grey
Fixation,canvas.Screen,2_76_0_0,2022-07-11T15:19:58.871Z,,,1,AV,2417.082999999984,timeout,,,960256.7000000001,960254.643,957837.553,957842.6,957854.23,960271.313,,grey
Stimulus,canvas.Screen,2_76_0_1,2022-07-11T15:19:58.971Z,,,1,AV,101.23600000003353,timeout,,,960357.5000000001,960355.871,960254.643,960256.9,960271.313,960372.549,,grey
Reaction,canvas.Screen,2_76_0_2,2022-07-11T15:20:00.472Z,,,1,AV,1500.8689999999478,timeout,,,961858.4,961856.741,960355.871,960357.7999999999,960372.549,961873.418,,grey
Trial,flow.Sequence,2_76_0,2022-07-11T15:20:00.473Z,,,1,AV,4002.511000000057,completion,,,961858.7999999999,961856.741,957837.553,957842.5000000001,957854.23,961873.418,,grey
Frame,canvas.Frame,2_76,2022-07-11T15:20:00.473Z,,,1,AV,4004.670000000042,,,,961859.1,961858.9,957837.553,957841.6,957854.23,961890.095,,grey
Fixation,canvas.Screen,2_77_0_0,2022-07-11T15:20:02.690Z,,,1,AV,2201.310000000056,timeout,,,964076.2999999999,964074.729,961873.418,961860.1,961890.095,964091.405,,grey
Stimulus,canvas.Screen,2_77_0_1,2022-07-11T15:20:02.788Z,,,1,AV,98.83199999993667,timeout,,,964174.2999999999,964173.57,964074.729,964076.6,964091.405,964190.237,,grey
Reaction,canvas.Screen,2_77_0_2,2022-07-11T15:20:02.917Z,,,1,AV,110.7630000001518,response,stim_detected,mousedown,964302.7000000001,964301.0000000001,964173.57,964174.5000000001,964190.237,964308.459,,grey
Trial,flow.Sequence,2_77_0,2022-07-11T15:20:02.917Z,,,1,AV,2410.9050000001444,completion,,,964303.2000000001,964301.0000000001,961873.418,961860.0000000001,961890.095,964308.459,,grey
Frame,canvas.Frame,2_77,2022-07-11T15:20:02.917Z,,,1,AV,2413.204999999958,,,,964303.5000000001,964303.2999999999,961873.418,961859.2000000001,961890.095,964308.459,,grey
Fixation,canvas.Screen,2_78_0_0,2022-07-11T15:20:05.408Z,,,0,V,2501.7119999999413,timeout,,,966794.7000000001,966793.493,964291.782,964304.7999999999,964308.459,966810.171,,grey
Stimulus,canvas.Screen,2_78_0_1,2022-07-11T15:20:05.508Z,,,0,V,99.88400000007823,timeout,,,966894.7000000001,966893.379,966793.493,966794.7999999999,966810.171,966910.055,,grey
Reaction,canvas.Screen,2_78_0_2,2022-07-11T15:20:05.783Z,,,0,V,257.9450000000652,response,stim_detected,mousedown,967169.6,967168.0000000001,966893.379,966894.9,966910.055,967176.997,,grey
Trial,flow.Sequence,2_78_0,2022-07-11T15:20:05.784Z,,,0,V,2859.5410000000848,completion,,,967170.0000000001,967168.0000000001,964291.782,964304.7000000001,964308.459,967176.997,,grey
Frame,canvas.Frame,2_78,2022-07-11T15:20:05.784Z,,,0,V,2861.741000000038,,,,967170.2999999999,967170.2000000001,964291.782,964303.7000000001,964308.459,967176.997,,grey
Fixation,canvas.Screen,2_79_0_0,2022-07-11T15:20:08.109Z,,,0,V,2334.146999999997,timeout,,,969495.5000000001,969494.471,967160.32,967171.4,967176.997,969511.144,,grey
Stimulus,canvas.Screen,2_79_0_1,2022-07-11T15:20:08.210Z,,,0,V,100.79300000006333,timeout,,,969596.5000000001,969595.258,969494.471,969495.7000000001,969511.144,969611.937,,grey
Reaction,canvas.Screen,2_79_0_2,2022-07-11T15:20:08.407Z,,,0,V,180.06300000008196,response,stim_detected,mousedown,969793.5000000001,969792.0000000001,969595.258,969596.9,969611.937,969795.348,,grey
Trial,flow.Sequence,2_79_0,2022-07-11T15:20:08.408Z,,,0,V,2615.0030000001425,completion,,,969793.9,969792.0000000001,967160.32,967171.2999999999,967176.997,969795.348,,grey
Frame,canvas.Frame,2_79,2022-07-11T15:20:08.408Z,,,0,V,2617.0030000001425,,,,969794.2000000001,969794.0000000001,967160.32,967170.5000000001,967176.997,969795.348,,grey
Fixation,canvas.Screen,2_80_0_0,2022-07-11T15:20:10.646Z,,,0,V,2335.682999999961,timeout,,,972031.7000000001,972030.933,969778.672,969795.2999999999,969795.348,972131.031,,grey
Stimulus,canvas.Screen,2_80_0_1,2022-07-11T15:20:10.828Z,,,0,V,99.17800000007264,timeout,,,972214.4,972213.533,972030.933,972031.9,972131.031,972230.209,,grey
Reaction,canvas.Screen,2_80_0_2,2022-07-11T15:20:11.030Z,,,0,V,184.69099999999162,response,stim_detected,mousedown,972416.6,972414.9,972213.533,972214.5000000001,972230.209,972430.43,,grey
Trial,flow.Sequence,2_80_0,2022-07-11T15:20:11.031Z,,,0,V,2619.552000000025,completion,,,972417.0000000001,972414.9,969778.672,969795.2000000001,969795.348,972430.43,,grey
Frame,canvas.Frame,2_80,2022-07-11T15:20:11.031Z,,,0,V,2621.6520000001183,,,,972417.2999999999,972417.0000000001,969778.672,969794.4,969795.348,972430.43,,grey
Fixation,canvas.Screen,2_81_0_0,2022-07-11T15:20:12.614Z,,,1,AV,1584.326999999932,timeout,,,973999.7000000001,973998.08,972413.753,972418.4,972430.43,974014.757,,grey
Stimulus,canvas.Screen,2_81_0_1,2022-07-11T15:20:12.713Z,,,1,AV,99.83400000003166,timeout,,,974098.7999999999,974097.916,973998.08,974000.0000000001,974014.757,974114.591,,grey
Reaction,canvas.Screen,2_81_0_2,2022-07-11T15:20:12.886Z,,,1,AV,156.30900000000838,response,stim_detected,mousedown,974272.5000000001,974270.9,974097.916,974099.1,974114.591,974281.663,,grey
Trial,flow.Sequence,2_81_0,2022-07-11T15:20:12.887Z,,,1,AV,1840.469999999972,completion,,,974272.9,974270.9,972413.753,972418.2999999999,972430.43,974281.663,,grey
Frame,canvas.Frame,2_81,2022-07-11T15:20:12.887Z,,,1,AV,1842.5700000000652,,,,974273.2000000001,974273.0000000001,972413.753,972417.5000000001,972430.43,974281.663,,grey
Fixation,canvas.Screen,2_82_0_0,2022-07-11T15:20:14.614Z,,,0,V,1733.716000000015,timeout,,,975999.7999999999,975998.708,974264.986,974274.2999999999,974281.663,976015.379,,grey
Stimulus,canvas.Screen,2_82_0_1,2022-07-11T15:20:14.715Z,,,0,V,100.66800000006333,timeout,,,976100.9,976099.371,975998.708,976000.1,976015.379,976116.047,,grey
Reaction,canvas.Screen,2_82_0_2,2022-07-11T15:20:14.993Z,,,0,V,261.75299999990966,response,stim_detected,mousedown,976379.4,976377.7999999999,976099.371,976101.1,976116.047,976383.015,,grey
Trial,flow.Sequence,2_82_0,2022-07-11T15:20:14.994Z,,,0,V,2096.136999999988,completion,,,976379.7000000001,976377.7999999999,974264.986,974274.2000000001,974281.663,976383.015,,grey
Frame,canvas.Frame,2_82,2022-07-11T15:20:14.994Z,,,0,V,2098.136999999988,,,,976380.0000000001,976379.7999999999,974264.986,974273.2999999999,974281.663,976383.015,,grey
Fixation,canvas.Screen,2_83_0_0,2022-07-11T15:20:16.749Z,,,1,AV,1767.76800000004,timeout,,,978134.7999999999,978134.106,976366.338,976381.1,976383.015,978150.783,,grey
Stimulus,canvas.Screen,2_83_0_1,2022-07-11T15:20:16.849Z,,,1,AV,99.93499999993946,timeout,,,978234.7999999999,978234.042,978134.106,978135.1,978150.783,978250.718,,grey
Reaction,canvas.Screen,2_83_0_2,2022-07-11T15:20:16.977Z,,,1,AV,111.08199999993667,response,stim_detected,mousedown,978363.4,978361.7999999999,978234.042,978235.0000000001,978250.718,978367.68,,grey
Trial,flow.Sequence,2_83_0,2022-07-11T15:20:16.978Z,,,1,AV,1978.7849999999162,completion,,,978363.7000000001,978361.7999999999,976366.338,976381.0000000001,976383.015,978367.68,,grey
Frame,canvas.Frame,2_83,2022-07-11T15:20:16.978Z,,,1,AV,1980.8850000000093,,,,978364.1,978363.9,976366.338,976380.2000000001,976383.015,978367.68,,grey
Fixation,canvas.Screen,2_84_0_0,2022-07-11T15:20:18.901Z,,,0,V,1934.658999999985,timeout,,,980287.0000000001,980285.661,978351.003,978365.2000000001,978367.68,980302.339,,grey
Stimulus,canvas.Screen,2_84_0_1,2022-07-11T15:20:19.001Z,,,0,V,100.04799999995157,timeout,,,980386.9,980385.709,980285.661,980287.2000000001,980302.339,980402.387,,grey
Reaction,canvas.Screen,2_84_0_2,2022-07-11T15:20:19.265Z,,,0,V,247.21299999998882,response,stim_detected,mousedown,980651.2999999999,980649.6,980385.709,980387.1,980402.387,980669.162,,grey
Trial,flow.Sequence,2_84_0,2022-07-11T15:20:19.265Z,,,0,V,2281.9199999999255,completion,,,980651.6,980649.6,978351.003,978365.1,978367.68,980669.162,,grey
Frame,canvas.Frame,2_84,2022-07-11T15:20:19.266Z,,,0,V,2284.0200000000186,,,,980652.0000000001,980651.7000000001,978351.003,978364.2999999999,978367.68,980669.162,,grey
Fixation,canvas.Screen,2_85_0_0,2022-07-11T15:20:21.570Z,,,1,A,2302.5740000000224,timeout,,,982956.0000000001,982955.051,980652.485,980653.2000000001,980669.162,982971.736,,black
Stimulus,canvas.Screen,2_85_0_1,2022-07-11T15:20:21.669Z,,,1,A,99,timeout,,,983055.0000000001,983054.059,982955.051,982956.2000000001,982971.736,983070.736,,black
Reaction,canvas.Screen,2_85_0_2,2022-07-11T15:20:21.843Z,,,1,A,156.96400000003632,response,stim_detected,mousedown,983229.2999999999,983227.7000000001,983054.059,983055.2999999999,983070.736,983254.222,,black
Trial,flow.Sequence,2_85_0,2022-07-11T15:20:21.844Z,,,1,A,2558.5380000000587,completion,,,983229.7999999999,983227.7000000001,980652.485,980653.1,980669.162,983254.222,,black
Frame,canvas.Frame,2_85,2022-07-11T15:20:21.844Z,,,1,A,2560.738000000012,,,,983230.1,983229.9,980652.485,980652.2000000001,980669.162,983254.222,,black
Fixation,canvas.Screen,2_86_0_0,2022-07-11T15:20:23.904Z,,,0,V,2051.521999999997,timeout,,,985290.2999999999,985289.065,983220.868,983231.2999999999,983254.222,985305.744,,grey
Stimulus,canvas.Screen,2_86_0_1,2022-07-11T15:20:24.004Z,,,0,V,99.68800000008196,timeout,,,985390.1,985388.756,985289.065,985290.7000000001,985305.744,985405.432,,grey
Reaction,canvas.Screen,2_86_0_2,2022-07-11T15:20:24.213Z,,,0,V,192.16799999994691,response,stim_detected,mousedown,985599.2000000001,985597.6,985388.756,985390.2999999999,985405.432,985605.755,,grey
Trial,flow.Sequence,2_86_0,2022-07-11T15:20:24.214Z,,,0,V,2343.378000000026,completion,,,985599.7000000001,985597.6,983220.868,983231.1,983254.222,985605.755,,grey
Frame,canvas.Frame,2_86,2022-07-11T15:20:24.214Z,,,0,V,2345.5779999999795,,,,985600.0000000001,985599.7999999999,983220.868,983230.2999999999,983254.222,985605.755,,grey
Fixation,canvas.Screen,2_87_0_0,2022-07-11T15:20:25.755Z,,,0,V,1550.542999999947,timeout,,,987141.1,987139.625,985589.078,985601.2000000001,985605.755,987156.298,,grey
Stimulus,canvas.Screen,2_87_0_1,2022-07-11T15:20:25.855Z,,,0,V,100.54899999999907,timeout,,,987241.2000000001,987240.17,987139.625,987141.4,987156.298,987256.847,,grey
Reaction,canvas.Screen,2_87_0_2,2022-07-11T15:20:26.048Z,,,0,V,175.65300000016578,response,stim_detected,mousedown,987434.1,987432.5000000001,987240.17,987241.5000000001,987256.847,987440.261,,grey
Trial,flow.Sequence,2_87_0,2022-07-11T15:20:26.048Z,,,0,V,1826.7450000001118,completion,,,987434.5000000001,987432.5000000001,985589.078,985601.1,985605.755,987440.261,,grey
Frame,canvas.Frame,2_87,2022-07-11T15:20:26.049Z,,,0,V,1828.844999999972,,,,987434.7000000001,987434.6,985589.078,985600.2000000001,985605.755,987440.261,,grey
Fixation,canvas.Screen,2_88_0_0,2022-07-11T15:20:27.857Z,,,1,AV,1818.0439999999944,timeout,,,989243.2000000001,989241.626,987423.584,987435.9,987440.261,989258.305,,grey
Stimulus,canvas.Screen,2_88_0_1,2022-07-11T15:20:27.957Z,,,1,AV,99.997999999905,timeout,,,989343.2999999999,989341.624,989241.626,989243.5000000001,989258.305,989358.303,,grey
Reaction,canvas.Screen,2_88_0_2,2022-07-11T15:20:28.089Z,,,1,AV,115.19700000016019,response,stim_detected,mousedown,989475.1,989473.5000000001,989341.624,989343.5000000001,989358.303,989491.646,,grey
Trial,flow.Sequence,2_88_0,2022-07-11T15:20:28.089Z,,,1,AV,2033.2390000000596,completion,,,989475.5000000001,989473.5000000001,987423.584,987435.7999999999,987440.261,989491.646,,grey
Frame,canvas.Frame,2_88,2022-07-11T15:20:28.090Z,,,1,AV,2035.439000000013,,,,989475.7999999999,989475.7000000001,987423.584,987435.0000000001,987440.261,989491.646,,grey
Fixation,canvas.Screen,2_89_0_0,2022-07-11T15:20:29.607Z,,,1,A,1517.6100000001024,timeout,,,990993.2999999999,990992.579,989474.969,989477.0000000001,989491.646,991009.256,,black
Stimulus,canvas.Screen,2_89_0_1,2022-07-11T15:20:29.707Z,,,1,A,99.65399999998044,timeout,,,991093.2999999999,991092.237,990992.579,990993.5000000001,991009.256,991108.91,,black
Reaction,canvas.Screen,2_89_0_2,2022-07-11T15:20:29.900Z,,,1,A,175.59000000008382,response,stim_detected,mousedown,991286.0000000001,991284.5000000001,991092.237,991093.5000000001,991108.91,991309.502,,black
Trial,flow.Sequence,2_89_0,2022-07-11T15:20:29.900Z,,,1,A,1792.8540000001667,completion,,,991286.4,991284.5000000001,989474.969,989476.9,989491.646,991309.502,,black
Frame,canvas.Frame,2_89,2022-07-11T15:20:29.901Z,,,1,A,1794.8540000001667,,,,991286.7000000001,991286.5000000001,989474.969,989476.0000000001,989491.646,991309.502,,black
Fixation,canvas.Screen,2_90_0_0,2022-07-11T15:20:31.724Z,,,0,V,1816.8100000000559,timeout,,,993110.4,993109.643,991276.148,991287.9,991309.502,993126.312,,grey
Stimulus,canvas.Screen,2_90_0_1,2022-07-11T15:20:31.825Z,,,0,V,101.10999999998603,timeout,,,993211.4,993210.529,993109.643,993110.7999999999,993126.312,993227.422,,grey
Reaction,canvas.Screen,2_90_0_2,2022-07-11T15:20:32.009Z,,,0,V,166.07800000009593,response,stim_detected,mousedown,993395.1,993393.5000000001,993210.529,993211.6,993227.422,993727.732,,grey
Trial,flow.Sequence,2_90_0,2022-07-11T15:20:32.009Z,,,0,V,2083.998000000138,completion,,,993395.5000000001,993393.5000000001,991276.148,991287.7999999999,991309.502,993727.732,,grey
Frame,canvas.Frame,2_90,2022-07-11T15:20:32.010Z,,,0,V,2086.1980000000913,,,,993395.9,993395.7000000001,991276.148,991286.9,991309.502,993727.732,,grey
Loop,flow.Loop,2,2022-07-11T15:20:32.010Z,,,,,212909.4310000001,completion,,,993396.2999999999,993395.7000000001,780469.604,780471.9,780486.269,993727.732,,
end,html.Page,3,2022-07-11T15:20:38.244Z,,,,,5901.368000000017,form submission,,,999629.7000000001,999629.1,993394.192,993396.5000000001,993727.732,999772.126,,
root,flow.Sequence,,2022-07-11T15:20:38.336Z,,,,,993449.329,completion,,,999722.5000000001,999629.1,6163.093,6166.1999999999825,6179.771,999772.126,,