sender,sender_type,sender_id,timestamp,meta,,aud,condition,duration,ended_on,response,response_action,time_commit,time_end,time_render,time_run,time_show,time_switch,url,vis
Instructions,html.Page,0,2022-06-24T12:41:18.695Z,"{""labjs_version"":""20.2.4"",""labjs_build"":{""flavor"":""production"",""commit"":""f5b4a49f956347addd546a832a3327688c2c0fef""},""location"":""file:///C:/Users/Proband%207/Desktop/RTE/index.html"",""userAgent"":""Mozilla/5.0 (Windows NT 6.1; Win64; x64) AppleWebKit/537.36 (KHTML, like Gecko) Chrome/102.0.0.0 Safari/537.36"",""platform"":""Win32"",""language"":""de-DE"",""locale"":""de"",""timeZone"":""Europe/Berlin"",""timezoneOffset"":-120,""screen_width"":1366,""screen_height"":768,""scroll_width"":1366,""scroll_height"":609,""window_innerWidth"":1366,""window_innerHeight"":657,""devicePixelRatio"":1}",,,,1253471.125,form submission,,,1255125.6999999997,1255124.1,1636.296,1640.6999999997206,1652.975,1255138.78,{},
Change Background,canvas.Screen,1,2022-06-24T12:41:21.699Z,,,,,3006.064999999944,timeout,,,1258129.4999999995,1258128.152,1255105.434,1255126.4,1255138.78,1258144.845,,
Fixation,canvas.Screen,2_0_0_0,2022-06-24T12:41:23.414Z,,,1,AV,1714.4520000000484,timeout,,,1259844.1,1259842.626,1258128.152,1258130.9,1258144.845,1259859.297,,grey
Stimulus,canvas.Screen,2_0_0_1,2022-06-24T12:41:23.514Z,,,1,AV,101.55599999986589,timeout,,,1259944.6,1259944.176,1259842.626,1259844.4,1259859.297,1259960.853,,grey
Reaction,canvas.Screen,2_0_0_2,2022-06-24T12:41:23.797Z,,,1,AV,264.5470000000205,response,stim_detected,mousedown,1260227.3000000003,1260225.4,1259944.176,1259944.8000000003,1259960.853,1260244.344,,grey
Trial,flow.Sequence,2_0_0,2022-06-24T12:41:23.798Z,,,1,AV,2080.554999999935,completion,,,1260227.9,1260225.4,1258128.152,1258130.9,1258144.845,1260244.344,,grey
Frame,canvas.Frame,2_0,2022-06-24T12:41:23.798Z,,,1,AV,2083.3549999997485,,,,1260228.4,1260228.1999999997,1258128.152,1258129.8000000003,1258144.845,1260244.344,,grey
Fixation,canvas.Screen,2_1_0_0,2022-06-24T12:41:25.617Z,,,1,A,1818.5370000000112,timeout,,,1262047.4,1262046.198,1260227.667,1260229.6,1260244.344,1262062.881,,black
Stimulus,canvas.Screen,2_1_0_1,2022-06-24T12:41:25.717Z,,,1,A,99.4749999998603,timeout,,,1262147.3000000003,1262145.679,1262046.198,1262047.6999999997,1262062.881,1262162.356,,black
Reaction,canvas.Screen,2_1_0_2,2022-06-24T12:41:25.973Z,,,1,A,239.0439999999944,response,stim_detected,mousedown,1262402.9999999995,1262401.4,1262145.679,1262147.8000000003,1262162.356,1262412.511,,black
Trial,flow.Sequence,2_1_0,2022-06-24T12:41:25.973Z,,,1,A,2157.055999999866,completion,,,1262403.8000000003,1262401.4,1260227.667,1260229.4999999995,1260244.344,1262412.511,,black
Frame,canvas.Frame,2_1,2022-06-24T12:41:25.974Z,,,1,A,2159.6559999994934,,,,1262404.3000000003,1262403.9999999995,1260227.667,1260228.6999999997,1260244.344,1262412.511,,black
Fixation,canvas.Screen,2_2_0_0,2022-06-24T12:41:27.784Z,,,0,V,1817.0439999999944,timeout,,,1264214.4999999995,1264212.884,1262395.834,1262405.6,1262412.511,1264229.555,,grey
Stimulus,canvas.Screen,2_2_0_1,2022-06-24T12:41:27.885Z,,,0,V,100.85499999998137,timeout,,,1264315.4,1264313.733,1264212.884,1264214.9,1264229.555,1264330.41,,grey
Reaction,canvas.Screen,2_2_0_2,2022-06-24T12:41:28.171Z,,,0,V,268.8900000003632,response,stim_detected,mousedown,1264601.1,1264599.3000000003,1264313.733,1264315.8000000003,1264330.41,1264613.942,,grey
Trial,flow.Sequence,2_2_0,2022-06-24T12:41:28.171Z,,,0,V,2186.789000000339,completion,,,1264601.6999999997,1264599.3000000003,1262395.834,1262405.4999999995,1262412.511,1264613.942,,grey
Frame,canvas.Frame,2_2,2022-06-24T12:41:28.172Z,,,0,V,2189.3889999999665,,,,1264601.9999999995,1264601.9,1262395.834,1262404.6,1262412.511,1264613.942,,grey
Fixation,canvas.Screen,2_3_0_0,2022-06-24T12:41:29.736Z,,,0,V,1567.5359999998473,timeout,,,1266166.4,1266164.802,1264597.265,1264603.4999999995,1264613.942,1266181.478,,grey
Stimulus,canvas.Screen,2_3_0_1,2022-06-24T12:41:29.836Z,,,0,V,100.34000000008382,timeout,,,1266266.4,1266265.139,1266164.802,1266166.6999999997,1266181.478,1266281.818,,grey
Reaction,canvas.Screen,2_3_0_2,2022-06-24T12:41:30.067Z,,,0,V,213.58199999993667,response,stim_detected,mousedown,1266496.9999999995,1266495.4,1266265.139,1266266.6999999997,1266281.818,1266498.565,,grey
Trial,flow.Sequence,2_3_0,2022-06-24T12:41:30.067Z,,,0,V,1881.4579999998678,completion,,,1266497.3000000003,1266495.4,1264597.265,1264603.3000000003,1264613.942,1266498.565,,grey
Frame,canvas.Frame,2_3,2022-06-24T12:41:30.067Z,,,0,V,1883.5579999994952,,,,1266497.6,1266497.4999999995,1264597.265,1264602.4,1264613.942,1266498.565,,grey
Fixation,canvas.Screen,2_4_0_0,2022-06-24T12:41:31.571Z,,,1,AV,1518.1480000000447,timeout,,,1268001.6,1268000.031,1266481.888,1266498.8000000003,1266498.565,1268016.713,,grey
Stimulus,canvas.Screen,2_4_0_1,2022-06-24T12:41:31.670Z,,,1,AV,99.4660000000149,timeout,,,1268100.4,1268099.503,1268000.031,1268001.8000000003,1268016.713,1268116.179,,grey
Reaction,canvas.Screen,2_4_0_2,2022-06-24T12:41:31.812Z,,,1,AV,124.12100000027567,response,stim_detected,mousedown,1268242.1,1268240.3000000003,1268099.503,1268100.6999999997,1268116.179,1268249.764,,grey
Trial,flow.Sequence,2_4_0,2022-06-24T12:41:31.812Z,,,1,AV,1741.7350000003353,completion,,,1268242.6,1268240.3000000003,1266481.888,1266498.6999999997,1266498.565,1268249.764,,grey
Frame,canvas.Frame,2_4,2022-06-24T12:41:31.813Z,,,1,AV,1744.1349999997765,,,,1268242.9999999995,1268242.6999999997,1266481.888,1266497.8000000003,1266498.565,1268249.764,,grey
Fixation,canvas.Screen,2_5_0_0,2022-06-24T12:41:34.055Z,,,1,A,2250.9590000000317,timeout,,,1270485.6,1270484.049,1268233.087,1268244.1,1268249.764,1270500.723,,black
Stimulus,canvas.Screen,2_5_0_1,2022-06-24T12:41:34.155Z,,,1,A,100.04700000002049,timeout,,,1270585.6,1270584.096,1270484.049,1270485.9,1270500.723,1270600.77,,black
Reaction,canvas.Screen,2_5_0_2,2022-06-24T12:41:34.305Z,,,1,A,133.53000000026077,response,stim_detected,mousedown,1270735.9,1270734.3000000003,1270584.096,1270585.9999999995,1270600.77,1270751.424,,black
Trial,flow.Sequence,2_5_0,2022-06-24T12:41:34.306Z,,,1,A,2484.536000000313,completion,,,1270736.3000000003,1270734.3000000003,1268233.087,1268243.9999999995,1268249.764,1270751.424,,black
Frame,canvas.Frame,2_5,2022-06-24T12:41:34.306Z,,,1,A,2486.6359999999404,,,,1270736.6,1270736.4,1268233.087,1268243.1,1268249.764,1270751.424,,black
Fixation,canvas.Screen,2_6_0_0,2022-06-24T12:41:36.506Z,,,1,A,2200.931999999797,timeout,,,1272936.6999999997,1272935.682,1270734.747,1270737.9,1270751.424,1272952.356,,black
Stimulus,canvas.Screen,2_6_0_1,2022-06-24T12:41:36.607Z,,,1,A,100.68000000016764,timeout,,,1273037.8000000003,1273036.356,1272935.682,1272937.1999999997,1272952.356,1273053.036,,black
Reaction,canvas.Screen,2_6_0_2,2022-06-24T12:41:36.850Z,,,1,A,225.1639999996405,response,stim_detected,mousedown,1273279.9,1273278.1999999997,1273036.356,1273038.1,1273053.036,1273303.097,,black
Trial,flow.Sequence,2_6_0,2022-06-24T12:41:36.850Z,,,1,A,2526.775999999605,completion,,,1273280.4,1273278.1999999997,1270734.747,1270737.6999999997,1270751.424,1273303.097,,black
Frame,canvas.Frame,2_6,2022-06-24T12:41:36.850Z,,,1,A,2529.075999999419,,,,1273280.6999999997,1273280.4999999995,1270734.747,1270736.9,1270751.424,1273303.097,,black
Fixation,canvas.Screen,2_7_0_0,2022-06-24T12:41:39.077Z,,,0,V,2218.9779999998864,timeout,,,1275506.9999999995,1275505.391,1273269.743,1273281.8000000003,1273303.097,1275522.075,,grey
Stimulus,canvas.Screen,2_7_0_1,2022-06-24T12:41:39.174Z,,,0,V,98.58900000015274,timeout,,,1275604.9,1275603.991,1275505.391,1275507.3000000003,1275522.075,1275620.664,,grey
Reaction,canvas.Screen,2_7_0_2,2022-06-24T12:41:39.474Z,,,0,V,281.6360000001732,response,stim_detected,mousedown,1275903.9,1275902.3000000003,1275603.991,1275605.1,1275620.664,1275921.533,,grey
Trial,flow.Sequence,2_7_0,2022-06-24T12:41:39.474Z,,,0,V,2599.2030000002123,completion,,,1275904.3000000003,1275902.3000000003,1273269.743,1273281.8000000003,1273303.097,1275921.533,,grey
Frame,canvas.Frame,2_7,2022-06-24T12:41:39.474Z,,,0,V,2601.4029999994673,,,,1275904.6999999997,1275904.4999999995,1273269.743,1273280.9,1273303.097,1275921.533,,grey
Fixation,canvas.Screen,2_8_0_0,2022-06-24T12:41:41.294Z,,,1,A,1818.128000000026,timeout,,,1277723.8000000003,1277722.981,1275904.856,1275905.9999999995,1275921.533,1277739.661,,black
Stimulus,canvas.Screen,2_8_0_1,2022-06-24T12:41:41.394Z,,,1,A,99.75799999991432,timeout,,,1277823.9,1277822.742,1277722.981,1277724.1999999997,1277739.661,1277839.419,,black
Reaction,canvas.Screen,2_8_0_2,2022-06-24T12:41:41.611Z,,,1,A,200.7809999997262,response,stim_detected,mousedown,1278041.6999999997,1278040.1999999997,1277822.742,1277824.1999999997,1277839.419,1278056.307,,black
Trial,flow.Sequence,2_8_0,2022-06-24T12:41:41.612Z,,,1,A,2118.6669999996666,completion,,,1278042.1,1278040.1999999997,1275904.856,1275905.9,1275921.533,1278056.307,,black
Frame,canvas.Frame,2_8,2022-06-24T12:41:41.612Z,,,1,A,2120.6669999996666,,,,1278042.4,1278042.1999999997,1275904.856,1275904.8000000003,1275921.533,1278056.307,,black
Fixation,canvas.Screen,2_9_0_0,2022-06-24T12:41:43.995Z,,,1,A,2384.023999999976,timeout,,,1280425.1,1280423.659,1278039.63,1278043.6,1278056.307,1280440.331,,black
Stimulus,canvas.Screen,2_9_0_1,2022-06-24T12:41:44.096Z,,,1,A,100.97999999998137,timeout,,,1280526.1,1280524.633,1280423.659,1280425.4,1280440.331,1280541.311,,black
Reaction,canvas.Screen,2_9_0_2,2022-06-24T12:41:44.241Z,,,1,A,128.88899999973364,response,stim_detected,mousedown,1280671.8000000003,1280670.1999999997,1280524.633,1280526.4,1280541.311,1280674.69,,black
Trial,flow.Sequence,2_9_0,2022-06-24T12:41:44.242Z,,,1,A,2613.892999999691,completion,,,1280672.3000000003,1280670.1999999997,1278039.63,1278043.4999999995,1278056.307,1280674.69,,black
Frame,canvas.Frame,2_9,2022-06-24T12:41:44.242Z,,,1,A,2616.092999999877,,,,1280672.6,1280672.4,1278039.63,1278042.6,1278056.307,1280674.69,,black
Fixation,canvas.Screen,2_10_0_0,2022-06-24T12:41:45.848Z,,,0,V,1618.627000000095,timeout,,,1282278.1,1282276.631,1280658.013,1280673.8000000003,1280674.69,1282293.317,,grey
Stimulus,canvas.Screen,2_10_0_1,2022-06-24T12:41:45.947Z,,,0,V,99.22900000005029,timeout,,,1282377.1,1282375.845,1282276.631,1282278.3000000003,1282293.317,1282392.546,,grey
Reaction,canvas.Screen,2_10_0_2,2022-06-24T12:41:46.322Z,,,0,V,357.5540000000037,response,stim_detected,mousedown,1282751.9,1282750.1,1282375.845,1282377.4,1282392.546,1282759.44,,grey
Trial,flow.Sequence,2_10_0,2022-06-24T12:41:46.322Z,,,0,V,2075.410000000149,completion,,,1282752.4,1282750.1,1280658.013,1280673.6999999997,1280674.69,1282759.44,,grey
Frame,canvas.Frame,2_10,2022-06-24T12:41:46.322Z,,,0,V,2077.80999999959,,,,1282752.8000000003,1282752.4999999995,1280658.013,1280672.8000000003,1280674.69,1282759.44,,grey
Fixation,canvas.Screen,2_11_0_0,2022-06-24T12:41:47.931Z,,,0,V,1617.1829999999609,timeout,,,1284361.3000000003,1284359.95,1282742.763,1282753.9,1282759.44,1284376.623,,grey
Stimulus,canvas.Screen,2_11_0_1,2022-06-24T12:41:48.032Z,,,0,V,100.69800000009127,timeout,,,1284462.3000000003,1284460.643,1284359.95,1284361.4,1284376.623,1284477.321,,grey
Reaction,canvas.Screen,2_11_0_2,2022-06-24T12:41:48.215Z,,,0,V,166.87899999972433,response,stim_detected,mousedown,1284645.6999999997,1284644.1999999997,1284460.643,1284462.4999999995,1284477.321,1284660.699,,grey
Trial,flow.Sequence,2_11_0,2022-06-24T12:41:48.216Z,,,0,V,1884.7599999997765,completion,,,1284646.1,1284644.1999999997,1282742.763,1282753.8000000003,1282759.44,1284660.699,,grey
Frame,canvas.Frame,2_11,2022-06-24T12:41:48.216Z,,,0,V,1886.7599999997765,,,,1284646.4,1284646.1999999997,1282742.763,1282752.9999999995,1282759.44,1284660.699,,grey
Fixation,canvas.Screen,2_12_0_0,2022-06-24T12:41:50.484Z,,,0,V,2285.351000000024,timeout,,,1286914.3000000003,1286912.688,1284644.022,1284647.4999999995,1284660.699,1286946.05,,grey
Stimulus,canvas.Screen,2_12_0_1,2022-06-24T12:41:50.600Z,,,0,V,99.497999999905,timeout,,,1287030.4,1287028.871,1286912.688,1286914.4999999995,1286946.05,1287045.548,,grey
Reaction,canvas.Screen,2_12_0_2,2022-06-24T12:41:50.751Z,,,0,V,134.55200000014156,response,stim_detected,mousedown,1287181.6,1287180.1,1287028.871,1287030.8000000003,1287045.548,1287195.683,,grey
Trial,flow.Sequence,2_12_0,2022-06-24T12:41:50.752Z,,,0,V,2519.401000000071,completion,,,1287182.1,1287180.1,1284644.022,1284647.4,1284660.699,1287195.683,,grey
Frame,canvas.Frame,2_12,2022-06-24T12:41:50.752Z,,,0,V,2521.5009999996983,,,,1287182.4,1287182.1999999997,1284644.022,1284646.6,1284660.699,1287195.683,,grey
Fixation,canvas.Screen,2_13_0_0,2022-06-24T12:41:52.419Z,,,1,AV,1669.2590000000782,timeout,,,1288849.4,1288848.25,1287179.006,1287183.6,1287195.683,1288864.942,,grey
Stimulus,canvas.Screen,2_13_0_1,2022-06-24T12:41:52.517Z,,,1,AV,98.35899999993853,timeout,,,1288947.4,1288946.626,1288848.25,1288849.6999999997,1288864.942,1288963.301,,grey
Reaction,canvas.Screen,2_13_0_2,2022-06-24T12:41:52.729Z,,,1,AV,194.6989999995567,response,stim_detected,mousedown,1289159.6,1289157.9999999995,1288946.626,1288947.6999999997,1288963.301,1289163.721,,grey
Trial,flow.Sequence,2_13_0,2022-06-24T12:41:52.730Z,,,1,AV,1962.3169999995735,completion,,,1289160.1,1289157.9999999995,1287179.006,1287183.4,1287195.683,1289163.721,,grey
Frame,canvas.Frame,2_13,2022-06-24T12:41:52.730Z,,,1,AV,1964.4170000001322,,,,1289160.3000000003,1289160.1,1287179.006,1287182.6999999997,1287195.683,1289163.721,,grey
Fixation,canvas.Screen,2_14_0_0,2022-06-24T12:41:54.619Z,,,1,AV,1901.3209999999963,timeout,,,1291049.4999999995,1291048.364,1289147.044,1289161.4,1289163.721,1291065.042,,grey
Stimulus,canvas.Screen,2_14_0_1,2022-06-24T12:41:54.719Z,,,1,AV,99.77000000001863,timeout,,,1291149.4999999995,1291148.137,1291048.364,1291049.8000000003,1291065.042,1291164.812,,grey
Reaction,canvas.Screen,2_14_0_2,2022-06-24T12:41:54.846Z,,,1,AV,110.28800000017509,response,stim_detected,mousedown,1291276.6,1291275.1,1291148.137,1291149.8000000003,1291164.812,1291281.808,,grey
Trial,flow.Sequence,2_14_0,2022-06-24T12:41:54.847Z,,,1,AV,2111.37900000019,completion,,,1291276.9999999995,1291275.1,1289147.044,1289161.3000000003,1289163.721,1291281.808,,grey
Frame,canvas.Frame,2_14,2022-06-24T12:41:54.847Z,,,1,AV,2113.37900000019,,,,1291277.3000000003,1291277.1,1289147.044,1289160.4999999995,1289163.721,1291281.808,,grey
Fixation,canvas.Screen,2_15_0_0,2022-06-24T12:41:56.970Z,,,1,AV,2134.66100000008,timeout,,,1293400.6,1293399.792,1291265.131,1291278.4,1291281.808,1293416.469,,grey
Stimulus,canvas.Screen,2_15_0_1,2022-06-24T12:41:57.070Z,,,1,AV,99.92500000004657,timeout,,,1293500.6,1293499.718,1293399.792,1293400.9,1293416.469,1293516.394,,grey
Reaction,canvas.Screen,2_15_0_2,2022-06-24T12:41:57.186Z,,,1,AV,98.70600000000559,response,stim_detected,mousedown,1293616.6,1293615.1,1293499.718,1293500.8000000003,1293516.394,1293633.344,,grey
Trial,flow.Sequence,2_15_0,2022-06-24T12:41:57.187Z,,,1,AV,2333.2920000001322,completion,,,1293617.1,1293615.1,1291265.131,1291278.1999999997,1291281.808,1293633.344,,grey
Frame,canvas.Frame,2_15,2022-06-24T12:41:57.187Z,,,1,AV,2335.3919999997597,,,,1293617.3000000003,1293617.1999999997,1291265.131,1291277.4999999995,1291281.808,1293633.344,,grey
Fixation,canvas.Screen,2_16_0_0,2022-06-24T12:41:58.956Z,,,1,AV,1768.9790000000503,timeout,,,1295386.6999999997,1295385.635,1293616.667,1293618.6,1293633.344,1295402.323,,grey
Stimulus,canvas.Screen,2_16_0_1,2022-06-24T12:41:59.055Z,,,1,AV,98.84699999983422,timeout,,,1295485.6999999997,1295484.494,1295385.635,1295386.9999999995,1295402.323,1295501.17,,grey
Reaction,canvas.Screen,2_16_0_2,2022-06-24T12:41:59.167Z,,,1,AV,94.93000000016764,response,stim_detected,mousedown,1295597.4999999995,1295596.1,1295484.494,1295485.9999999995,1295501.17,1295601.366,,grey
Trial,flow.Sequence,2_16_0,2022-06-24T12:41:59.168Z,,,1,AV,1962.7560000000522,completion,,,1295597.9,1295596.1,1293616.667,1293618.4,1293633.344,1295601.366,,grey
Frame,canvas.Frame,2_16,2022-06-24T12:41:59.168Z,,,1,AV,1964.6559999994934,,,,1295598.1999999997,1295597.9999999995,1293616.667,1293617.6,1293633.344,1295601.366,,grey
Fixation,canvas.Screen,2_17_0_0,2022-06-24T12:42:01.624Z,,,0,V,2468.19700000016,timeout,,,1298053.9,1298052.886,1295584.689,1295599.4,1295601.366,1298069.563,,grey
Stimulus,canvas.Screen,2_17_0_1,2022-06-24T12:42:01.724Z,,,0,V,99.4639999999199,timeout,,,1298154.1,1298152.354,1298052.886,1298054.1,1298069.563,1298169.027,,grey
Reaction,canvas.Screen,2_17_0_2,2022-06-24T12:42:01.950Z,,,0,V,209.97299999953248,response,stim_detected,mousedown,1298380.4999999995,1298378.9999999995,1298152.354,1298154.3000000003,1298169.027,1298403.249,,grey
Trial,flow.Sequence,2_17_0,2022-06-24T12:42:01.951Z,,,0,V,2777.6339999996126,completion,,,1298380.9,1298378.9999999995,1295584.689,1295599.3000000003,1295601.366,1298403.249,,grey
Frame,canvas.Frame,2_17,2022-06-24T12:42:01.951Z,,,0,V,2779.6339999996126,,,,1298381.1999999997,1298380.9999999995,1295584.689,1295598.4,1295601.366,1298403.249,,grey
Fixation,canvas.Screen,2_18_0_0,2022-06-24T12:42:03.908Z,,,1,AV,1950.1489999999758,timeout,,,1300337.9999999995,1300336.729,1298369.895,1298382.3000000003,1298403.249,1300353.398,,grey
Stimulus,canvas.Screen,2_18_0_1,2022-06-24T12:42:04.009Z,,,1,AV,100.86899999994785,timeout,,,1300439.1,1300437.592,1300336.729,1300338.4,1300353.398,1300454.267,,grey
Reaction,canvas.Screen,2_18_0_2,2022-06-24T12:42:04.187Z,,,1,AV,161.7329999995418,response,stim_detected,mousedown,1300617.6,1300615.9999999995,1300437.592,1300439.4999999995,1300454.267,1300621.384,,grey
Trial,flow.Sequence,2_18_0,2022-06-24T12:42:04.188Z,,,1,AV,2212.7509999994654,completion,,,1300617.9999999995,1300615.9999999995,1298369.895,1298382.3000000003,1298403.249,1300621.384,,grey
Frame,canvas.Frame,2_18,2022-06-24T12:42:04.188Z,,,1,AV,2214.9509999996517,,,,1300618.3000000003,1300618.1999999997,1298369.895,1298381.4,1298403.249,1300621.384,,grey
Fixation,canvas.Screen,2_19_0_0,2022-06-24T12:42:06.627Z,,,1,AV,2451.0459999998566,timeout,,,1303057.1,1303055.756,1300604.707,1300619.6,1300621.384,1303072.43,,grey
Stimulus,canvas.Screen,2_19_0_1,2022-06-24T12:42:06.727Z,,,1,AV,100.21100000012666,timeout,,,1303157.1,1303155.966,1303055.756,1303057.3000000003,1303072.43,1303172.641,,grey
Reaction,canvas.Screen,2_19_0_2,2022-06-24T12:42:06.885Z,,,1,AV,141.45900000003166,response,stim_detected,mousedown,1303315.4999999995,1303314.1,1303155.966,1303157.4,1303172.641,1303323.19,,grey
Trial,flow.Sequence,2_19_0,2022-06-24T12:42:06.886Z,,,1,AV,2692.716000000015,completion,,,1303315.9,1303314.1,1300604.707,1300619.4999999995,1300621.384,1303323.19,,grey
Frame,canvas.Frame,2_19,2022-06-24T12:42:06.886Z,,,1,AV,2694.716000000015,,,,1303316.3000000003,1303316.1,1300604.707,1300618.6,1300621.384,1303323.19,,grey
Fixation,canvas.Screen,2_20_0_0,2022-06-24T12:42:08.412Z,,,1,A,1533.971000000136,timeout,,,1304842.1,1304840.487,1303306.513,1303317.3000000003,1303323.19,1304857.161,,black
Stimulus,canvas.Screen,2_20_0_1,2022-06-24T12:42:08.512Z,,,1,A,100.68900000001304,timeout,,,1304942.1999999997,1304941.17,1304840.487,1304842.4,1304857.161,1304957.85,,black
Reaction,canvas.Screen,2_20_0_2,2022-06-24T12:42:08.676Z,,,1,A,147.1499999994412,response,stim_detected,mousedown,1305106.4999999995,1305104.9999999995,1304941.17,1304942.4,1304957.85,1305124.389,,black
Trial,flow.Sequence,2_20_0,2022-06-24T12:42:08.676Z,,,1,A,1781.8099999995902,completion,,,1305106.9,1305104.9999999995,1303306.513,1303317.1999999997,1303323.19,1305124.389,,black
Frame,canvas.Frame,2_20,2022-06-24T12:42:08.677Z,,,1,A,1783.8099999995902,,,,1305107.1999999997,1305106.9999999995,1303306.513,1303316.4999999995,1303323.19,1305124.389,,black
Fixation,canvas.Screen,2_21_0_0,2022-06-24T12:42:10.414Z,,,1,A,1735.091999999946,timeout,,,1306844.1999999997,1306842.798,1305107.712,1305108.4,1305124.389,1306859.481,,black
Stimulus,canvas.Screen,2_21_0_1,2022-06-24T12:42:10.513Z,,,1,A,99.15700000012293,timeout,,,1306943.3000000003,1306941.964,1306842.798,1306844.4999999995,1306859.481,1306958.638,,black
Reaction,canvas.Screen,2_21_0_2,2022-06-24T12:42:10.727Z,,,1,A,197.36199999949895,response,stim_detected,mousedown,1307157.4,1307155.9999999995,1306941.964,1306943.4999999995,1306958.638,1307159.061,,black
Trial,flow.Sequence,2_21_0,2022-06-24T12:42:10.727Z,,,1,A,2031.6109999995679,completion,,,1307157.9,1307155.9999999995,1305107.712,1305108.1999999997,1305124.389,1307159.061,,black
Frame,canvas.Frame,2_21,2022-06-24T12:42:10.728Z,,,1,A,2033.6109999995679,,,,1307158.1,1307157.9999999995,1305107.712,1305107.4,1305124.389,1307159.061,,black
Fixation,canvas.Screen,2_22_0_0,2022-06-24T12:42:12.448Z,,,0,V,1734.847000000067,timeout,,,1308878.4999999995,1308877.227,1307142.384,1307159.4,1307159.061,1308893.908,,grey
Stimulus,canvas.Screen,2_22_0_1,2022-06-24T12:42:12.548Z,,,0,V,99.75499999988824,timeout,,,1308978.8000000003,1308976.986,1308877.227,1308878.9,1308893.908,1308993.663,,grey
Reaction,canvas.Screen,2_22_0_2,2022-06-24T12:42:12.699Z,,,0,V,134.2369999999646,response,stim_detected,mousedown,1309129.4,1309127.9,1308976.986,1308979.1999999997,1308993.663,1309143.71,,grey
Trial,flow.Sequence,2_22_0,2022-06-24T12:42:12.700Z,,,0,V,1968.83899999992,completion,,,1309129.9,1309127.9,1307142.384,1307159.3000000003,1307159.061,1309143.71,,grey
Frame,canvas.Frame,2_22,2022-06-24T12:42:12.700Z,,,0,V,1970.9389999995474,,,,1309130.3000000003,1309129.9999999995,1307142.384,1307158.4,1307159.061,1309143.71,,grey
Fixation,canvas.Screen,2_23_0_0,2022-06-24T12:42:14.651Z,,,1,A,1952.6680000000633,timeout,,,1311080.4999999995,1311079.689,1309127.033,1309131.4,1309143.71,1311096.378,,black
Stimulus,canvas.Screen,2_23_0_1,2022-06-24T12:42:14.750Z,,,1,A,98.1589999999851,timeout,,,1311179.4999999995,1311177.864,1311079.689,1311080.6999999997,1311096.378,1311194.537,,black
Reaction,canvas.Screen,2_23_0_2,2022-06-24T12:42:16.251Z,,,1,A,1501.5130000000354,timeout,,,1312680.4999999995,1312679.373,1311177.864,1311179.8000000003,1311194.537,1312696.05,,black
Trial,flow.Sequence,2_23_0,2022-06-24T12:42:16.251Z,,,1,A,3535.6629999999423,completion,,,1312680.9,1312679.373,1309127.033,1309131.3000000003,1309143.71,1312696.05,,black
Frame,canvas.Frame,2_23,2022-06-24T12:42:16.251Z,,,1,A,3537.3900000001304,,,,1312681.3000000003,1312681.1,1309127.033,1309130.4999999995,1309143.71,1312712.727,,black
Fixation,canvas.Screen,2_24_0_0,2022-06-24T12:42:18.186Z,,,1,A,1917.902999999933,timeout,,,1314615.6999999997,1314613.953,1312696.05,1312682.1999999997,1312712.727,1314630.63,,black
Stimulus,canvas.Screen,2_24_0_1,2022-06-24T12:42:18.283Z,,,1,A,97.80100000021048,timeout,,,1314712.6,1314711.773,1314613.953,1314615.9,1314630.63,1314728.431,,black
Reaction,canvas.Screen,2_24_0_2,2022-06-24T12:42:18.502Z,,,1,A,201.46899999980815,response,stim_detected,mousedown,1314931.3000000003,1314929.9,1314711.773,1314712.9,1314728.431,1314947.649,,black
Trial,flow.Sequence,2_24_0,2022-06-24T12:42:18.502Z,,,1,A,2217.1729999999516,completion,,,1314931.6,1314929.9,1312696.05,1312682.1,1312712.727,1314947.649,,black
Frame,canvas.Frame,2_24,2022-06-24T12:42:18.502Z,,,1,A,2219.073000000324,,,,1314931.9999999995,1314931.8000000003,1312696.05,1312681.4,1312712.727,1314947.649,,black
Fixation,canvas.Screen,2_25_0_0,2022-06-24T12:42:20.637Z,,,1,A,2134.6410000000615,timeout,,,1317066.6999999997,1317065.613,1314930.971,1314933.3000000003,1314947.649,1317082.29,,black
Stimulus,canvas.Screen,2_25_0_1,2022-06-24T12:42:20.737Z,,,1,A,100.07599999988452,timeout,,,1317166.9,1317165.689,1317065.613,1317066.9999999995,1317082.29,1317182.366,,black
Reaction,canvas.Screen,2_25_0_2,2022-06-24T12:42:20.994Z,,,1,A,239.5339999999851,response,stim_detected,mousedown,1317423.3000000003,1317421.9,1317165.689,1317166.9999999995,1317182.366,1317432.614,,black
Trial,flow.Sequence,2_25_0,2022-06-24T12:42:20.994Z,,,1,A,2474.250999999931,completion,,,1317423.6999999997,1317421.9,1314930.971,1314933.1999999997,1314947.649,1317432.614,,black
Frame,canvas.Frame,2_25,2022-06-24T12:42:20.994Z,,,1,A,2476.250999999931,,,,1317424.1,1317423.9,1314930.971,1314932.1999999997,1314947.649,1317432.614,,black
Fixation,canvas.Screen,2_26_0_0,2022-06-24T12:42:22.855Z,,,0,V,1867.3079999999609,timeout,,,1319284.8000000003,1319283.249,1317415.937,1317425.1,1317432.614,1319299.922,,grey
Stimulus,canvas.Screen,2_26_0_1,2022-06-24T12:42:22.955Z,,,0,V,100.74200000008568,timeout,,,1319384.9999999995,1319383.985,1319283.249,1319284.9999999995,1319299.922,1319400.664,,grey
Reaction,canvas.Screen,2_26_0_2,2022-06-24T12:42:23.284Z,,,0,V,311.2359999998007,response,stim_detected,mousedown,1319713.4,1319711.9,1319383.985,1319385.1999999997,1319400.664,1319734.124,,grey
Trial,flow.Sequence,2_26_0,2022-06-24T12:42:23.284Z,,,0,V,2279.2859999998473,completion,,,1319713.6999999997,1319711.9,1317415.937,1317424.9999999995,1317432.614,1319734.124,,grey
Frame,canvas.Frame,2_26,2022-06-24T12:42:23.284Z,,,0,V,2281.18600000022,,,,1319714.1,1319713.8000000003,1317415.937,1317424.1999999997,1317432.614,1319734.124,,grey
Fixation,canvas.Screen,2_27_0_0,2022-06-24T12:42:25.558Z,,,1,A,2269.344000000041,timeout,,,1321987.9999999995,1321986.782,1319700.77,1319715.1999999997,1319734.124,1322003.468,,black
Stimulus,canvas.Screen,2_27_0_1,2022-06-24T12:42:25.657Z,,,1,A,98.71199999982491,timeout,,,1322086.9999999995,1322085.504,1321986.782,1321988.4,1322003.468,1322102.18,,black
Reaction,canvas.Screen,2_27_0_2,2022-06-24T12:42:26.081Z,,,1,A,406.6200000003446,response,stim_detected,mousedown,1322510.3000000003,1322508.8000000003,1322085.504,1322087.3000000003,1322102.18,1322519.306,,black
Trial,flow.Sequence,2_27_0,2022-06-24T12:42:26.081Z,,,1,A,2774.6760000002105,completion,,,1322510.6999999997,1322508.8000000003,1319700.77,1319715.1,1319734.124,1322519.306,,black
Frame,canvas.Frame,2_27,2022-06-24T12:42:26.081Z,,,1,A,2776.6760000002105,,,,1322511.1,1322510.8000000003,1319700.77,1319714.3000000003,1319734.124,1322519.306,,black
Fixation,canvas.Screen,2_28_0_0,2022-06-24T12:42:28.460Z,,,1,A,2385.899999999907,timeout,,,1324890.1999999997,1324888.522,1322502.629,1322512.1999999997,1322519.306,1324905.206,,black
Stimulus,canvas.Screen,2_28_0_1,2022-06-24T12:42:28.559Z,,,1,A,98.85299999988638,timeout,,,1324989.1999999997,1324987.383,1324888.522,1324890.4999999995,1324905.206,1325004.059,,black
Reaction,canvas.Screen,2_28_0_2,2022-06-24T12:42:28.825Z,,,1,A,249.74100000038743,response,stim_detected,mousedown,1325255.1999999997,1325253.8000000003,1324987.383,1324989.4999999995,1325004.059,1325271.213,,black
Trial,flow.Sequence,2_28_0,2022-06-24T12:42:28.826Z,,,1,A,2734.4940000001807,completion,,,1325255.6,1325253.8000000003,1322502.629,1322511.9999999995,1322519.306,1325271.213,,black
Frame,canvas.Frame,2_28,2022-06-24T12:42:28.826Z,,,1,A,2736.4940000001807,,,,1325255.9,1325255.8000000003,1322502.629,1322511.3000000003,1322519.306,1325271.213,,black
Fixation,canvas.Screen,2_29_0_0,2022-06-24T12:42:30.960Z,,,1,A,2134.6650000000373,timeout,,,1327390.3000000003,1327389.201,1325254.536,1325257.1,1325271.213,1327405.878,,black
Stimulus,canvas.Screen,2_29_0_1,2022-06-24T12:42:31.061Z,,,1,A,99.68299999996088,timeout,,,1327490.4,1327488.887,1327389.201,1327390.4999999995,1327405.878,1327505.561,,black
Reaction,canvas.Screen,2_29_0_2,2022-06-24T12:42:31.296Z,,,1,A,218.23900000029244,response,stim_detected,mousedown,1327725.6999999997,1327723.8000000003,1327488.887,1327490.6999999997,1327505.561,1327739.528,,black
Trial,flow.Sequence,2_29_0,2022-06-24T12:42:31.296Z,,,1,A,2452.5870000002906,completion,,,1327726.1,1327723.8000000003,1325254.536,1325256.9999999995,1325271.213,1327739.528,,black
Frame,canvas.Frame,2_29,2022-06-24T12:42:31.297Z,,,1,A,2455.0870000002906,,,,1327726.4999999995,1327726.3000000003,1325254.536,1325256.1,1325271.213,1327739.528,,black
Fixation,canvas.Screen,2_30_0_0,2022-06-24T12:42:33.412Z,,,0,V,2116.8310000000056,timeout,,,1329841.3000000003,1329839.69,1327722.851,1327727.4999999995,1327739.528,1329856.359,,grey
Stimulus,canvas.Screen,2_30_0_1,2022-06-24T12:42:33.513Z,,,0,V,101.1929999999702,timeout,,,1329942.4999999995,1329940.875,1329839.69,1329841.6,1329856.359,1329957.552,,grey
Reaction,canvas.Screen,2_30_0_2,2022-06-24T12:42:33.734Z,,,0,V,205.14799999981187,response,stim_detected,mousedown,1330164.1999999997,1330162.6999999997,1329940.875,1329942.6999999997,1329957.552,1330174.461,,grey
Trial,flow.Sequence,2_30_0,2022-06-24T12:42:33.735Z,,,0,V,2423.1719999997877,completion,,,1330164.6999999997,1330162.6999999997,1327722.851,1327727.4,1327739.528,1330174.461,,grey
Frame,canvas.Frame,2_30,2022-06-24T12:42:33.735Z,,,0,V,2425.1719999997877,,,,1330164.9999999995,1330164.6999999997,1327722.851,1327726.6,1327739.528,1330174.461,,grey
Fixation,canvas.Screen,2_31_0_0,2022-06-24T12:42:36.015Z,,,1,A,2285.340000000084,timeout,,,1332444.6,1332443.12,1330157.784,1330165.9,1330174.461,1332459.801,,black
Stimulus,canvas.Screen,2_31_0_1,2022-06-24T12:42:36.114Z,,,1,A,99.49900000006892,timeout,,,1332543.4,1332542.623,1332443.12,1332444.9,1332459.801,1332559.3,,black
Reaction,canvas.Screen,2_31_0_2,2022-06-24T12:42:36.658Z,,,1,A,526.399999999674,response,stim_detected,mousedown,1333087.1999999997,1333085.6999999997,1332542.623,1332543.6999999997,1332559.3,1333093.075,,black
Trial,flow.Sequence,2_31_0,2022-06-24T12:42:36.658Z,,,1,A,2911.238999999827,completion,,,1333087.6999999997,1333085.6999999997,1330157.784,1330165.9,1330174.461,1333093.075,,black
Frame,canvas.Frame,2_31,2022-06-24T12:42:36.658Z,,,1,A,2913.439000000013,,,,1333088.1,1333087.9,1330157.784,1330165.1,1330174.461,1333093.075,,black
Fixation,canvas.Screen,2_32_0_0,2022-06-24T12:42:38.266Z,,,1,AV,1618.0090000000782,timeout,,,1334695.4999999995,1334694.404,1333076.398,1333089.3000000003,1333093.075,1334711.084,,grey
Stimulus,canvas.Screen,2_32_0_1,2022-06-24T12:42:38.366Z,,,1,AV,99.75300000002608,timeout,,,1334795.3000000003,1334794.16,1334694.404,1334695.8000000003,1334711.084,1334810.837,,grey
Reaction,canvas.Screen,2_32_0_2,2022-06-24T12:42:38.541Z,,,1,AV,158.86299999966286,response,stim_detected,mousedown,1334971.1999999997,1334969.6999999997,1334794.16,1334795.4999999995,1334810.837,1334977.66,,grey
Trial,flow.Sequence,2_32_0,2022-06-24T12:42:38.542Z,,,1,AV,1876.6249999997672,completion,,,1334971.6,1334969.6999999997,1333076.398,1333089.1,1333093.075,1334977.66,,grey
Frame,canvas.Frame,2_32,2022-06-24T12:42:38.542Z,,,1,AV,1878.6249999997672,,,,1334971.9,1334971.6999999997,1333076.398,1333088.1999999997,1333093.075,1334977.66,,grey
Fixation,canvas.Screen,2_33_0_0,2022-06-24T12:42:40.435Z,,,1,AV,1902.1530000001658,timeout,,,1336864.6999999997,1336863.128,1334960.983,1334972.9,1334977.66,1336879.813,,grey
Stimulus,canvas.Screen,2_33_0_1,2022-06-24T12:42:40.534Z,,,1,AV,99.24199999985285,timeout,,,1336963.6,1336962.378,1336863.128,1336864.9,1336879.813,1336979.055,,grey
Reaction,canvas.Screen,2_33_0_2,2022-06-24T12:42:40.690Z,,,1,AV,138.6449999997858,response,stim_detected,mousedown,1337119.1999999997,1337117.6999999997,1336962.378,1336963.9,1336979.055,1337129.112,,grey
Trial,flow.Sequence,2_33_0,2022-06-24T12:42:40.690Z,,,1,AV,2140.0399999998044,completion,,,1337119.6999999997,1337117.6999999997,1334960.983,1334972.8000000003,1334977.66,1337129.112,,grey
Frame,canvas.Frame,2_33,2022-06-24T12:42:40.690Z,,,1,AV,2142.140000000363,,,,1337120.1,1337119.8000000003,1334960.983,1334971.9999999995,1334977.66,1337129.112,,grey
Fixation,canvas.Screen,2_34_0_0,2022-06-24T12:42:42.886Z,,,1,AV,2202.4610000001267,timeout,,,1339315.8000000003,1339314.888,1337112.435,1337121.1,1337129.112,1339331.573,,grey
Stimulus,canvas.Screen,2_34_0_1,2022-06-24T12:42:42.985Z,,,1,AV,98.75799999991432,timeout,,,1339414.9999999995,1339413.656,1339314.888,1339315.9999999995,1339331.573,1339430.331,,grey
Reaction,canvas.Screen,2_34_0_2,2022-06-24T12:42:43.154Z,,,1,AV,152.36899999971502,response,stim_detected,mousedown,1339584.1,1339582.6999999997,1339413.656,1339415.1999999997,1339430.331,1339597.445,,grey
Trial,flow.Sequence,2_34_0,2022-06-24T12:42:43.155Z,,,1,AV,2453.587999999756,completion,,,1339584.4999999995,1339582.6999999997,1337112.435,1337121.1,1337129.112,1339597.445,,grey
Frame,canvas.Frame,2_34,2022-06-24T12:42:43.155Z,,,1,AV,2455.587999999756,,,,1339584.8000000003,1339584.6999999997,1337112.435,1337120.3000000003,1337129.112,1339597.445,,grey
Fixation,canvas.Screen,2_35_0_0,2022-06-24T12:42:45.620Z,,,0,V,2467.3950000000186,timeout,,,1342049.9999999995,1342048.168,1339580.768,1339585.9,1339597.445,1342064.84,,grey
Stimulus,canvas.Screen,2_35_0_1,2022-06-24T12:42:45.721Z,,,0,V,101.06400000001304,timeout,,,1342150.9999999995,1342149.225,1342048.168,1342050.1999999997,1342064.84,1342165.904,,grey
Reaction,canvas.Screen,2_35_0_2,2022-06-24T12:42:45.880Z,,,0,V,142.69599999999627,response,stim_detected,mousedown,1342309.9999999995,1342308.6,1342149.225,1342151.3000000003,1342165.904,1342315.889,,grey
Trial,flow.Sequence,2_35_0,2022-06-24T12:42:45.881Z,,,0,V,2711.155000000028,completion,,,1342310.4999999995,1342308.6,1339580.768,1339585.6999999997,1339597.445,1342315.889,,grey
Frame,canvas.Frame,2_35,2022-06-24T12:42:45.881Z,,,0,V,2713.155000000028,,,,1342310.8000000003,1342310.6,1339580.768,1339584.9999999995,1339597.445,1342315.889,,grey
Fixation,canvas.Screen,2_36_0_0,2022-06-24T12:42:47.840Z,,,0,V,1969.3580000000075,timeout,,,1344269.9999999995,1344268.558,1342299.212,1342311.8000000003,1342315.889,1344285.247,,grey
Stimulus,canvas.Screen,2_36_0_1,2022-06-24T12:42:47.938Z,,,0,V,98.65200000000186,timeout,,,1344367.9999999995,1344367.222,1344268.558,1344270.3000000003,1344285.247,1344383.899,,grey
Reaction,canvas.Screen,2_36_0_2,2022-06-24T12:42:48.137Z,,,0,V,181.70100000011735,response,stim_detected,mousedown,1344567.1,1344565.6,1344367.222,1344368.3000000003,1344383.899,1344584.101,,grey
Trial,flow.Sequence,2_36_0,2022-06-24T12:42:48.138Z,,,0,V,2249.7110000001267,completion,,,1344567.4999999995,1344565.6,1342299.212,1342311.8000000003,1342315.889,1344584.101,,grey
Frame,canvas.Frame,2_36,2022-06-24T12:42:48.138Z,,,0,V,2251.7110000001267,,,,1344567.8000000003,1344567.6,1342299.212,1342310.9,1342315.889,1344584.101,,grey
Fixation,canvas.Screen,2_37_0_0,2022-06-24T12:42:50.207Z,,,1,AV,2068.56799999997,timeout,,,1346637.1999999997,1346635.987,1344567.424,1344568.9999999995,1344584.101,1346652.669,,grey
Stimulus,canvas.Screen,2_37_0_1,2022-06-24T12:42:50.306Z,,,1,AV,98.91400000010617,timeout,,,1346736.1999999997,1346734.91,1346635.987,1346637.4999999995,1346652.669,1346751.583,,grey
Reaction,canvas.Screen,2_37_0_2,2022-06-24T12:42:50.466Z,,,1,AV,143.01699999999255,response,stim_detected,mousedown,1346896.1,1346894.6,1346734.91,1346736.4,1346751.583,1346902.33,,grey
Trial,flow.Sequence,2_37_0,2022-06-24T12:42:50.467Z,,,1,AV,2310.499000000069,completion,,,1346896.4999999995,1346894.6,1344567.424,1344568.9,1344584.101,1346902.33,,grey
Frame,canvas.Frame,2_37,2022-06-24T12:42:50.467Z,,,1,AV,2312.5989999996964,,,,1346896.9,1346896.6999999997,1344567.424,1344567.9999999995,1344584.101,1346902.33,,grey
Fixation,canvas.Screen,2_38_0_0,2022-06-24T12:42:52.641Z,,,1,A,2183.55299999984,timeout,,,1349070.3000000003,1349069.214,1346885.653,1346897.9999999995,1346902.33,1349085.883,,black
Stimulus,canvas.Screen,2_38_0_1,2022-06-24T12:42:52.743Z,,,1,A,101.35200000018813,timeout,,,1349172.3000000003,1349170.555,1349069.214,1349070.6,1349085.883,1349187.235,,black
Reaction,canvas.Screen,2_38_0_2,2022-06-24T12:42:52.907Z,,,1,A,148.3649999999907,response,stim_detected,mousedown,1349336.9999999995,1349335.6,1349170.555,1349172.6,1349187.235,1349353.967,,black
Trial,flow.Sequence,2_38_0,2022-06-24T12:42:52.908Z,,,1,A,2433.2700000000186,completion,,,1349337.4999999995,1349335.6,1346885.653,1346897.8000000003,1346902.33,1349353.967,,black
Frame,canvas.Frame,2_38,2022-06-24T12:42:52.908Z,,,1,A,2435.2700000000186,,,,1349337.8000000003,1349337.6,1346885.653,1346897.1,1346902.33,1349353.967,,black
Fixation,canvas.Screen,2_39_0_0,2022-06-24T12:42:55.293Z,,,1,A,2383.407000000123,timeout,,,1351722.4999999995,1351720.706,1349337.29,1349338.9999999995,1349353.967,1351737.374,,black
Stimulus,canvas.Screen,2_39_0_1,2022-06-24T12:42:55.394Z,,,1,A,101.61199999996461,timeout,,,1351823.4999999995,1351822.306,1351720.706,1351722.6999999997,1351737.374,1351838.986,,black
Reaction,canvas.Screen,2_39_0_2,2022-06-24T12:42:55.615Z,,,1,A,204.5139999995008,response,stim_detected,mousedown,1352045.1,1352043.4999999995,1351822.306,1351823.6999999997,1351838.986,1352055.747,,black
Trial,flow.Sequence,2_39_0,2022-06-24T12:42:55.616Z,,,1,A,2689.5329999995884,completion,,,1352045.4999999995,1352043.4999999995,1349337.29,1349338.9999999995,1349353.967,1352055.747,,black
Frame,canvas.Frame,2_39,2022-06-24T12:42:55.616Z,,,1,A,2691.5329999995884,,,,1352045.8000000003,1352045.4999999995,1349337.29,1349337.9999999995,1349353.967,1352055.747,,black
Fixation,canvas.Screen,2_40_0_0,2022-06-24T12:42:57.579Z,,,1,A,1968.2920000001322,timeout,,,1354008.4,1354007.359,1352039.07,1352046.6999999997,1352055.747,1354024.039,,black
Stimulus,canvas.Screen,2_40_0_1,2022-06-24T12:42:57.678Z,,,1,A,99.2699999997858,timeout,,,1354107.4,1354106.635,1354007.359,1354008.6999999997,1354024.039,1354123.309,,black
Reaction,canvas.Screen,2_40_0_2,2022-06-24T12:42:57.891Z,,,1,A,196.19099999964237,response,stim_detected,mousedown,1354320.9999999995,1354319.4999999995,1354106.635,1354107.6999999997,1354123.309,1354323.929,,black
Trial,flow.Sequence,2_40_0,2022-06-24T12:42:57.892Z,,,1,A,2263.7529999995604,completion,,,1354321.4999999995,1354319.4999999995,1352039.07,1352046.6999999997,1352055.747,1354323.929,,black
Frame,canvas.Frame,2_40,2022-06-24T12:42:57.892Z,,,1,A,2265.9529999997467,,,,1354321.9,1354321.6999999997,1352039.07,1352045.9,1352055.747,1354323.929,,black
Fixation,canvas.Screen,2_41_0_0,2022-06-24T12:43:00.048Z,,,1,AV,2169.344999999972,timeout,,,1356477.4999999995,1356476.587,1354307.252,1354323.1,1354323.929,1356493.274,,grey
Stimulus,canvas.Screen,2_41_0_1,2022-06-24T12:43:00.147Z,,,1,AV,98.77700000000186,timeout,,,1356576.8000000003,1356575.374,1356476.587,1356477.8000000003,1356493.274,1356592.051,,grey
Reaction,canvas.Screen,2_41_0_2,2022-06-24T12:43:00.312Z,,,1,AV,148.4489999995567,response,stim_detected,mousedown,1356742.1999999997,1356740.4999999995,1356575.374,1356576.9999999995,1356592.051,1356757.105,,grey
Trial,flow.Sequence,2_41_0,2022-06-24T12:43:00.313Z,,,1,AV,2416.5709999995306,completion,,,1356742.6,1356740.4999999995,1354307.252,1354322.9999999995,1354323.929,1356757.105,,grey
Frame,canvas.Frame,2_41,2022-06-24T12:43:00.313Z,,,1,AV,2418.770999999717,,,,1356742.9,1356742.6999999997,1354307.252,1354322.1,1354323.929,1356757.105,,grey
Fixation,canvas.Screen,2_42_0_0,2022-06-24T12:43:02.231Z,,,1,AV,1919.155000000028,timeout,,,1358660.8000000003,1358659.587,1356740.557,1356744.3000000003,1356757.105,1358676.26,,grey
Stimulus,canvas.Screen,2_42_0_1,2022-06-24T12:43:02.332Z,,,1,AV,100.69399999990128,timeout,,,1358761.6,1358760.261,1358659.587,1358660.9,1358676.26,1358776.954,,grey
Reaction,canvas.Screen,2_42_0_2,2022-06-24T12:43:02.472Z,,,1,AV,123.44599999999627,response,stim_detected,mousedown,1358901.9,1358900.4,1358760.261,1358761.9,1358776.954,1358927.047,,grey
Trial,flow.Sequence,2_42_0,2022-06-24T12:43:02.472Z,,,1,AV,2143.2949999999255,completion,,,1358902.1999999997,1358900.4,1356740.557,1356744.3000000003,1356757.105,1358927.047,,grey
Frame,canvas.Frame,2_42,2022-06-24T12:43:02.473Z,,,1,AV,2145.2949999999255,,,,1358902.4999999995,1358902.4,1356740.557,1356743.3000000003,1356757.105,1358927.047,,grey
Fixation,canvas.Screen,2_43_0_0,2022-06-24T12:43:04.266Z,,,0,V,1784.2009999998845,timeout,,,1360695.8000000003,1360694.573,1358893.693,1358903.6,1358927.047,1360711.248,,grey
Stimulus,canvas.Screen,2_43_0_1,2022-06-24T12:43:04.366Z,,,0,V,99.62900000018999,timeout,,,1360795.8000000003,1360794.206,1360694.573,1360696.1999999997,1360711.248,1360810.877,,grey
Reaction,canvas.Screen,2_43_0_2,2022-06-24T12:43:04.530Z,,,0,V,147.52299999981187,response,stim_detected,mousedown,1360959.8000000003,1360958.4,1360794.206,1360796.1,1360810.877,1360961.739,,grey
Trial,flow.Sequence,2_43_0,2022-06-24T12:43:04.531Z,,,0,V,2031.3529999998864,completion,,,1360960.3000000003,1360958.4,1358893.693,1358903.4999999995,1358927.047,1360961.739,,grey
Frame,canvas.Frame,2_43,2022-06-24T12:43:04.531Z,,,0,V,2033.3529999998864,,,,1360960.6,1360960.4,1358893.693,1358902.8000000003,1358927.047,1360961.739,,grey
Fixation,canvas.Screen,2_44_0_0,2022-06-24T12:43:06.350Z,,,0,V,1833.7399999999907,timeout,,,1362779.9,1362778.808,1360945.061,1360961.9,1360961.739,1362795.479,,grey
Stimulus,canvas.Screen,2_44_0_1,2022-06-24T12:43:06.451Z,,,0,V,100.88899999996647,timeout,,,1362880.8000000003,1362879.688,1362778.808,1362780.1,1362795.479,1362896.368,,grey
Reaction,canvas.Screen,2_44_0_2,2022-06-24T12:43:06.702Z,,,0,V,234.0319999998901,response,stim_detected,mousedown,1363131.9,1363130.4,1362879.688,1362880.9999999995,1362896.368,1363146.478,,grey
Trial,flow.Sequence,2_44_0,2022-06-24T12:43:06.703Z,,,0,V,2168.6609999998473,completion,,,1363132.3000000003,1363130.4,1360945.061,1360961.8000000003,1360961.739,1363146.478,,grey
Frame,canvas.Frame,2_44,2022-06-24T12:43:06.703Z,,,0,V,2170.6609999998473,,,,1363132.6,1363132.4,1360945.061,1360960.8000000003,1360961.739,1363146.478,,grey
Fixation,canvas.Screen,2_45_0_0,2022-06-24T12:43:08.537Z,,,0,V,1836.0220000001136,timeout,,,1364966.9999999995,1364965.81,1363129.801,1363133.6,1363146.478,1364982.5,,grey
Stimulus,canvas.Screen,2_45_0_1,2022-06-24T12:43:08.636Z,,,0,V,98.57799999997951,timeout,,,1365065.9999999995,1365064.401,1364965.81,1364967.3000000003,1364982.5,1365081.078,,grey
Reaction,canvas.Screen,2_45_0_2,2022-06-24T12:43:08.910Z,,,0,V,257.32199999992736,response,stim_detected,mousedown,1365339.8000000003,1365338.4,1365064.401,1365066.3000000003,1365081.078,1365347.999,,grey
Trial,flow.Sequence,2_45_0,2022-06-24T12:43:08.910Z,,,0,V,2191.9220000000205,completion,,,1365340.3000000003,1365338.4,1363129.801,1363133.4999999995,1363146.478,1365347.999,,grey
Frame,canvas.Frame,2_45,2022-06-24T12:43:08.911Z,,,0,V,2193.9220000000205,,,,1365340.6,1365340.4,1363129.801,1363132.8000000003,1363146.478,1365347.999,,grey
Fixation,canvas.Screen,2_46_0_0,2022-06-24T12:43:11.202Z,,,1,A,2300.0159999998286,timeout,,,1367632.1999999997,1367631.347,1365331.322,1365341.6,1365347.999,1367648.015,,black
Stimulus,canvas.Screen,2_46_0_1,2022-06-24T12:43:11.304Z,,,1,A,101.38400000007823,timeout,,,1367734.1,1367732.723,1367631.347,1367632.3000000003,1367648.015,1367749.399,,black
Reaction,canvas.Screen,2_46_0_2,2022-06-24T12:43:11.585Z,,,1,A,264.0009999999311,response,stim_detected,mousedown,1368014.9,1368013.4,1367732.723,1367734.4,1367749.399,1368016.432,,black
Trial,flow.Sequence,2_46_0,2022-06-24T12:43:11.586Z,,,1,A,2665.400999999838,completion,,,1368015.3000000003,1368013.4,1365331.322,1365341.4999999995,1365347.999,1368016.432,,black
Frame,canvas.Frame,2_46,2022-06-24T12:43:11.586Z,,,1,A,2667.400999999838,,,,1368015.6,1368015.4,1365331.322,1365340.8000000003,1365347.999,1368016.432,,black
Fixation,canvas.Screen,2_47_0_0,2022-06-24T12:43:13.189Z,,,0,V,1618.0679999999702,timeout,,,1369619.1999999997,1369617.819,1367999.755,1368016.6,1368016.432,1369634.5,,grey
Stimulus,canvas.Screen,2_47_0_1,2022-06-24T12:43:13.289Z,,,0,V,99.58100000000559,timeout,,,1369718.3000000003,1369717.405,1369617.819,1369619.4999999995,1369634.5,1369734.081,,grey
Reaction,canvas.Screen,2_47_0_2,2022-06-24T12:43:13.485Z,,,0,V,179.31899999990128,response,stim_detected,mousedown,1369914.8000000003,1369913.4,1369717.405,1369718.6,1369734.081,1369917.716,,grey
Trial,flow.Sequence,2_47_0,2022-06-24T12:43:13.485Z,,,0,V,1896.967999999877,completion,,,1369915.1999999997,1369913.4,1367999.755,1368016.6,1368016.432,1369917.716,,grey
Frame,canvas.Frame,2_47,2022-06-24T12:43:13.486Z,,,0,V,1898.8680000002496,,,,1369915.4999999995,1369915.3000000003,1367999.755,1368015.8000000003,1368016.432,1369917.716,,grey
Fixation,canvas.Screen,2_48_0_0,2022-06-24T12:43:15.441Z,,,0,V,1968.1180000000168,timeout,,,1371870.4,1371869.155,1369901.039,1369916.4999999995,1369917.716,1371885.834,,grey
Stimulus,canvas.Screen,2_48_0_1,2022-06-24T12:43:15.540Z,,,0,V,99.22099999990314,timeout,,,1371969.3000000003,1371968.383,1371869.155,1371870.6999999997,1371885.834,1371985.055,,grey
Reaction,canvas.Screen,2_48_0_2,2022-06-24T12:43:15.676Z,,,0,V,118.34499999997206,response,stim_detected,mousedown,1372104.9,1372103.4,1371968.383,1371969.6,1371985.055,1372119.206,,grey
Trial,flow.Sequence,2_48_0,2022-06-24T12:43:15.676Z,,,0,V,2185.683999999892,completion,,,1372105.3000000003,1372103.4,1369901.039,1369916.4999999995,1369917.716,1372119.206,,grey
Frame,canvas.Frame,2_48,2022-06-24T12:43:15.676Z,,,0,V,2187.683999999892,,,,1372105.6,1372105.4,1369901.039,1369915.6999999997,1369917.716,1372119.206,,grey
Fixation,canvas.Screen,2_49_0_0,2022-06-24T12:43:18.159Z,,,1,AV,2484.872999999905,timeout,,,1374588.4999999995,1374587.402,1372102.528,1372106.6,1372119.206,1374604.079,,grey
Stimulus,canvas.Screen,2_49_0_1,2022-06-24T12:43:18.259Z,,,1,AV,99.78900000010617,timeout,,,1374688.4999999995,1374687.193,1374587.402,1374588.8000000003,1374604.079,1374703.868,,grey
Reaction,canvas.Screen,2_49_0_2,2022-06-24T12:43:18.389Z,,,1,AV,112.5319999998901,response,stim_detected,mousedown,1374817.9999999995,1374816.4,1374687.193,1374688.6,1374703.868,1374820.994,,grey
Trial,flow.Sequence,2_49_0,2022-06-24T12:43:18.389Z,,,1,AV,2697.1939999999013,completion,,,1374818.4999999995,1374816.4,1372102.528,1372106.4999999995,1372119.206,1374820.994,,grey
Frame,canvas.Frame,2_49,2022-06-24T12:43:18.390Z,,,1,AV,2699.3940000000875,,,,1374818.8000000003,1374818.6,1372102.528,1372105.8000000003,1372119.206,1374820.994,,grey
Fixation,canvas.Screen,2_50_0_0,2022-06-24T12:43:20.593Z,,,1,A,2216.907000000123,timeout,,,1377022.4999999995,1377021.232,1374804.317,1374819.8000000003,1374820.994,1377037.901,,black
Stimulus,canvas.Screen,2_50_0_1,2022-06-24T12:43:20.694Z,,,1,A,100.74300000001676,timeout,,,1377123.6,1377121.97,1377021.232,1377022.8000000003,1377037.901,1377138.644,,black
Reaction,canvas.Screen,2_50_0_2,2022-06-24T12:43:20.859Z,,,1,A,148.55599999963306,response,stim_detected,mousedown,1377288.6999999997,1377287.1999999997,1377121.97,1377123.8000000003,1377138.644,1377305.954,,black
Trial,flow.Sequence,2_50_0,2022-06-24T12:43:20.860Z,,,1,A,2466.2059999997728,completion,,,1377288.9999999995,1377287.1999999997,1374804.317,1374819.6999999997,1374820.994,1377305.954,,black
Frame,canvas.Frame,2_50,2022-06-24T12:43:20.860Z,,,1,A,2468.2059999997728,,,,1377289.4,1377289.1999999997,1374804.317,1374818.9999999995,1374820.994,1377305.954,,black
Fixation,canvas.Screen,2_51_0_0,2022-06-24T12:43:22.513Z,,,0,V,1651.7730000000447,timeout,,,1378942.6,1378941.043,1377289.277,1377290.4,1377305.954,1378957.727,,grey
Stimulus,canvas.Screen,2_51_0_1,2022-06-24T12:43:22.612Z,,,0,V,99.4429999999702,timeout,,,1379041.6,1379040.493,1378941.043,1378942.8000000003,1378957.727,1379057.17,,grey
Reaction,canvas.Screen,2_51_0_2,2022-06-24T12:43:22.791Z,,,0,V,162.1300000003539,response,stim_detected,mousedown,1379220.6999999997,1379219.3000000003,1379040.493,1379041.9,1379057.17,1379223.895,,grey
Trial,flow.Sequence,2_51_0,2022-06-24T12:43:22.792Z,,,0,V,1913.3460000003688,completion,,,1379220.9999999995,1379219.3000000003,1377289.277,1377290.3000000003,1377305.954,1379223.895,,grey
Frame,canvas.Frame,2_51,2022-06-24T12:43:22.792Z,,,0,V,1915.24599999981,,,,1379221.3000000003,1379221.1999999997,1377289.277,1377289.6,1377305.954,1379223.895,,grey
Fixation,canvas.Screen,2_52_0_0,2022-06-24T12:43:24.481Z,,,1,AV,1702.6450000000186,timeout,,,1380910.6999999997,1380909.848,1379207.218,1379222.4,1379223.895,1380926.54,,grey
Stimulus,canvas.Screen,2_52_0_1,2022-06-24T12:43:24.581Z,,,1,AV,98.63699999987148,timeout,,,1381009.6999999997,1381008.5,1380909.848,1380910.9,1380926.54,1381025.177,,grey
Reaction,canvas.Screen,2_52_0_2,2022-06-24T12:43:24.720Z,,,1,AV,122.22299999999814,response,stim_detected,mousedown,1381148.8000000003,1381147.4,1381008.5,1381009.9999999995,1381025.177,1381158.557,,grey
Trial,flow.Sequence,2_52_0,2022-06-24T12:43:24.720Z,,,1,AV,1923.5049999998882,completion,,,1381149.1999999997,1381147.4,1379207.218,1379222.3000000003,1379223.895,1381158.557,,grey
Frame,canvas.Frame,2_52,2022-06-24T12:43:24.720Z,,,1,AV,1925.4050000002608,,,,1381149.4,1381149.3000000003,1379207.218,1379221.4999999995,1379223.895,1381158.557,,grey
Fixation,canvas.Screen,2_53_0_0,2022-06-24T12:43:26.716Z,,,1,A,2001.6439999998547,timeout,,,1383144.8000000003,1383143.521,1381141.88,1381150.6,1381158.557,1383160.201,,black
Stimulus,canvas.Screen,2_53_0_1,2022-06-24T12:43:26.815Z,,,1,A,99.01700000022538,timeout,,,1383243.8000000003,1383242.546,1383143.521,1383145.1,1383160.201,1383259.218,,black
Reaction,canvas.Screen,2_53_0_2,2022-06-24T12:43:27.042Z,,,1,A,209.9819999996107,response,stim_detected,mousedown,1383470.6999999997,1383469.1999999997,1383242.546,1383244.1,1383259.218,1383493.464,,black
Trial,flow.Sequence,2_53_0,2022-06-24T12:43:27.042Z,,,1,A,2310.642999999691,completion,,,1383471.1999999997,1383469.1999999997,1381141.88,1381150.6,1381158.557,1383493.464,,black
Frame,canvas.Frame,2_53,2022-06-24T12:43:27.042Z,,,1,A,2312.7430000002496,,,,1383471.4999999995,1383471.3000000003,1381141.88,1381149.6,1381158.557,1383493.464,,black
Fixation,canvas.Screen,2_54_0_0,2022-06-24T12:43:29.366Z,,,0,V,2317.3360000001267,timeout,,,1385795.1999999997,1385794.128,1383460.11,1383472.4999999995,1383493.464,1385810.8,,grey
Stimulus,canvas.Screen,2_54_0_1,2022-06-24T12:43:29.467Z,,,0,V,100.88999999989755,timeout,,,1385895.9999999995,1385895.013,1385794.128,1385795.6,1385810.8,1385911.69,,grey
Reaction,canvas.Screen,2_54_0_2,2022-06-24T12:43:29.660Z,,,0,V,175.61000000033528,response,stim_detected,mousedown,1386088.6999999997,1386087.3000000003,1385895.013,1385896.1999999997,1385911.69,1386095.143,,grey
Trial,flow.Sequence,2_54_0,2022-06-24T12:43:29.660Z,,,0,V,2593.8360000003595,completion,,,1386089.1,1386087.3000000003,1383460.11,1383472.3000000003,1383493.464,1386095.143,,grey
Frame,canvas.Frame,2_54,2022-06-24T12:43:29.660Z,,,0,V,2595.8360000003595,,,,1386089.4,1386089.3000000003,1383460.11,1383471.6,1383493.464,1386095.143,,grey
Fixation,canvas.Screen,2_55_0_0,2022-06-24T12:43:31.437Z,,,0,V,1785.9869999999646,timeout,,,1387866.1,1387864.439,1386078.466,1386090.8000000003,1386095.143,1387881.13,,grey
Stimulus,canvas.Screen,2_55_0_1,2022-06-24T12:43:31.535Z,,,0,V,98.58100000000559,timeout,,,1387964.1,1387963.034,1387864.439,1387866.3000000003,1387881.13,1387979.711,,grey
Reaction,canvas.Screen,2_55_0_2,2022-06-24T12:43:31.685Z,,,0,V,133.48899999982677,response,stim_detected,mousedown,1388114.6999999997,1388113.1999999997,1387963.034,1387964.4,1387979.711,1388129.847,,grey
Trial,flow.Sequence,2_55_0,2022-06-24T12:43:31.686Z,,,0,V,2018.056999999797,completion,,,1388115.1,1388113.1999999997,1386078.466,1386090.6,1386095.143,1388129.847,,grey
Frame,canvas.Frame,2_55,2022-06-24T12:43:31.686Z,,,0,V,2019.9570000001695,,,,1388115.3000000003,1388115.1,1386078.466,1386089.6,1386095.143,1388129.847,,grey
Fixation,canvas.Screen,2_56_0_0,2022-06-24T12:43:33.854Z,,,1,A,2169.146999999881,timeout,,,1390283.3000000003,1390282.309,1388113.17,1388116.4999999995,1388129.847,1390298.994,,black
Stimulus,canvas.Screen,2_56_0_1,2022-06-24T12:43:33.954Z,,,1,A,99.15599999995902,timeout,,,1390383.1,1390381.472,1390282.309,1390283.4999999995,1390298.994,1390398.15,,black
Reaction,canvas.Screen,2_56_0_2,2022-06-24T12:43:34.282Z,,,1,A,312.04999999981374,response,stim_detected,mousedown,1390711.6,1390710.1999999997,1390381.472,1390383.4,1390398.15,1390714.943,,black
Trial,flow.Sequence,2_56_0,2022-06-24T12:43:34.283Z,,,1,A,2580.3529999996535,completion,,,1390711.9999999995,1390710.1999999997,1388113.17,1388116.3000000003,1388129.847,1390714.943,,black
Frame,canvas.Frame,2_56,2022-06-24T12:43:34.283Z,,,1,A,2582.253000000026,,,,1390712.3000000003,1390712.1,1388113.17,1388115.6,1388129.847,1390714.943,,black
Fixation,canvas.Screen,2_57_0_0,2022-06-24T12:43:36.238Z,,,1,AV,1967.8859999999404,timeout,,,1392667.3000000003,1392666.152,1390698.266,1390713.3000000003,1390714.943,1392682.829,,grey
Stimulus,canvas.Screen,2_57_0_1,2022-06-24T12:43:36.338Z,,,1,AV,99.77200000011362,timeout,,,1392767.3000000003,1392765.927,1392666.152,1392667.6,1392682.829,1392782.601,,grey
Reaction,canvas.Screen,2_57_0_2,2022-06-24T12:43:36.575Z,,,1,AV,220.5989999996964,response,stim_detected,mousedown,1393004.6999999997,1393003.1999999997,1392765.927,1392767.4999999995,1392782.601,1393016.48,,grey
Trial,flow.Sequence,2_57_0,2022-06-24T12:43:36.576Z,,,1,AV,2288.2569999997504,completion,,,1393004.9999999995,1393003.1999999997,1390698.266,1390713.1999999997,1390714.943,1393016.48,,grey
Frame,canvas.Frame,2_57,2022-06-24T12:43:36.576Z,,,1,AV,2290.157000000123,,,,1393005.3000000003,1393005.1,1390698.266,1390712.4,1390714.943,1393016.48,,grey
Fixation,canvas.Screen,2_58_0_0,2022-06-24T12:43:38.516Z,,,1,AV,1918.3300000000745,timeout,,,1394944.9999999995,1394918.129,1392999.803,1393006.3000000003,1393016.48,1394934.81,,grey
Stimulus,canvas.Screen,2_58_0_1,2022-06-24T12:43:38.590Z,,,1,AV,99.60499999998137,timeout,,,1395019.4,1395017.738,1394918.129,1394945.3000000003,1394934.81,1395034.415,,grey
Reaction,canvas.Screen,2_58_0_2,2022-06-24T12:43:38.743Z,,,1,AV,136.68500000005588,response,stim_detected,mousedown,1395172.6,1395171.1,1395017.738,1395019.6999999997,1395034.415,1395184.56,,grey
Trial,flow.Sequence,2_58_0,2022-06-24T12:43:38.744Z,,,1,AV,2154.6200000001118,completion,,,1395172.9999999995,1395171.1,1392999.803,1393006.1999999997,1393016.48,1395184.56,,grey
Frame,canvas.Frame,2_58,2022-06-24T12:43:38.744Z,,,1,AV,2156.7199999997392,,,,1395173.4,1395173.1999999997,1392999.803,1393005.4999999995,1393016.48,1395184.56,,grey
Fixation,canvas.Screen,2_59_0_0,2022-06-24T12:43:40.943Z,,,1,A,2203.4539999999106,timeout,,,1397372.4999999995,1397371.322,1395167.883,1395174.4999999995,1395184.56,1397388.014,,black
Stimulus,canvas.Screen,2_59_0_1,2022-06-24T12:43:41.041Z,,,1,A,98.17500000004657,timeout,,,1397470.4,1397469.511,1397371.322,1397372.8000000003,1397388.014,1397486.189,,black
Reaction,canvas.Screen,2_59_0_2,2022-06-24T12:43:41.186Z,,,1,A,127.9110000000801,response,stim_detected,mousedown,1397615.6,1397614.1,1397469.511,1397470.6999999997,1397486.189,1397619.563,,black
Trial,flow.Sequence,2_59_0,2022-06-24T12:43:41.187Z,,,1,A,2429.5400000000373,completion,,,1397615.9,1397614.1,1395167.883,1395174.4,1395184.56,1397619.563,,black
Frame,canvas.Frame,2_59,2022-06-24T12:43:41.187Z,,,1,A,2431.5400000000373,,,,1397616.3000000003,1397616.1,1395167.883,1395173.6,1395184.56,1397619.563,,black
Fixation,canvas.Screen,2_60_0_0,2022-06-24T12:43:42.892Z,,,1,AV,1717.8459999999031,timeout,,,1399321.6,1399320.731,1397602.886,1397617.3000000003,1397619.563,1399337.409,,grey
Stimulus,canvas.Screen,2_60_0_1,2022-06-24T12:43:42.992Z,,,1,AV,99.56099999998696,timeout,,,1399421.4999999995,1399420.297,1399320.731,1399321.9,1399337.409,1399436.97,,grey
Reaction,canvas.Screen,2_60_0_2,2022-06-24T12:43:43.162Z,,,1,AV,153.13000000012107,response,stim_detected,mousedown,1399591.4999999995,1399590.1,1399420.297,1399421.8000000003,1399436.97,1399604.193,,grey
Trial,flow.Sequence,2_60_0,2022-06-24T12:43:43.163Z,,,1,AV,1970.5370000000112,completion,,,1399591.8000000003,1399590.1,1397602.886,1397617.1999999997,1397619.563,1399604.193,,grey
Frame,canvas.Frame,2_60,2022-06-24T12:43:43.163Z,,,1,AV,1972.4369999994524,,,,1399592.1999999997,1399591.9999999995,1397602.886,1397616.4,1397619.563,1399604.193,,grey
Fixation,canvas.Screen,2_61_0_0,2022-06-24T12:43:45.112Z,,,1,AV,1951.6030000001192,timeout,,,1401540.6999999997,1401539.116,1399587.516,1399593.1999999997,1399604.193,1401555.796,,grey
Stimulus,canvas.Screen,2_61_0_1,2022-06-24T12:43:45.212Z,,,1,AV,99.85599999991246,timeout,,,1401640.8000000003,1401638.973,1401539.116,1401540.9,1401555.796,1401655.652,,grey
Reaction,canvas.Screen,2_61_0_2,2022-06-24T12:43:45.480Z,,,1,AV,252.34799999953248,response,stim_detected,mousedown,1401909.4999999995,1401907.9999999995,1401638.973,1401641.1,1401655.652,1401922.435,,grey
Trial,flow.Sequence,2_61_0,2022-06-24T12:43:45.481Z,,,1,AV,2303.806999999564,completion,,,1401909.8000000003,1401907.9999999995,1399587.516,1399593.1,1399604.193,1401922.435,,grey
Frame,canvas.Frame,2_61,2022-06-24T12:43:45.481Z,,,1,AV,2305.806999999564,,,,1401910.1999999997,1401909.9999999995,1399587.516,1399592.4,1399604.193,1401922.435,,grey
Fixation,canvas.Screen,2_62_0_0,2022-06-24T12:43:47.897Z,,,0,V,2418.500999999931,timeout,,,1404325.9,1404324.257,1401905.758,1401911.4,1401922.435,1404340.936,,grey
Stimulus,canvas.Screen,2_62_0_1,2022-06-24T12:43:47.996Z,,,0,V,99.58600000012666,timeout,,,1404425.1,1404423.846,1404324.257,1404326.1999999997,1404340.936,1404440.522,,grey
Reaction,canvas.Screen,2_62_0_2,2022-06-24T12:43:48.155Z,,,0,V,142.5779999999795,response,stim_detected,mousedown,1404584.4999999995,1404583.1,1404423.846,1404425.4,1404440.522,1404590.883,,grey
Trial,flow.Sequence,2_62_0,2022-06-24T12:43:48.156Z,,,0,V,2660.6650000000373,completion,,,1404584.9999999995,1404583.1,1401905.758,1401911.3000000003,1401922.435,1404590.883,,grey
Frame,canvas.Frame,2_62,2022-06-24T12:43:48.156Z,,,0,V,2662.7649999996647,,,,1404585.3000000003,1404585.1999999997,1401905.758,1401910.4,1401922.435,1404590.883,,grey
Fixation,canvas.Screen,2_63_0_0,2022-06-24T12:43:50.481Z,,,1,AV,2334.3360000001267,timeout,,,1406909.9999999995,1406908.545,1404574.206,1404586.4,1404590.883,1406925.219,,grey
Stimulus,canvas.Screen,2_63_0_1,2022-06-24T12:43:50.582Z,,,1,AV,100.76199999987148,timeout,,,1407010.9,1407009.302,1406908.545,1406910.1999999997,1406925.219,1407025.981,,grey
Reaction,canvas.Screen,2_63_0_2,2022-06-24T12:43:50.708Z,,,1,AV,110.01899999962188,response,stim_detected,mousedown,1407137.4999999995,1407135.9999999995,1407009.302,1407011.1,1407025.981,1407142.611,,grey
Trial,flow.Sequence,2_63_0,2022-06-24T12:43:50.709Z,,,1,AV,2545.11699999962,completion,,,1407137.9999999995,1407135.9999999995,1404574.206,1404586.1999999997,1404590.883,1407142.611,,grey
Frame,canvas.Frame,2_63,2022-06-24T12:43:50.709Z,,,1,AV,2547.3169999998063,,,,1407138.4,1407138.1999999997,1404574.206,1404585.4999999995,1404590.883,1407142.611,,grey
Fixation,canvas.Screen,2_64_0_0,2022-06-24T12:43:53.149Z,,,0,V,2451.0509999999776,timeout,,,1409578.4999999995,1409576.988,1407125.934,1407139.4,1407142.611,1409593.662,,grey
Stimulus,canvas.Screen,2_64_0_1,2022-06-24T12:43:53.250Z,,,0,V,100.05099999997765,timeout,,,1409678.6999999997,1409677.039,1409576.988,1409578.6999999997,1409593.662,1409693.713,,grey
Reaction,canvas.Screen,2_64_0_2,2022-06-24T12:43:53.489Z,,,0,V,222.28699999954551,response,stim_detected,mousedown,1409918.1,1409915.9999999995,1409677.039,1409678.9999999995,1409693.713,1409927.8,,grey
Trial,flow.Sequence,2_64_0,2022-06-24T12:43:53.489Z,,,0,V,2773.388999999501,completion,,,1409918.4999999995,1409915.9999999995,1407125.934,1407139.4,1407142.611,1409927.8,,grey
Frame,canvas.Frame,2_64,2022-06-24T12:43:53.490Z,,,0,V,2776.088999999687,,,,1409918.8000000003,1409918.6999999997,1407125.934,1407138.6,1407142.611,1409927.8,,grey
Fixation,canvas.Screen,2_65_0_0,2022-06-24T12:43:55.450Z,,,1,AV,1966.810999999987,timeout,,,1411879.1999999997,1411877.942,1409911.123,1409919.9,1409927.8,1411894.611,,grey
Stimulus,canvas.Screen,2_65_0_1,2022-06-24T12:43:55.551Z,,,1,AV,101.38199999998324,timeout,,,1411980.1,1411979.314,1411877.942,1411879.4,1411894.611,1411995.993,,grey
Reaction,canvas.Screen,2_65_0_2,2022-06-24T12:43:55.679Z,,,1,AV,111.00699999951757,response,stim_detected,mousedown,1412108.4,1412106.9999999995,1411979.314,1411980.4,1411995.993,1412112.582,,grey
Trial,flow.Sequence,2_65_0,2022-06-24T12:43:55.680Z,,,1,AV,2179.1999999994878,completion,,,1412108.8000000003,1412106.9999999995,1409911.123,1409919.8000000003,1409927.8,1412112.582,,grey
Frame,canvas.Frame,2_65,2022-06-24T12:43:55.680Z,,,1,AV,2181.1999999994878,,,,1412109.1999999997,1412108.9999999995,1409911.123,1409919.1,1409927.8,1412112.582,,grey
Fixation,canvas.Screen,2_66_0_0,2022-06-24T12:43:57.786Z,,,0,V,2117.9850000001024,timeout,,,1414215.3000000003,1414213.89,1412095.905,1412110.3000000003,1412112.582,1414230.567,,grey
Stimulus,canvas.Screen,2_66_0_1,2022-06-24T12:43:57.886Z,,,0,V,100.19900000002235,timeout,,,1414315.1999999997,1414314.087,1414213.89,1414215.6,1414230.567,1414330.766,,grey
Reaction,canvas.Screen,2_66_0_2,2022-06-24T12:43:58.047Z,,,0,V,144.1339999998454,response,stim_detected,mousedown,1414476.4,1414474.9,1414314.087,1414315.4,1414330.766,1414480.835,,grey
Trial,flow.Sequence,2_66_0,2022-06-24T12:43:58.048Z,,,0,V,2362.31799999997,completion,,,1414476.6999999997,1414474.9,1412095.905,1412110.3000000003,1412112.582,1414480.835,,grey
Frame,canvas.Frame,2_66,2022-06-24T12:43:58.048Z,,,0,V,2364.31799999997,,,,1414477.1,1414476.9,1412095.905,1412109.3000000003,1412112.582,1414480.835,,grey
Fixation,canvas.Screen,2_67_0_0,2022-06-24T12:44:00.071Z,,,0,V,2034.59300000011,timeout,,,1416500.4999999995,1416498.751,1414464.158,1414478.3000000003,1414480.835,1416515.428,,grey
Stimulus,canvas.Screen,2_67_0_1,2022-06-24T12:44:00.171Z,,,0,V,100.18999999994412,timeout,,,1416600.4999999995,1416598.941,1416498.751,1416500.6,1416515.428,1416615.618,,grey
Reaction,canvas.Screen,2_67_0_2,2022-06-24T12:44:00.325Z,,,0,V,137.38199999951757,response,stim_detected,mousedown,1416754.4,1416752.9999999995,1416598.941,1416600.8000000003,1416615.618,1416765.699,,grey
Trial,flow.Sequence,2_67_0,2022-06-24T12:44:00.326Z,,,0,V,2272.1649999995716,completion,,,1416754.9,1416752.9999999995,1414464.158,1414478.1,1414480.835,1416765.699,,grey
Frame,canvas.Frame,2_67,2022-06-24T12:44:00.326Z,,,0,V,2274.1649999995716,,,,1416755.1999999997,1416754.9999999995,1414464.158,1414477.1999999997,1414480.835,1416765.699,,grey
Fixation,canvas.Screen,2_68_0_0,2022-06-24T12:44:02.289Z,,,1,A,1968.0200000000186,timeout,,,1418718.6,1418717.041,1416749.022,1416756.1999999997,1416765.699,1418733.719,,black
Stimulus,canvas.Screen,2_68_0_1,2022-06-24T12:44:02.388Z,,,1,A,99.55300000007264,timeout,,,1418817.6,1418816.598,1418717.041,1418718.8000000003,1418733.719,1418833.272,,black
Reaction,canvas.Screen,2_68_0_2,2022-06-24T12:44:02.623Z,,,1,A,218.02800000016578,response,stim_detected,mousedown,1419052.6,1419051.3000000003,1418816.598,1418817.8000000003,1418833.272,1419067.245,,black
Trial,flow.Sequence,2_68_0,2022-06-24T12:44:02.624Z,,,1,A,2285.601000000257,completion,,,1419052.9999999995,1419051.3000000003,1416749.022,1416756.1999999997,1416765.699,1419067.245,,black
Frame,canvas.Frame,2_68,2022-06-24T12:44:02.624Z,,,1,A,2287.5009999996983,,,,1419053.3000000003,1419053.1999999997,1416749.022,1416755.4,1416765.699,1419067.245,,black
Fixation,canvas.Screen,2_69_0_0,2022-06-24T12:44:05.008Z,,,1,AV,2384.8259999998845,timeout,,,1421436.8000000003,1421435.394,1419050.568,1419054.3000000003,1419067.245,1421452.071,,grey
Stimulus,canvas.Screen,2_69_0_1,2022-06-24T12:44:05.108Z,,,1,AV,99.64899999997579,timeout,,,1421536.6999999997,1421535.046,1421435.394,1421436.9999999995,1421452.071,1421551.72,,grey
Reaction,canvas.Screen,2_69_0_2,2022-06-24T12:44:05.254Z,,,1,AV,130.27999999956228,response,stim_detected,mousedown,1421683.4999999995,1421681.9999999995,1421535.046,1421537.1,1421551.72,1421685.595,,grey
Trial,flow.Sequence,2_69_0,2022-06-24T12:44:05.255Z,,,1,AV,2614.7549999994226,completion,,,1421683.8000000003,1421681.9999999995,1419050.568,1419054.1999999997,1419067.245,1421685.595,,grey
Frame,canvas.Frame,2_69,2022-06-24T12:44:05.255Z,,,1,AV,2616.7549999994226,,,,1421684.1999999997,1421683.9999999995,1419050.568,1419053.4,1419067.245,1421685.595,,grey
Fixation,canvas.Screen,2_70_0_0,2022-06-24T12:44:07.244Z,,,1,AV,2002.6310000000522,timeout,,,1423672.6999999997,1423671.538,1421668.918,1421685.4999999995,1421685.595,1423688.226,,grey
Stimulus,canvas.Screen,2_70_0_1,2022-06-24T12:44:07.343Z,,,1,AV,98.84499999997206,timeout,,,1423771.6999999997,1423770.393,1423671.538,1423672.9999999995,1423688.226,1423787.071,,grey
Reaction,canvas.Screen,2_70_0_2,2022-06-24T12:44:07.567Z,,,1,AV,207.72900000028312,response,stim_detected,mousedown,1423996.4,1423994.8000000003,1423770.393,1423771.9999999995,1423787.071,1424020.509,,grey
Trial,flow.Sequence,2_70_0,2022-06-24T12:44:07.568Z,,,1,AV,2309.2050000003073,completion,,,1423996.6999999997,1423994.8000000003,1421668.918,1421685.4,1421685.595,1424020.509,,grey
Frame,canvas.Frame,2_70,2022-06-24T12:44:07.568Z,,,1,AV,2311.304999999935,,,,1423996.9999999995,1423996.9,1421668.918,1421684.3000000003,1421685.595,1424020.509,,grey
Fixation,canvas.Screen,2_71_0_0,2022-06-24T12:44:09.379Z,,,1,A,1802.277999999933,timeout,,,1425808.1,1425806.1,1423987.155,1423998.4,1424020.509,1425822.787,,black
Stimulus,canvas.Screen,2_71_0_1,2022-06-24T12:44:09.477Z,,,1,A,98.94800000009127,timeout,,,1425905.9,1425905.058,1425806.1,1425808.4,1425822.787,1425921.735,,black
Reaction,canvas.Screen,2_71_0_2,2022-06-24T12:44:09.614Z,,,1,A,120.06500000017695,response,stim_detected,mousedown,1426043.4,1426041.8000000003,1425905.058,1425906.1,1425921.735,1426055.232,,black
Trial,flow.Sequence,2_71_0,2022-06-24T12:44:09.615Z,,,1,A,2021.2910000002012,completion,,,1426043.8000000003,1426041.8000000003,1423987.155,1423998.3000000003,1424020.509,1426055.232,,black
Frame,canvas.Frame,2_71,2022-06-24T12:44:09.615Z,,,1,A,2023.490999999456,,,,1426044.1,1426043.9999999995,1423987.155,1423997.1999999997,1424020.509,1426055.232,,black
Fixation,canvas.Screen,2_72_0_0,2022-06-24T12:44:11.178Z,,,1,A,1567.3229999998584,timeout,,,1427606.9,1427605.881,1426038.555,1426045.1999999997,1426055.232,1427622.555,,black
Stimulus,canvas.Screen,2_72_0_1,2022-06-24T12:44:11.279Z,,,1,A,100.47800000011921,timeout,,,1427707.9,1427706.354,1427605.881,1427607.1999999997,1427622.555,1427723.033,,black
Reaction,canvas.Screen,2_72_0_2,2022-06-24T12:44:11.427Z,,,1,A,131.76700000022538,response,stim_detected,mousedown,1427856.3000000003,1427854.8000000003,1427706.354,1427708.1999999997,1427723.033,1427873.12,,black
Trial,flow.Sequence,2_72_0,2022-06-24T12:44:11.427Z,,,1,A,1799.568000000203,completion,,,1427856.6999999997,1427854.8000000003,1426038.555,1426045.1,1426055.232,1427873.12,,black
Frame,canvas.Frame,2_72,2022-06-24T12:44:11.428Z,,,1,A,1801.6679999998305,,,,1427856.9999999995,1427856.9,1426038.555,1426044.3000000003,1426055.232,1427873.12,,black
Fixation,canvas.Screen,2_73_0_0,2022-06-24T12:44:12.946Z,,,1,A,1517.1029999998864,timeout,,,1429375.1,1429373.551,1427856.443,1427858.1999999997,1427873.12,1429390.223,,black
Stimulus,canvas.Screen,2_73_0_1,2022-06-24T12:44:13.047Z,,,1,A,100.72600000002421,timeout,,,1429475.9999999995,1429474.269,1429373.551,1429375.1999999997,1429390.223,1429490.949,,black
Reaction,canvas.Screen,2_73_0_2,2022-06-24T12:44:13.199Z,,,1,A,135.85100000025705,response,stim_detected,mousedown,1429628.4,1429626.8000000003,1429474.269,1429476.3000000003,1429490.949,1429640.959,,black
Trial,flow.Sequence,2_73_0,2022-06-24T12:44:13.200Z,,,1,A,1753.6800000001676,completion,,,1429628.8000000003,1429626.8000000003,1427856.443,1427858.1999999997,1427873.12,1429640.959,,black
Frame,canvas.Frame,2_73,2022-06-24T12:44:13.200Z,,,1,A,1755.8799999994226,,,,1429629.1999999997,1429628.9999999995,1427856.443,1427857.1999999997,1427873.12,1429640.959,,black
Fixation,canvas.Screen,2_74_0_0,2022-06-24T12:44:14.731Z,,,0,V,1534.0859999998938,timeout,,,1431160.1,1431158.37,1429624.282,1429630.4999999995,1429640.959,1431175.045,,grey
Stimulus,canvas.Screen,2_74_0_1,2022-06-24T12:44:14.831Z,,,0,V,100.38899999996647,timeout,,,1431260.1,1431258.756,1431158.37,1431160.3000000003,1431175.045,1431275.434,,grey
Reaction,canvas.Screen,2_74_0_2,2022-06-24T12:44:14.975Z,,,0,V,127.36600000038743,response,stim_detected,mousedown,1431404.1999999997,1431402.8000000003,1431258.756,1431260.3000000003,1431275.434,1431425.485,,grey
Trial,flow.Sequence,2_74_0,2022-06-24T12:44:14.975Z,,,0,V,1761.8410000002477,completion,,,1431404.6999999997,1431402.8000000003,1429624.282,1429630.4,1429640.959,1431425.485,,grey
Frame,canvas.Frame,2_74,2022-06-24T12:44:14.976Z,,,0,V,1763.8410000002477,,,,1431404.9,1431404.8000000003,1429624.282,1429629.4,1429640.959,1431425.485,,grey
Fixation,canvas.Screen,2_75_0_0,2022-06-24T12:44:16.717Z,,,1,A,1734.9269999999087,timeout,,,1433145.3000000003,1433143.73,1431392.131,1431406.1999999997,1431425.485,1433160.412,,black
Stimulus,canvas.Screen,2_75_0_1,2022-06-24T12:44:16.816Z,,,1,A,98.96699999994598,timeout,,,1433244.1,1433242.708,1433143.73,1433145.6,1433160.412,1433259.379,,black
Reaction,canvas.Screen,2_75_0_2,2022-06-24T12:44:17.079Z,,,1,A,246.42100000032224,response,stim_detected,mousedown,1433507.3000000003,1433505.8000000003,1433242.708,1433244.4,1433259.379,1433510.222,,black
Trial,flow.Sequence,2_75_0,2022-06-24T12:44:17.079Z,,,1,A,2080.315000000177,completion,,,1433507.8000000003,1433505.8000000003,1431392.131,1431406.1,1431425.485,1433510.222,,black
Frame,canvas.Frame,2_75,2022-06-24T12:44:17.080Z,,,1,A,2082.4149999998044,,,,1433508.1,1433507.9,1431392.131,1431405.1,1431425.485,1433510.222,,black
Fixation,canvas.Screen,2_76_0_0,2022-06-24T12:44:19.234Z,,,1,AV,2167.430999999866,timeout,,,1435662.4,1435660.98,1433493.545,1433509.4,1433510.222,1435677.653,,grey
Stimulus,canvas.Screen,2_76_0_1,2022-06-24T12:44:19.334Z,,,1,AV,100.48300000000745,timeout,,,1435762.4,1435761.46,1435660.98,1435662.6,1435677.653,1435778.136,,grey
Reaction,canvas.Screen,2_76_0_2,2022-06-24T12:44:19.505Z,,,1,AV,153.664000000339,response,stim_detected,mousedown,1435933.1999999997,1435931.8000000003,1435761.46,1435762.6,1435778.136,1435945.135,,grey
Trial,flow.Sequence,2_76_0,2022-06-24T12:44:19.505Z,,,1,AV,2421.5780000002123,completion,,,1435933.6999999997,1435931.8000000003,1433493.545,1433509.3000000003,1433510.222,1435945.135,,grey
Frame,canvas.Frame,2_76,2022-06-24T12:44:19.505Z,,,1,AV,2423.5780000002123,,,,1435933.9999999995,1435933.8000000003,1433493.545,1433508.3000000003,1433510.222,1435945.135,,grey
Fixation,canvas.Screen,2_77_0_0,2022-06-24T12:44:21.204Z,,,1,A,1702.4480000000913,timeout,,,1437632.4,1437630.893,1435928.458,1435935.1999999997,1435945.135,1437647.583,,black
Stimulus,canvas.Screen,2_77_0_1,2022-06-24T12:44:21.302Z,,,1,A,98.81699999980628,timeout,,,1437730.9999999995,1437729.723,1437630.893,1437632.6,1437647.583,1437746.4,,black
Reaction,canvas.Screen,2_77_0_2,2022-06-24T12:44:21.459Z,,,1,A,139.40000000037253,response,stim_detected,mousedown,1437887.4,1437885.8000000003,1437729.723,1437731.1999999997,1437746.4,1437896.488,,black
Trial,flow.Sequence,2_77_0,2022-06-24T12:44:21.459Z,,,1,A,1940.66500000027,completion,,,1437887.9,1437885.8000000003,1435928.458,1435934.9999999995,1435945.135,1437896.488,,black
Frame,canvas.Frame,2_77,2022-06-24T12:44:21.460Z,,,1,A,1942.864999999525,,,,1437888.1999999997,1437887.9999999995,1435928.458,1435934.1999999997,1435945.135,1437896.488,,black
Fixation,canvas.Screen,2_78_0_0,2022-06-24T12:44:23.755Z,,,0,V,2301.998000000138,timeout,,,1440183.6,1440181.805,1437879.811,1437889.3000000003,1437896.488,1440198.486,,grey
Stimulus,canvas.Screen,2_78_0_1,2022-06-24T12:44:23.854Z,,,0,V,99.58199999993667,timeout,,,1440282.6,1440281.391,1440181.805,1440183.8000000003,1440198.486,1440298.068,,grey
Reaction,canvas.Screen,2_78_0_2,2022-06-24T12:44:24.059Z,,,0,V,187.6319999997504,response,stim_detected,mousedown,1440487.1999999997,1440485.6999999997,1440281.391,1440282.9,1440298.068,1440498.228,,grey
Trial,flow.Sequence,2_78_0,2022-06-24T12:44:24.059Z,,,0,V,2589.211999999825,completion,,,1440487.6,1440485.6999999997,1437879.811,1437889.1999999997,1437896.488,1440498.228,,grey
Frame,canvas.Frame,2_78,2022-06-24T12:44:24.059Z,,,0,V,2591.211999999825,,,,1440487.9,1440487.6999999997,1437879.811,1437888.4,1437896.488,1440498.228,,grey
Fixation,canvas.Screen,2_79_0_0,2022-06-24T12:44:26.474Z,,,0,V,2419.4950000001118,timeout,,,1442902.6999999997,1442901.037,1440481.551,1440488.9,1440498.228,1442917.723,,grey
Stimulus,canvas.Screen,2_79_0_1,2022-06-24T12:44:26.572Z,,,0,V,98.29799999995157,timeout,,,1443000.9,1442999.347,1442901.037,1442902.8000000003,1442917.723,1443016.021,,grey
Reaction,canvas.Screen,2_79_0_2,2022-06-24T12:44:26.817Z,,,0,V,202.57900000014342,response,stim_detected,mousedown,1443245.4,1443218.6,1442999.347,1443001.1,1443016.021,1443250.031,,grey
Trial,flow.Sequence,2_79_0,2022-06-24T12:44:26.817Z,,,0,V,2720.3720000002068,completion,,,1443245.8000000003,1443218.6,1440481.551,1440488.8000000003,1440498.228,1443250.031,,grey
Frame,canvas.Frame,2_79,2022-06-24T12:44:26.818Z,,,0,V,2747.771999999648,,,,1443246.3000000003,1443245.9999999995,1440481.551,1440488.1,1440498.228,1443250.031,,grey
Fixation,canvas.Screen,2_80_0_0,2022-06-24T12:44:28.641Z,,,1,A,1835.1430000001565,timeout,,,1445069.8000000003,1445068.491,1443233.354,1443247.6,1443250.031,1445085.174,,black
Stimulus,canvas.Screen,2_80_0_1,2022-06-24T12:44:28.740Z,,,1,A,99.0449999999255,timeout,,,1445168.6,1445167.545,1445068.491,1445069.9999999995,1445085.174,1445184.219,,black
Reaction,canvas.Screen,2_80_0_2,2022-06-24T12:44:29.044Z,,,1,A,286.4809999996796,response,stim_detected,mousedown,1445472.1999999997,1445470.6999999997,1445167.545,1445168.9,1445184.219,1445484.89,,black
Trial,flow.Sequence,2_80_0,2022-06-24T12:44:29.044Z,,,1,A,2220.6689999997616,completion,,,1445472.4999999995,1445470.6999999997,1443233.354,1443247.6,1443250.031,1445484.89,,black
Frame,canvas.Frame,2_80,2022-06-24T12:44:29.044Z,,,1,A,2222.569000000134,,,,1445472.8000000003,1445472.6,1443233.354,1443246.4999999995,1443250.031,1445484.89,,black
Fixation,canvas.Screen,2_81_0_0,2022-06-24T12:44:30.591Z,,,1,A,1550.408000000054,timeout,,,1447019.8000000003,1447018.626,1445468.213,1445473.9,1445484.89,1447035.298,,black
Stimulus,canvas.Screen,2_81_0_1,2022-06-24T12:44:30.692Z,,,1,A,100.72299999999814,timeout,,,1447120.9,1447119.343,1447018.626,1447019.9999999995,1447035.298,1447136.021,,black
Reaction,canvas.Screen,2_81_0_2,2022-06-24T12:44:30.933Z,,,1,A,224.57900000014342,response,stim_detected,mousedown,1447362.1,1447360.6,1447119.343,1447121.1,1447136.021,1447369.451,,black
Trial,flow.Sequence,2_81_0,2022-06-24T12:44:30.934Z,,,1,A,1875.7100000001956,completion,,,1447362.4999999995,1447360.6,1445468.213,1445473.8000000003,1445484.89,1447369.451,,black
Frame,canvas.Frame,2_81,2022-06-24T12:44:30.934Z,,,1,A,1877.7100000001956,,,,1447362.6999999997,1447362.6,1445468.213,1445472.9999999995,1445484.89,1447369.451,,black
Fixation,canvas.Screen,2_82_0_0,2022-06-24T12:44:33.227Z,,,1,AV,2301.8960000001825,timeout,,,1449656.1,1449654.667,1447352.774,1447363.9,1447369.451,1449671.347,,grey
Stimulus,canvas.Screen,2_82_0_1,2022-06-24T12:44:33.327Z,,,1,AV,99.80899999989197,timeout,,,1449755.9999999995,1449754.478,1449654.667,1449656.1999999997,1449671.347,1449771.156,,grey
Reaction,canvas.Screen,2_82_0_2,2022-06-24T12:44:33.475Z,,,1,AV,131.4440000001341,response,stim_detected,mousedown,1449903.9,1449902.6,1449754.478,1449756.3000000003,1449771.156,1449921.187,,grey
Trial,flow.Sequence,2_82_0,2022-06-24T12:44:33.476Z,,,1,AV,2533.1490000002086,completion,,,1449904.3000000003,1449902.6,1447352.774,1447363.8000000003,1447369.451,1449921.187,,grey
Frame,canvas.Frame,2_82,2022-06-24T12:44:33.476Z,,,1,AV,2534.9490000000224,,,,1449904.4999999995,1449904.4,1447352.774,1447362.9,1447369.451,1449921.187,,grey
Fixation,canvas.Screen,2_83_0_0,2022-06-24T12:44:35.830Z,,,0,V,2351.93200000003,timeout,,,1452258.1999999997,1452256.439,1449904.51,1449905.4999999995,1449921.187,1452273.119,,grey
Stimulus,canvas.Screen,2_83_0_1,2022-06-24T12:44:35.929Z,,,0,V,99.42000000015832,timeout,,,1452357.6999999997,1452355.864,1452256.439,1452258.4,1452273.119,1452372.539,,grey
Reaction,canvas.Screen,2_83_0_2,2022-06-24T12:44:36.103Z,,,0,V,158.16099999961443,response,stim_detected,mousedown,1452532.1,1452530.6999999997,1452355.864,1452357.9999999995,1452372.539,1452539.604,,grey
Trial,flow.Sequence,2_83_0,2022-06-24T12:44:36.104Z,,,0,V,2609.5129999998026,completion,,,1452532.4999999995,1452530.6999999997,1449904.51,1449905.4,1449921.187,1452539.604,,grey
Frame,canvas.Frame,2_83,2022-06-24T12:44:36.104Z,,,0,V,2611.413000000175,,,,1452532.8000000003,1452532.6,1449904.51,1449904.6999999997,1449921.187,1452539.604,,grey
Fixation,canvas.Screen,2_84_0_0,2022-06-24T12:44:37.847Z,,,1,AV,1751.3240000000224,timeout,,,1454275.1999999997,1454274.249,1452522.927,1452533.8000000003,1452539.604,1454290.928,,grey
Stimulus,canvas.Screen,2_84_0_1,2022-06-24T12:44:37.947Z,,,1,AV,99.8410000000149,timeout,,,1454375.1,1454374.092,1454274.249,1454275.4,1454290.928,1454390.769,,grey
Reaction,canvas.Screen,2_84_0_2,2022-06-24T12:44:38.289Z,,,1,AV,324.8310000000056,response,stim_detected,mousedown,1454717.3000000003,1454715.6,1454374.092,1454375.4,1454390.769,1454741.073,,grey
Trial,flow.Sequence,2_84_0,2022-06-24T12:44:38.289Z,,,1,AV,2175.996000000043,completion,,,1454717.8000000003,1454715.6,1452522.927,1452533.6999999997,1452539.604,1454741.073,,grey
Frame,canvas.Frame,2_84,2022-06-24T12:44:38.289Z,,,1,AV,2178.2959999998566,,,,1454718.1,1454717.9,1452522.927,1452532.9999999995,1452539.604,1454741.073,,grey
Fixation,canvas.Screen,2_85_0_0,2022-06-24T12:44:39.981Z,,,0,V,1684.1359999999404,timeout,,,1456409.4,1456408.534,1454707.719,1454719.3000000003,1454741.073,1456425.209,,grey
Stimulus,canvas.Screen,2_85_0_1,2022-06-24T12:44:40.082Z,,,0,V,100.40599999995902,timeout,,,1456510.3000000003,1456508.938,1456408.534,1456409.6999999997,1456425.209,1456525.615,,grey
Reaction,canvas.Screen,2_85_0_2,2022-06-24T12:44:40.331Z,,,0,V,232.1850000002887,response,stim_detected,mousedown,1456759.6999999997,1456757.8000000003,1456508.938,1456510.4999999995,1456525.615,1456775.763,,grey
Trial,flow.Sequence,2_85_0,2022-06-24T12:44:40.332Z,,,0,V,2016.7270000001881,completion,,,1456760.1,1456757.8000000003,1454707.719,1454719.1999999997,1454741.073,1456775.763,,grey
Frame,canvas.Frame,2_85,2022-06-24T12:44:40.332Z,,,0,V,2019.1269999996293,,,,1456760.4999999995,1456760.1999999997,1454707.719,1454718.3000000003,1454741.073,1456775.763,,grey
Fixation,canvas.Screen,2_86_0_0,2022-06-24T12:44:42.651Z,,,1,A,2318.9930000000168,timeout,,,1459079.4999999995,1459078.073,1456759.086,1456761.6,1456775.763,1459094.756,,black
Stimulus,canvas.Screen,2_86_0_1,2022-06-24T12:44:42.750Z,,,1,A,99.14399999985471,timeout,,,1459178.4,1459177.224,1459078.073,1459079.6999999997,1459094.756,1459193.9,,black
Reaction,canvas.Screen,2_86_0_2,2022-06-24T12:44:42.921Z,,,1,A,154.59999999962747,response,stim_detected,mousedown,1459350.1,1459348.4999999995,1459177.224,1459178.6999999997,1459193.9,1459360.845,,black
Trial,flow.Sequence,2_86_0,2022-06-24T12:44:42.922Z,,,1,A,2572.736999999499,completion,,,1459350.4,1459348.4999999995,1456759.086,1456761.6,1456775.763,1459360.845,,black
Frame,canvas.Frame,2_86,2022-06-24T12:44:42.922Z,,,1,A,2574.736999999499,,,,1459350.6999999997,1459350.4999999995,1456759.086,1456760.6999999997,1456775.763,1459360.845,,black
Fixation,canvas.Screen,2_87_0_0,2022-06-24T12:44:44.833Z,,,1,AV,1916.3340000000317,timeout,,,1461261.4999999995,1461260.514,1459344.168,1459351.6999999997,1459360.845,1461277.179,,grey
Stimulus,canvas.Screen,2_87_0_1,2022-06-24T12:44:44.935Z,,,1,AV,101.71900000004098,timeout,,,1461363.4999999995,1461362.218,1461260.514,1461261.8000000003,1461277.179,1461378.898,,grey
Reaction,canvas.Screen,2_87_0_2,2022-06-24T12:44:45.062Z,,,1,AV,110.60199999948964,response,stim_detected,mousedown,1461490.9999999995,1461489.4999999995,1461362.218,1461363.6999999997,1461378.898,1461495.605,,grey
Trial,flow.Sequence,2_87_0,2022-06-24T12:44:45.063Z,,,1,AV,2128.6549999995623,completion,,,1461491.4,1461489.4999999995,1459344.168,1459351.6,1459360.845,1461495.605,,grey
Frame,canvas.Frame,2_87,2022-06-24T12:44:45.063Z,,,1,AV,2130.6549999995623,,,,1461491.6999999997,1461491.4999999995,1459344.168,1459350.9,1459360.845,1461495.605,,grey
Fixation,canvas.Screen,2_88_0_0,2022-06-24T12:44:47.386Z,,,0,V,2334.942000000039,timeout,,,1463814.6999999997,1463813.869,1461478.928,1461492.8000000003,1461495.605,1463830.547,,grey
Stimulus,canvas.Screen,2_88_0_1,2022-06-24T12:44:47.486Z,,,0,V,99.76499999989755,timeout,,,1463914.9999999995,1463913.636,1463813.869,1463814.9999999995,1463830.547,1463930.312,,grey
Reaction,canvas.Screen,2_88_0_2,2022-06-24T12:44:47.663Z,,,0,V,160.08799999998882,response,stim_detected,mousedown,1464091.8000000003,1464090.4,1463913.636,1463915.1999999997,1463930.312,1464114.026,,grey
Trial,flow.Sequence,2_88_0,2022-06-24T12:44:47.664Z,,,0,V,2594.7949999999255,completion,,,1464092.1,1464090.4,1461478.928,1461492.6999999997,1461495.605,1464114.026,,grey
Frame,canvas.Frame,2_88,2022-06-24T12:44:47.664Z,,,0,V,2596.5949999997392,,,,1464092.4,1464092.1999999997,1461478.928,1461491.8000000003,1461495.605,1464114.026,,grey
Fixation,canvas.Screen,2_89_0_0,2022-06-24T12:44:49.937Z,,,1,AV,2267.1729999999516,timeout,,,1466365.6999999997,1466364.528,1464097.349,1464093.4999999995,1464114.026,1466381.199,,grey
Stimulus,canvas.Screen,2_89_0_1,2022-06-24T12:44:50.038Z,,,1,AV,101.25300000002608,timeout,,,1466466.8000000003,1466465.773,1466364.528,1466365.9999999995,1466381.199,1466482.452,,grey
Reaction,canvas.Screen,2_89_0_2,2022-06-24T12:44:50.186Z,,,1,AV,130.94799999985844,response,stim_detected,mousedown,1466614.8000000003,1466613.4,1466465.773,1466467.1,1466482.452,1466632.367,,grey
Trial,flow.Sequence,2_89_0,2022-06-24T12:44:50.187Z,,,1,AV,2499.373999999836,completion,,,1466615.1999999997,1466613.4,1464097.349,1464093.4,1464114.026,1466632.367,,grey
Frame,canvas.Frame,2_89,2022-06-24T12:44:50.187Z,,,1,AV,2501.373999999836,,,,1466615.6,1466615.4,1464097.349,1464092.6,1464114.026,1466632.367,,grey
Fixation,canvas.Screen,2_90_0_0,2022-06-24T12:44:51.773Z,,,1,AV,1584.7669999999925,timeout,,,1468201.9,1468200.452,1466615.69,1466640.1,1466632.367,1468217.134,,grey
Stimulus,canvas.Screen,2_90_0_1,2022-06-24T12:44:51.872Z,,,1,AV,99.03099999995902,timeout,,,1468300.9,1468299.494,1468200.452,1468202.3000000003,1468217.134,1468316.165,,grey
Reaction,canvas.Screen,2_90_0_2,2022-06-24T12:44:52.119Z,,,1,AV,230.23499999986961,response,stim_detected,mousedown,1468547.9,1468546.4,1468299.494,1468301.1,1468316.165,1468566.965,,grey
Trial,flow.Sequence,2_90_0,2022-06-24T12:44:52.120Z,,,1,AV,1914.0329999998212,completion,,,1468548.4,1468546.4,1466615.69,1466639.9999999995,1466632.367,1468566.965,,grey
Frame,canvas.Frame,2_90,2022-06-24T12:44:52.120Z,,,1,AV,1916.2330000000075,,,,1468548.6999999997,1468548.6,1466615.69,1466615.8000000003,1466632.367,1468566.965,,grey
Loop,flow.Loop,2,2022-06-24T12:44:52.120Z,,,,,210403.75500000012,completion,,,1468548.9999999995,1468548.6,1258128.152,1258129.6999999997,1258144.845,1468566.965,,
end,html.Page,3,2022-06-24T12:44:59.972Z,,,,,7833.434999999823,form submission,,,1476400.9999999995,1476400.4,1468550.288,1468549.3000000003,1468566.965,1476405.784,,
root,flow.Sequence,,2022-06-24T12:44:59.973Z,,,,,1474747.4249999998,completion,,,1476401.9999999995,1476400.4,1636.296,1640.3999999999069,1652.975,1476405.784,,