sender,sender_type,sender_id,timestamp,meta,,aud,condition,duration,ended_on,response,response_action,time_commit,time_end,time_render,time_run,time_show,time_switch,url,vis
Instructions,html.Page,0,2022-06-27T16:09:24.031Z,"{""labjs_version"":""20.2.4"",""labjs_build"":{""flavor"":""production"",""commit"":""f5b4a49f956347addd546a832a3327688c2c0fef""},""location"":""file:///C:/Users/Proband%207/Desktop/RTE/index.html"",""userAgent"":""Mozilla/5.0 (Windows NT 6.1; Win64; x64) AppleWebKit/537.36 (KHTML, like Gecko) Chrome/102.0.0.0 Safari/537.36"",""platform"":""Win32"",""language"":""de-DE"",""locale"":""de"",""timeZone"":""Europe/Berlin"",""timezoneOffset"":-120,""screen_width"":1366,""screen_height"":768,""scroll_width"":1366,""scroll_height"":609,""window_innerWidth"":1366,""window_innerHeight"":657,""devicePixelRatio"":1}",,,,1379737.931,form submission,,,1381147.1,1381145.7000000002,1391.089,1391.2000000001863,1407.769,1381158.557,{},
Change Background,canvas.Screen,1,2022-06-27T16:09:27.028Z,,,,,2999.7549999998882,timeout,,,1384143.7000000002,1384141.605,1381125.263,1381147.8000000003,1381158.557,1384158.312,,
Fixation,canvas.Screen,2_0_0_0,2022-06-27T16:09:28.783Z,,,0,V,1756.1980000000913,timeout,,,1385899.2000000002,1385897.868,1384141.605,1384145.3000000003,1384158.312,1385914.51,,grey
Stimulus,canvas.Screen,2_0_0_1,2022-06-27T16:09:28.891Z,,,0,V,108.20699999993667,timeout,,,1386007.1,1386006.039,1385897.868,1385899.6,1385914.51,1386022.717,,grey
Reaction,canvas.Screen,2_0_0_2,2022-06-27T16:09:29.232Z,,,0,V,323.4830000002403,response,stim_detected,mousedown,1386348.4,1386346.2000000002,1386006.039,1386007.5,1386022.717,1386356.191,,grey
Trial,flow.Sequence,2_0_0,2022-06-27T16:09:29.233Z,,,0,V,2187.888000000268,completion,,,1386349,1386346.2000000002,1384141.605,1384145.2000000002,1384158.312,1386356.191,,grey
Frame,canvas.Frame,2_0,2022-06-27T16:09:29.234Z,,,0,V,2190.9880000003614,,,,1386349.6,1386349.3000000003,1384141.605,1384144.2000000002,1384158.312,1386356.191,,grey
Fixation,canvas.Screen,2_1_0_0,2022-06-27T16:09:31.027Z,,,0,V,1801.9779999998864,timeout,,,1388143.3000000003,1388141.485,1386339.514,1386351.4,1386356.191,1388158.169,,grey
Stimulus,canvas.Screen,2_1_0_1,2022-06-27T16:09:31.126Z,,,0,V,99.15500000002794,timeout,,,1388242.3000000003,1388240.648,1388141.485,1388143.6,1388158.169,1388257.324,,grey
Reaction,canvas.Screen,2_1_0_2,2022-06-27T16:09:31.420Z,,,0,V,276.8760000001639,response,stim_detected,mousedown,1388536,1388534.2000000002,1388240.648,1388242.8000000003,1388257.324,1388541.082,,grey
Trial,flow.Sequence,2_1_0,2022-06-27T16:09:31.421Z,,,0,V,2178.0090000000782,completion,,,1388536.9,1388534.2000000002,1386339.514,1386351.2000000002,1386356.191,1388541.082,,grey
Frame,canvas.Frame,2_1,2022-06-27T16:09:31.422Z,,,0,V,2181.0090000000782,,,,1388537.6,1388537.2000000002,1386339.514,1386349.9,1386356.191,1388541.082,,grey
Fixation,canvas.Screen,2_2_0_0,2022-06-27T16:09:33.311Z,,,1,AV,1901.3040000000037,timeout,,,1390427.4,1390425.708,1388524.404,1388539.3000000003,1388541.082,1390442.386,,grey
Stimulus,canvas.Screen,2_2_0_1,2022-06-27T16:09:33.411Z,,,1,AV,99.88400000007823,timeout,,,1390526.8000000003,1390525.594,1390425.708,1390427.7000000002,1390442.386,1390542.27,,grey
Reaction,canvas.Screen,2_2_0_2,2022-06-27T16:09:33.657Z,,,1,AV,228.93000000016764,response,stim_detected,mousedown,1390772.9,1390771.2000000002,1390525.594,1390527,1390542.27,1390775.838,,grey
Trial,flow.Sequence,2_2_0,2022-06-27T16:09:33.657Z,,,1,AV,2230.1180000002496,completion,,,1390773.3000000003,1390771.2000000002,1388524.404,1388539.2000000002,1388541.082,1390775.838,,grey
Frame,canvas.Frame,2_2,2022-06-27T16:09:33.658Z,,,1,AV,2232.4180000000633,,,,1390773.9,1390773.5,1388524.404,1388537.9,1388541.082,1390775.838,,grey
Fixation,canvas.Screen,2_3_0_0,2022-06-27T16:09:35.980Z,,,1,A,2335.7309999999125,timeout,,,1393096.4,1393094.886,1390759.161,1390775.3000000003,1390775.838,1393111.569,,black
Stimulus,canvas.Screen,2_3_0_1,2022-06-27T16:09:36.080Z,,,1,A,99.377000000095,timeout,,,1393195.6,1393194.267,1393094.886,1393096.7000000002,1393111.569,1393210.946,,black
Reaction,canvas.Screen,2_3_0_2,2022-06-27T16:09:36.286Z,,,1,A,189.15400000009686,response,stim_detected,mousedown,1393401.8000000003,1393400.1,1393194.267,1393195.8000000003,1393210.946,1393410.995,,black
Trial,flow.Sequence,2_3_0,2022-06-27T16:09:36.286Z,,,1,A,2624.2620000001043,completion,,,1393402.2000000002,1393400.1,1390759.161,1390775.2000000002,1390775.838,1393410.995,,black
Frame,canvas.Frame,2_3,2022-06-27T16:09:36.287Z,,,1,A,2626.4620000002906,,,,1393402.5,1393402.3000000003,1390759.161,1390774.1,1390775.838,1393410.995,,black
Fixation,canvas.Screen,2_4_0_0,2022-06-27T16:09:38.381Z,,,1,A,2100.876999999862,timeout,,,1395496.9,1395495.198,1393394.318,1393403.7000000002,1393410.995,1395511.872,,black
Stimulus,canvas.Screen,2_4_0_1,2022-06-27T16:09:38.482Z,,,1,A,100.65700000012293,timeout,,,1395597.6,1395595.85,1395495.198,1395497.2000000002,1395511.872,1395612.529,,black
Reaction,canvas.Screen,2_4_0_2,2022-06-27T16:09:38.707Z,,,1,A,208.6710000000894,response,stim_detected,mousedown,1395823.4,1395821.2000000002,1395595.85,1395597.9,1395612.529,1395829.261,,black
Trial,flow.Sequence,2_4_0,2022-06-27T16:09:38.708Z,,,1,A,2410.2050000000745,completion,,,1395823.9,1395821.2000000002,1393394.318,1393403.6,1393410.995,1395829.261,,black
Frame,canvas.Frame,2_4,2022-06-27T16:09:38.708Z,,,1,A,2413.2050000000745,,,,1395824.4,1395824.2000000002,1393394.318,1393402.7000000002,1393410.995,1395829.261,,black
Fixation,canvas.Screen,2_5_0_0,2022-06-27T16:09:40.899Z,,,1,A,2200.6180000000168,timeout,,,1398014.7000000002,1398013.207,1395812.584,1395825.9,1395829.261,1398029.879,,black
Stimulus,canvas.Screen,2_5_0_1,2022-06-27T16:09:41.000Z,,,1,A,101.02399999997579,timeout,,,1398115.8000000003,1398114.221,1398013.207,1398014.9,1398029.879,1398130.903,,black
Reaction,canvas.Screen,2_5_0_2,2022-06-27T16:09:41.195Z,,,1,A,178.1970000001602,response,stim_detected,mousedown,1398310.7000000002,1398309.1,1398114.221,1398116.1,1398130.903,1398314.259,,black
Trial,flow.Sequence,2_5_0,2022-06-27T16:09:41.195Z,,,1,A,2479.8390000001527,completion,,,1398311,1398309.1,1395812.584,1395825.8000000003,1395829.261,1398314.259,,black
Frame,canvas.Frame,2_5,2022-06-27T16:09:41.195Z,,,1,A,2481.939000000246,,,,1398311.4,1398311.2000000002,1395812.584,1395824.7000000002,1395829.261,1398314.259,,black
Fixation,canvas.Screen,2_6_0_0,2022-06-27T16:09:43.535Z,,,0,V,2351.466999999946,timeout,,,1400651,1400649.049,1398297.582,1398312.6,1398314.259,1400665.726,,grey
Stimulus,canvas.Screen,2_6_0_1,2022-06-27T16:09:43.635Z,,,0,V,100.3179999999702,timeout,,,1400751,1400749.365,1400649.049,1400651.5,1400665.726,1400766.044,,grey
Reaction,canvas.Screen,2_6_0_2,2022-06-27T16:09:43.813Z,,,0,V,161.15600000019185,response,stim_detected,mousedown,1400928.9,1400927.2000000002,1400749.365,1400751.2000000002,1400766.044,1400932.727,,grey
Trial,flow.Sequence,2_6_0,2022-06-27T16:09:43.813Z,,,0,V,2612.941000000108,completion,,,1400929.2000000002,1400927.2000000002,1398297.582,1398312.5,1398314.259,1400932.727,,grey
Frame,canvas.Frame,2_6,2022-06-27T16:09:43.814Z,,,0,V,2615.1409999998286,,,,1400929.6,1400929.4,1398297.582,1398311.6,1398314.259,1400932.727,,grey
Fixation,canvas.Screen,2_7_0_0,2022-06-27T16:09:45.836Z,,,1,A,2034.4629999999888,timeout,,,1402951.9,1402950.514,1400916.05,1400930.8000000003,1400932.727,1402967.19,,black
Stimulus,canvas.Screen,2_7_0_1,2022-06-27T16:09:45.936Z,,,1,A,100.21100000012666,timeout,,,1403051.8000000003,1403050.724,1402950.514,1402952.2000000002,1402967.19,1403067.401,,black
Reaction,canvas.Screen,2_7_0_2,2022-06-27T16:09:46.442Z,,,1,A,488.7990000001155,response,stim_detected,mousedown,1403557.7000000002,1403556.2000000002,1403050.724,1403052.1,1403067.401,1403567.803,,black
Trial,flow.Sequence,2_7_0,2022-06-27T16:09:46.442Z,,,1,A,2623.473000000231,completion,,,1403558.2000000002,1403556.2000000002,1400916.05,1400930.7000000002,1400932.727,1403567.803,,black
Frame,canvas.Frame,2_7,2022-06-27T16:09:46.443Z,,,1,A,2625.6729999999516,,,,1403558.7000000002,1403558.4,1400916.05,1400929.7000000002,1400932.727,1403567.803,,black
Fixation,canvas.Screen,2_8_0_0,2022-06-27T16:09:48.237Z,,,1,A,1800.9839999999385,timeout,,,1405353,1405352.111,1403551.126,1403560.1,1403567.803,1405368.787,,black
Stimulus,canvas.Screen,2_8_0_1,2022-06-27T16:09:48.338Z,,,1,A,100.29799999995157,timeout,,,1405454,1405452.326,1405352.111,1405353.3000000003,1405368.787,1405469.085,,black
Reaction,canvas.Screen,2_8_0_2,2022-06-27T16:09:48.549Z,,,1,A,194.01500000013039,response,stim_detected,mousedown,1405664.7000000002,1405663.1,1405452.326,1405454.3000000003,1405469.085,1405669.209,,black
Trial,flow.Sequence,2_8_0,2022-06-27T16:09:48.549Z,,,1,A,2095.2970000000205,completion,,,1405665.1,1405663.1,1403551.126,1403559.9,1403567.803,1405669.209,,black
Frame,canvas.Frame,2_8,2022-06-27T16:09:48.549Z,,,1,A,2097.3970000001136,,,,1405665.4,1405665.2000000002,1403551.126,1403558.9,1403567.803,1405669.209,,black
Fixation,canvas.Screen,2_9_0_0,2022-06-27T16:09:50.056Z,,,1,AV,1517.9280000000726,timeout,,,1407172.2000000002,1407170.457,1405652.532,1405666.6,1405669.209,1407187.137,,grey
Stimulus,canvas.Screen,2_9_0_1,2022-06-27T16:09:50.156Z,,,1,AV,99.86699999985285,timeout,,,1407272.2000000002,1407270.326,1407170.457,1407172.6,1407187.137,1407287.004,,grey
Reaction,canvas.Screen,2_9_0_2,2022-06-27T16:09:50.350Z,,,1,AV,177.09600000013597,response,stim_detected,mousedown,1407465.6,1407464.1,1407270.326,1407272.5,1407287.004,1407470.441,,grey
Trial,flow.Sequence,2_9_0,2022-06-27T16:09:50.350Z,,,1,AV,1794.8910000000615,completion,,,1407466,1407464.1,1405652.532,1405666.5,1405669.209,1407470.441,,grey
Frame,canvas.Frame,2_9,2022-06-27T16:09:50.350Z,,,1,AV,1796.8910000000615,,,,1407466.3000000003,1407466.1,1405652.532,1405665.5,1405669.209,1407470.441,,grey
Fixation,canvas.Screen,2_10_0_0,2022-06-27T16:09:51.874Z,,,1,AV,1534.711999999825,timeout,,,1408990.2000000002,1408988.472,1407453.764,1407467.5,1407470.441,1409005.153,,grey
Stimulus,canvas.Screen,2_10_0_1,2022-06-27T16:09:51.973Z,,,1,AV,99.35000000009313,timeout,,,1409089.2000000002,1409087.829,1408988.472,1408990.5,1409005.153,1409104.503,,grey
Reaction,canvas.Screen,2_10_0_2,2022-06-27T16:09:52.135Z,,,1,AV,144.59700000006706,response,stim_detected,mousedown,1409251,1409249.1,1409087.829,1409089.5,1409104.503,1409255.01,,grey
Trial,flow.Sequence,2_10_0,2022-06-27T16:09:52.135Z,,,1,AV,1778.658999999985,completion,,,1409251.4,1409249.1,1407453.764,1407467.4,1407470.441,1409255.01,,grey
Frame,canvas.Frame,2_10,2022-06-27T16:09:52.136Z,,,1,AV,1781.058999999892,,,,1409251.7000000002,1409251.5,1407453.764,1407466.6,1407470.441,1409255.01,,grey
Fixation,canvas.Screen,2_11_0_0,2022-06-27T16:09:54.241Z,,,1,AV,2117.686999999918,timeout,,,1411357.4,1411356.022,1409238.332,1409252.9,1409255.01,1411372.697,,grey
Stimulus,canvas.Screen,2_11_0_1,2022-06-27T16:09:54.342Z,,,1,AV,100.5230000000447,timeout,,,1411458.3000000003,1411456.542,1411356.022,1411357.6,1411372.697,1411473.22,,grey
Reaction,canvas.Screen,2_11_0_2,2022-06-27T16:09:54.518Z,,,1,AV,158.88000000012107,response,stim_detected,mousedown,1411633.6,1411632.1,1411456.542,1411458.6,1411473.22,1411639.962,,grey
Trial,flow.Sequence,2_11_0,2022-06-27T16:09:54.518Z,,,1,AV,2377.090000000084,completion,,,1411634,1411632.1,1409238.332,1409252.8000000003,1409255.01,1411639.962,,grey
Frame,canvas.Frame,2_11,2022-06-27T16:09:54.518Z,,,1,AV,2379.090000000084,,,,1411634.3000000003,1411634.1,1409238.332,1409251.9,1409255.01,1411639.962,,grey
Fixation,canvas.Screen,2_12_0_0,2022-06-27T16:09:56.159Z,,,0,V,1650.7909999999683,timeout,,,1413275.3000000003,1413274.078,1411623.284,1411635.5,1411639.962,1413290.753,,grey
Stimulus,canvas.Screen,2_12_0_1,2022-06-27T16:09:56.259Z,,,0,V,100.35599999991246,timeout,,,1413375.5,1413374.32,1413274.078,1413275.7000000002,1413290.753,1413391.109,,grey
Reaction,canvas.Screen,2_12_0_2,2022-06-27T16:09:56.489Z,,,0,V,211.89100000006147,response,stim_detected,mousedown,1413604.6,1413603,1413374.32,1413375.7000000002,1413391.109,1413607.91,,grey
Trial,flow.Sequence,2_12_0,2022-06-27T16:09:56.489Z,,,0,V,1963.0379999999423,completion,,,1413605.1,1413603,1411623.284,1411635.4,1411639.962,1413607.91,,grey
Frame,canvas.Frame,2_12,2022-06-27T16:09:56.489Z,,,0,V,1965.2380000001285,,,,1413605.3000000003,1413605.2000000002,1411623.284,1411634.5,1411639.962,1413607.91,,grey
Fixation,canvas.Screen,2_13_0_0,2022-06-27T16:09:58.761Z,,,0,V,2284.439000000013,timeout,,,1415876.5,1415875.674,1413591.233,1413606.6,1413607.91,1415892.349,,grey
Stimulus,canvas.Screen,2_13_0_1,2022-06-27T16:09:58.862Z,,,0,V,100.51500000013039,timeout,,,1415977.7000000002,1415976.186,1415875.674,1415876.8000000003,1415892.349,1415992.864,,grey
Reaction,canvas.Screen,2_13_0_2,2022-06-27T16:09:59.081Z,,,0,V,203.1359999999404,response,stim_detected,mousedown,1416197.5,1416196,1415976.186,1415977.9,1415992.864,1416209.629,,grey
Trial,flow.Sequence,2_13_0,2022-06-27T16:09:59.082Z,,,0,V,2588.090000000084,completion,,,1416198,1416196,1413591.233,1413606.5,1413607.91,1416209.629,,grey
Frame,canvas.Frame,2_13,2022-06-27T16:09:59.082Z,,,0,V,2590.29000000027,,,,1416198.3000000003,1416198.2000000002,1413591.233,1413605.6,1413607.91,1416209.629,,grey
Fixation,canvas.Screen,2_14_0_0,2022-06-27T16:10:00.998Z,,,1,A,1918.9860000000335,timeout,,,1418113.7000000002,1418111.929,1416192.952,1416199.5,1416209.629,1418128.615,,black
Stimulus,canvas.Screen,2_14_0_1,2022-06-27T16:10:01.097Z,,,1,A,99.16599999996834,timeout,,,1418212.7000000002,1418211.103,1418111.929,1418113.9,1418128.615,1418227.781,,black
Reaction,canvas.Screen,2_14_0_2,2022-06-27T16:10:01.551Z,,,1,A,437.3190000001341,response,stim_detected,mousedown,1418666.6,1418665.1,1418211.103,1418212.9,1418227.781,1418677.971,,black
Trial,flow.Sequence,2_14_0,2022-06-27T16:10:01.551Z,,,1,A,2455.471000000136,completion,,,1418667,1418665.1,1416192.952,1416199.4,1416209.629,1418677.971,,black
Frame,canvas.Frame,2_14,2022-06-27T16:10:01.551Z,,,1,A,2457.471000000136,,,,1418667.3000000003,1418667.1,1416192.952,1416198.5,1416209.629,1418677.971,,black
Fixation,canvas.Screen,2_15_0_0,2022-06-27T16:10:03.683Z,,,0,V,2135.4260000002105,timeout,,,1420798.7000000002,1420796.715,1418661.294,1418668.7000000002,1418677.971,1420813.397,,grey
Stimulus,canvas.Screen,2_15_0_1,2022-06-27T16:10:03.781Z,,,0,V,99.13499999977648,timeout,,,1420896.9,1420895.857,1420796.715,1420799,1420813.397,1420912.532,,grey
Reaction,canvas.Screen,2_15_0_2,2022-06-27T16:10:03.973Z,,,0,V,174.56800000020303,response,stim_detected,mousedown,1421088.8000000003,1421087.1,1420895.857,1420897.3000000003,1420912.532,1421096.258,,grey
Trial,flow.Sequence,2_15_0,2022-06-27T16:10:03.973Z,,,0,V,2409.12900000019,completion,,,1421089.2000000002,1421087.1,1418661.294,1418668.5,1418677.971,1421096.258,,grey
Frame,canvas.Frame,2_15,2022-06-27T16:10:03.974Z,,,0,V,2411.3290000003763,,,,1421089.6,1421089.3000000003,1418661.294,1418667.5,1418677.971,1421096.258,,grey
Fixation,canvas.Screen,2_16_0_0,2022-06-27T16:10:06.434Z,,,1,AV,2469.472000000067,timeout,,,1423550,1423549.045,1421079.581,1421090.7000000002,1421096.258,1423565.73,,grey
Stimulus,canvas.Screen,2_16_0_1,2022-06-27T16:10:06.533Z,,,1,AV,98.36199999996461,timeout,,,1423649,1423647.418,1423549.045,1423550.2000000002,1423565.73,1423664.092,,grey
Reaction,canvas.Screen,2_16_0_2,2022-06-27T16:10:06.721Z,,,1,AV,172.00800000014715,response,stim_detected,mousedown,1423837.5,1423836.1,1423647.418,1423649.2000000002,1423664.092,1423848.149,,grey
Trial,flow.Sequence,2_16_0,2022-06-27T16:10:06.722Z,,,1,AV,2739.842000000179,completion,,,1423837.8000000003,1423836.1,1421079.581,1421090.6,1421096.258,1423848.149,,grey
Frame,canvas.Frame,2_16,2022-06-27T16:10:06.722Z,,,1,AV,2741.7420000000857,,,,1423838.1,1423838,1421079.581,1421089.7000000002,1421096.258,1423848.149,,grey
Fixation,canvas.Screen,2_17_0_0,2022-06-27T16:10:09.018Z,,,1,A,2301.2639999999665,timeout,,,1426134.1,1426132.737,1423831.471,1423839,1423848.149,1426149.413,,black
Stimulus,canvas.Screen,2_17_0_1,2022-06-27T16:10:09.118Z,,,1,A,100.29399999999441,timeout,,,1426234.1,1426233.03,1426132.737,1426134.5,1426149.413,1426249.707,,black
Reaction,canvas.Screen,2_17_0_2,2022-06-27T16:10:09.355Z,,,1,A,219.29300000006333,response,stim_detected,mousedown,1426470.5,1426469,1426233.03,1426234.4,1426249.707,1426483.265,,black
Trial,flow.Sequence,2_17_0,2022-06-27T16:10:09.355Z,,,1,A,2620.851000000024,completion,,,1426470.9,1426469,1423831.471,1423838.9,1423848.149,1426483.265,,black
Frame,canvas.Frame,2_17,2022-06-27T16:10:09.355Z,,,1,A,2622.9510000001173,,,,1426471.2000000002,1426471.1,1423831.471,1423838.3000000003,1423848.149,1426483.265,,black
Fixation,canvas.Screen,2_18_0_0,2022-06-27T16:10:11.786Z,,,0,V,2434.5130000000354,timeout,,,1428902.5,1428901.103,1426466.587,1426472.3000000003,1426483.265,1428917.778,,grey
Stimulus,canvas.Screen,2_18_0_1,2022-06-27T16:10:11.887Z,,,0,V,100.48699999996461,timeout,,,1429003.4,1429001.566,1428901.103,1428902.7000000002,1428917.778,1429018.265,,grey
Reaction,canvas.Screen,2_18_0_2,2022-06-27T16:10:12.122Z,,,0,V,218.53500000038184,response,stim_detected,mousedown,1429238.5,1429236.8000000003,1429001.566,1429003.6,1429018.265,1429251.743,,grey
Trial,flow.Sequence,2_18_0,2022-06-27T16:10:12.123Z,,,0,V,2753.535000000382,completion,,,1429238.8000000003,1429236.8000000003,1426466.587,1426472.3000000003,1426483.265,1429251.743,,grey
Frame,canvas.Frame,2_18,2022-06-27T16:10:12.123Z,,,0,V,2755.6350000000093,,,,1429239.1,1429238.9,1426466.587,1426471.4,1426483.265,1429251.743,,grey
Fixation,canvas.Screen,2_19_0_0,2022-06-27T16:10:13.922Z,,,1,AV,1802.0049999998882,timeout,,,1431038.3000000003,1431037.064,1429235.066,1429240.3000000003,1429251.743,1431053.748,,grey
Stimulus,canvas.Screen,2_19_0_1,2022-06-27T16:10:14.021Z,,,1,AV,99.28500000014901,timeout,,,1431137.4,1431136.356,1431037.064,1431038.5,1431053.748,1431153.033,,grey
Reaction,canvas.Screen,2_19_0_2,2022-06-27T16:10:14.212Z,,,1,AV,172.86699999985285,response,stim_detected,mousedown,1431327.6,1431325.9,1431136.356,1431137.6,1431153.033,1431336.523,,grey
Trial,flow.Sequence,2_19_0,2022-06-27T16:10:14.212Z,,,1,AV,2074.15699999989,completion,,,1431328.1,1431325.9,1429235.066,1429240.2000000002,1429251.743,1431336.523,,grey
Frame,canvas.Frame,2_19,2022-06-27T16:10:14.212Z,,,1,AV,2076.5570000002626,,,,1431328.5,1431328.3000000003,1429235.066,1429239.3000000003,1429251.743,1431336.523,,grey
Fixation,canvas.Screen,2_20_0_0,2022-06-27T16:10:16.372Z,,,1,A,2167.726000000024,timeout,,,1433488.5,1433487.574,1431319.846,1431329.6,1431336.523,1433504.249,,black
Stimulus,canvas.Screen,2_20_0_1,2022-06-27T16:10:16.474Z,,,1,A,100.17099999985658,timeout,,,1433589.6,1433587.745,1433487.574,1433488.7000000002,1433504.249,1433604.42,,black
Reaction,canvas.Screen,2_20_0_2,2022-06-27T16:10:16.649Z,,,1,A,158.68000000016764,response,stim_detected,mousedown,1433764.8000000003,1433763.1,1433587.745,1433590,1433604.42,1433771.446,,black
Trial,flow.Sequence,2_20_0,2022-06-27T16:10:16.649Z,,,1,A,2426.5770000000484,completion,,,1433765.2000000002,1433763.1,1431319.846,1431329.5,1431336.523,1433771.446,,black
Frame,canvas.Frame,2_20,2022-06-27T16:10:16.650Z,,,1,A,2428.876999999862,,,,1433765.6,1433765.4,1431319.846,1431328.6,1431336.523,1433771.446,,black
Fixation,canvas.Screen,2_21_0_0,2022-06-27T16:10:18.993Z,,,0,V,2353.28199999989,timeout,,,1436109.8000000003,1436108.039,1433754.769,1433766.8000000003,1433771.446,1436124.728,,grey
Stimulus,canvas.Screen,2_21_0_1,2022-06-27T16:10:19.092Z,,,0,V,98.4230000001844,timeout,,,1436208.4,1436206.473,1436108.039,1436110,1436124.728,1436223.151,,grey
Reaction,canvas.Screen,2_21_0_2,2022-06-27T16:10:19.323Z,,,0,V,214.84899999992922,response,stim_detected,mousedown,1436439.6,1436438,1436206.473,1436208.7000000002,1436223.151,1436456.617,,grey
Trial,flow.Sequence,2_21_0,2022-06-27T16:10:19.324Z,,,0,V,2666.5540000000037,completion,,,1436440,1436438,1433754.769,1433766.7000000002,1433771.446,1436456.617,,grey
Frame,canvas.Frame,2_21,2022-06-27T16:10:19.324Z,,,0,V,2668.654000000097,,,,1436440.3000000003,1436440.1,1433754.769,1433765.9,1433771.446,1436456.617,,grey
Fixation,canvas.Screen,2_22_0_0,2022-06-27T16:10:21.192Z,,,0,V,1867.5719999999274,timeout,,,1438308.6,1438307.514,1436439.94,1436441.6,1436456.617,1438324.189,,grey
Stimulus,canvas.Screen,2_22_0_1,2022-06-27T16:10:21.293Z,,,0,V,100.43999999994412,timeout,,,1438409,1438407.95,1438307.514,1438309,1438324.189,1438424.629,,grey
Reaction,canvas.Screen,2_22_0_2,2022-06-27T16:10:21.452Z,,,0,V,142.37100000004284,response,stim_detected,mousedown,1438568.7000000002,1438567,1438407.95,1438409.2000000002,1438424.629,1438574.695,,grey
Trial,flow.Sequence,2_22_0,2022-06-27T16:10:21.453Z,,,0,V,2110.3829999999143,completion,,,1438569.1,1438567,1436439.94,1436441.3000000003,1436456.617,1438574.695,,grey
Frame,canvas.Frame,2_22,2022-06-27T16:10:21.453Z,,,0,V,2112.6830000001937,,,,1438569.5,1438569.3000000003,1436439.94,1436440.5,1436456.617,1438574.695,,grey
Fixation,canvas.Screen,2_23_0_0,2022-06-27T16:10:22.977Z,,,0,V,1534.9269999999087,timeout,,,1440093.8000000003,1440092.939,1438558.018,1438570.5,1438574.695,1440109.622,,grey
Stimulus,canvas.Screen,2_23_0_1,2022-06-27T16:10:23.077Z,,,0,V,99.60300000011921,timeout,,,1440193.8000000003,1440192.547,1440092.939,1440094.2000000002,1440109.622,1440209.225,,grey
Reaction,canvas.Screen,2_23_0_2,2022-06-27T16:10:23.252Z,,,0,V,156.77499999990687,response,stim_detected,mousedown,1440368.1,1440366,1440192.547,1440194,1440209.225,1440375.934,,grey
Trial,flow.Sequence,2_23_0,2022-06-27T16:10:23.252Z,,,0,V,1791.3049999999348,completion,,,1440368.5,1440366,1438558.018,1438570.5,1438574.695,1440375.934,,grey
Frame,canvas.Frame,2_23,2022-06-27T16:10:23.252Z,,,0,V,1793.905000000028,,,,1440368.8000000003,1440368.6,1438558.018,1438569.6,1438574.695,1440375.934,,grey
Fixation,canvas.Screen,2_24_0_0,2022-06-27T16:10:25.028Z,,,1,AV,1784.5600000000559,timeout,,,1442144.8000000003,1442143.816,1440359.257,1440370,1440375.934,1442160.494,,grey
Stimulus,canvas.Screen,2_24_0_1,2022-06-27T16:10:25.128Z,,,1,AV,100.11300000012852,timeout,,,1442244.8000000003,1442243.929,1442143.816,1442145.1,1442160.494,1442260.607,,grey
Reaction,canvas.Screen,2_24_0_2,2022-06-27T16:10:25.326Z,,,1,AV,180.39299999992363,response,stim_detected,mousedown,1442442.4,1442441,1442243.929,1442245.1,1442260.607,1442443.988,,grey
Trial,flow.Sequence,2_24_0,2022-06-27T16:10:25.326Z,,,1,AV,2065.066000000108,completion,,,1442442.9,1442441,1440359.257,1440369.9,1440375.934,1442443.988,,grey
Frame,canvas.Frame,2_24,2022-06-27T16:10:25.327Z,,,1,AV,2067.066000000108,,,,1442443.1,1442443,1440359.257,1440369,1440375.934,1442443.988,,grey
Fixation,canvas.Screen,2_25_0_0,2022-06-27T16:10:27.413Z,,,1,A,2100.7430000000168,timeout,,,1444529.1,1444528.058,1442427.311,1442444.4,1442443.988,1444544.731,,black
Stimulus,canvas.Screen,2_25_0_1,2022-06-27T16:10:27.514Z,,,1,A,100.83100000000559,timeout,,,1444630,1444628.884,1444528.058,1444529.5,1444544.731,1444645.562,,black
Reaction,canvas.Screen,2_25_0_2,2022-06-27T16:10:27.697Z,,,1,A,166.33799999998882,response,stim_detected,mousedown,1444813.6,1444811.9,1444628.884,1444630.3000000003,1444645.562,1444828.904,,black
Trial,flow.Sequence,2_25_0,2022-06-27T16:10:27.698Z,,,1,A,2367.912000000011,completion,,,1444814,1444811.9,1442427.311,1442444.4,1442443.988,1444828.904,,black
Frame,canvas.Frame,2_25,2022-06-27T16:10:27.698Z,,,1,A,2370.2120000002906,,,,1444814.4,1444814.2000000002,1442427.311,1442443.3000000003,1442443.988,1444828.904,,black
Fixation,canvas.Screen,2_26_0_0,2022-06-27T16:10:29.767Z,,,1,AV,2069.1989999997895,timeout,,,1446883.3000000003,1446881.417,1444812.227,1444815.6,1444828.904,1446898.103,,grey
Stimulus,canvas.Screen,2_26_0_1,2022-06-27T16:10:29.865Z,,,1,AV,98.94900000002235,timeout,,,1446981.3000000003,1446980.064,1446881.417,1446883.6,1446898.103,1446997.052,,grey
Reaction,canvas.Screen,2_26_0_2,2022-06-27T16:10:29.976Z,,,1,AV,93.84799999999814,response,stim_detected,mousedown,1447092.4,1447090.9,1446980.064,1446981.5,1446997.052,1447097.114,,grey
Trial,flow.Sequence,2_26_0,2022-06-27T16:10:29.976Z,,,1,AV,2261.99599999981,completion,,,1447092.7000000002,1447090.9,1444812.227,1444815.5,1444828.904,1447097.114,,grey
Frame,canvas.Frame,2_26,2022-06-27T16:10:29.977Z,,,1,AV,2263.99599999981,,,,1447093.1,1447092.9,1444812.227,1444814.6,1444828.904,1447097.114,,grey
Fixation,canvas.Screen,2_27_0_0,2022-06-27T16:10:32.117Z,,,0,V,2151.8919999999925,timeout,,,1449233.3000000003,1449232.325,1447080.437,1447094.2000000002,1447097.114,1449249.006,,grey
Stimulus,canvas.Screen,2_27_0_1,2022-06-27T16:10:32.216Z,,,0,V,98.76199999987148,timeout,,,1449332.4,1449331.097,1449232.325,1449233.5,1449249.006,1449347.768,,grey
Reaction,canvas.Screen,2_27_0_2,2022-06-27T16:10:32.388Z,,,0,V,155.13199999998324,response,stim_detected,mousedown,1449504.5,1449502.9,1449331.097,1449332.6,1449347.768,1449515.413,,grey
Trial,flow.Sequence,2_27_0,2022-06-27T16:10:32.388Z,,,0,V,2405.7859999998473,completion,,,1449504.9,1449502.9,1447080.437,1447094.1,1447097.114,1449515.413,,grey
Frame,canvas.Frame,2_27,2022-06-27T16:10:32.389Z,,,0,V,2407.8859999999404,,,,1449505.2000000002,1449505,1447080.437,1447093.3000000003,1447097.114,1449515.413,,grey
Fixation,canvas.Screen,2_28_0_0,2022-06-27T16:10:34.302Z,,,1,AV,1918.3649999999907,timeout,,,1451418.4,1451417.097,1449498.735,1449506.5,1449515.413,1451433.778,,grey
Stimulus,canvas.Screen,2_28_0_1,2022-06-27T16:10:34.402Z,,,1,AV,99.69400000013411,timeout,,,1451518.4,1451516.794,1451417.097,1451418.7000000002,1451433.778,1451533.472,,grey
Reaction,canvas.Screen,2_28_0_2,2022-06-27T16:10:34.580Z,,,1,AV,161.4279999998398,response,stim_detected,mousedown,1451696.5,1451694.9,1451516.794,1451518.5,1451533.472,1451700.176,,grey
Trial,flow.Sequence,2_28_0,2022-06-27T16:10:34.581Z,,,1,AV,2179.4869999999646,completion,,,1451696.9,1451694.9,1449498.735,1449506.3000000003,1449515.413,1451700.176,,grey
Frame,canvas.Frame,2_28,2022-06-27T16:10:34.581Z,,,1,AV,2181.687000000151,,,,1451697.2000000002,1451697.1,1449498.735,1449505.5,1449515.413,1451700.176,,grey
Fixation,canvas.Screen,2_29_0_0,2022-06-27T16:10:36.387Z,,,0,V,1818.7409999999218,timeout,,,1453503.5,1453502.232,1451683.499,1451698.5,1451700.176,1453518.917,,grey
Stimulus,canvas.Screen,2_29_0_1,2022-06-27T16:10:36.486Z,,,0,V,99.2640000001993,timeout,,,1453602.5,1453601.469,1453502.232,1453503.7000000002,1453518.917,1453618.181,,grey
Reaction,canvas.Screen,2_29_0_2,2022-06-27T16:10:36.658Z,,,0,V,154.71899999980815,response,stim_detected,mousedown,1453774.4,1453772.9,1453601.469,1453602.8000000003,1453618.181,1453784.951,,grey
Trial,flow.Sequence,2_29_0,2022-06-27T16:10:36.659Z,,,0,V,2072.723999999929,completion,,,1453774.9,1453772.9,1451683.499,1451698.5,1451700.176,1453784.951,,grey
Frame,canvas.Frame,2_29,2022-06-27T16:10:36.659Z,,,0,V,2074.9240000001155,,,,1453775.4,1453775.1,1451683.499,1451697.5,1451700.176,1453784.951,,grey
Fixation,canvas.Screen,2_30_0_0,2022-06-27T16:10:38.621Z,,,1,A,1967.6340000000782,timeout,,,1455737.8000000003,1455735.91,1453768.274,1453776.8000000003,1453784.951,1455752.585,,black
Stimulus,canvas.Screen,2_30_0_1,2022-06-27T16:10:38.721Z,,,1,A,100.49699999997392,timeout,,,1455837.5,1455836.404,1455735.91,1455738,1455752.585,1455853.082,,black
Reaction,canvas.Screen,2_30_0_2,2022-06-27T16:10:38.852Z,,,1,A,113.8179999999702,response,stim_detected,mousedown,1455968.5,1455966.9,1455836.404,1455837.9,1455853.082,1455986.422,,black
Trial,flow.Sequence,2_30_0,2022-06-27T16:10:38.852Z,,,1,A,2181.9490000000224,completion,,,1455968.9,1455966.9,1453768.274,1453776.7000000002,1453784.951,1455986.422,,black
Frame,canvas.Frame,2_30,2022-06-27T16:10:38.853Z,,,1,A,2184.1490000002086,,,,1455969.2000000002,1455969.1,1453768.274,1453775.6,1453784.951,1455986.422,,black
Fixation,canvas.Screen,2_31_0_0,2022-06-27T16:10:40.623Z,,,1,AV,1768.2879999999423,timeout,,,1457739.8000000003,1457738.028,1455969.745,1455970.5,1455986.422,1457754.71,,grey
Stimulus,canvas.Screen,2_31_0_1,2022-06-27T16:10:40.722Z,,,1,AV,98.91800000006333,timeout,,,1457838.7000000002,1457836.957,1457738.028,1457740.2000000002,1457754.71,1457853.628,,grey
Reaction,canvas.Screen,2_31_0_2,2022-06-27T16:10:40.880Z,,,1,AV,141.17200000025332,response,stim_detected,mousedown,1457996.3000000003,1457994.8000000003,1457836.957,1457839,1457853.628,1458004.471,,grey
Trial,flow.Sequence,2_31_0,2022-06-27T16:10:40.880Z,,,1,AV,2008.378000000259,completion,,,1457996.7000000002,1457994.8000000003,1455969.745,1455970.4,1455986.422,1458004.471,,grey
Frame,canvas.Frame,2_31,2022-06-27T16:10:40.881Z,,,1,AV,2010.4779999998864,,,,1457997.1,1457996.9,1455969.745,1455969.4,1455986.422,1458004.471,,grey
Fixation,canvas.Screen,2_32_0_0,2022-06-27T16:10:42.556Z,,,0,V,1683.9200000001583,timeout,,,1459672.8000000003,1459671.718,1457987.793,1457998.6,1458004.471,1459688.391,,grey
Stimulus,canvas.Screen,2_32_0_1,2022-06-27T16:10:42.658Z,,,0,V,100.68099999986589,timeout,,,1459773.9,1459772.394,1459671.718,1459673.1,1459688.391,1459789.072,,grey
Reaction,canvas.Screen,2_32_0_2,2022-06-27T16:10:42.846Z,,,0,V,171.72800000035204,response,stim_detected,mousedown,1459962.4,1459960.8000000003,1459772.394,1459774.2000000002,1459789.072,1459972.406,,grey
Trial,flow.Sequence,2_32_0,2022-06-27T16:10:42.846Z,,,0,V,1956.3290000003763,completion,,,1459962.8000000003,1459960.8000000003,1457987.793,1457998.3000000003,1458004.471,1459972.406,,grey
Frame,canvas.Frame,2_32,2022-06-27T16:10:42.847Z,,,0,V,1958.4290000000037,,,,1459963.2000000002,1459962.9,1457987.793,1457997.3000000003,1458004.471,1459972.406,,grey
Fixation,canvas.Screen,2_33_0_0,2022-06-27T16:10:44.627Z,,,1,AV,1785.6350000000093,timeout,,,1461742.9,1461741.354,1459955.729,1459964.2000000002,1459972.406,1461758.041,,grey
Stimulus,canvas.Screen,2_33_0_1,2022-06-27T16:10:44.726Z,,,1,AV,99.00399999995716,timeout,,,1461841.9,1461840.354,1461741.354,1461743.2000000002,1461758.041,1461857.045,,grey
Reaction,canvas.Screen,2_33_0_2,2022-06-27T16:10:44.947Z,,,1,AV,204.65500000026077,response,stim_detected,mousedown,1462063.3000000003,1462061.7000000002,1461840.354,1461842.2000000002,1461857.045,1462073.846,,grey
Trial,flow.Sequence,2_33_0,2022-06-27T16:10:44.947Z,,,1,AV,2089.2940000002272,completion,,,1462063.7000000002,1462061.7000000002,1459955.729,1459964.2000000002,1459972.406,1462073.846,,grey
Frame,canvas.Frame,2_33,2022-06-27T16:10:44.948Z,,,1,AV,2091.493999999948,,,,1462064,1462063.9,1459955.729,1459963.3000000003,1459972.406,1462073.846,,grey
Fixation,canvas.Screen,2_34_0_0,2022-06-27T16:10:47.228Z,,,1,AV,2285.3720000002068,timeout,,,1464344.3000000003,1464342.537,1462057.169,1462065.1,1462073.846,1464359.218,,grey
Stimulus,canvas.Screen,2_34_0_1,2022-06-27T16:10:47.327Z,,,1,AV,99.58799999998882,timeout,,,1464443.2000000002,1464442.025,1464342.537,1464344.5,1464359.218,1464458.806,,grey
Reaction,canvas.Screen,2_34_0_2,2022-06-27T16:10:47.502Z,,,1,AV,157.2939999999944,response,stim_detected,mousedown,1464617.9,1464616.1,1464442.025,1464443.5,1464458.806,1464625.576,,grey
Trial,flow.Sequence,2_34_0,2022-06-27T16:10:47.502Z,,,1,AV,2542.25400000019,completion,,,1464618.3000000003,1464616.1,1462057.169,1462065.1,1462073.846,1464625.576,,grey
Frame,canvas.Frame,2_34,2022-06-27T16:10:47.502Z,,,1,AV,2544.5540000000037,,,,1464618.6,1464618.4,1462057.169,1462064.1,1462073.846,1464625.576,,grey
Fixation,canvas.Screen,2_35_0_0,2022-06-27T16:10:49.445Z,,,0,V,1950.566000000108,timeout,,,1466561.2000000002,1466559.47,1464608.899,1464619.8000000003,1464625.576,1466576.142,,grey
Stimulus,canvas.Screen,2_35_0_1,2022-06-27T16:10:49.546Z,,,0,V,100.86000000010245,timeout,,,1466662.1,1466660.323,1466559.47,1466561.4,1466576.142,1466677.002,,grey
Reaction,canvas.Screen,2_35_0_2,2022-06-27T16:10:49.700Z,,,0,V,137.69800000009127,response,stim_detected,mousedown,1466816.2000000002,1466814.7000000002,1466660.323,1466662.5,1466677.002,1466827.09,,grey
Trial,flow.Sequence,2_35_0,2022-06-27T16:10:49.700Z,,,0,V,2189.1240000003017,completion,,,1466816.7000000002,1466814.7000000002,1464608.899,1464619.6,1464625.576,1466827.09,,grey
Frame,canvas.Frame,2_35,2022-06-27T16:10:49.701Z,,,0,V,2191.3240000000224,,,,1466817.1,1466816.9,1464608.899,1464618.8000000003,1464625.576,1466827.09,,grey
Fixation,canvas.Screen,2_36_0_0,2022-06-27T16:10:51.830Z,,,1,A,2134.372999999905,timeout,,,1468946.3000000003,1468944.788,1466810.412,1466818.5,1466827.09,1468961.463,,black
Stimulus,canvas.Screen,2_36_0_1,2022-06-27T16:10:51.930Z,,,1,A,100.10499999998137,timeout,,,1469046.2000000002,1469044.893,1468944.788,1468946.6,1468961.463,1469061.568,,black
Reaction,canvas.Screen,2_36_0_2,2022-06-27T16:10:52.078Z,,,1,A,131.2320000003092,response,stim_detected,mousedown,1469194.4,1469192.8000000003,1469044.893,1469046.5,1469061.568,1469212.01,,black
Trial,flow.Sequence,2_36_0,2022-06-27T16:10:52.078Z,,,1,A,2365.7100000001956,completion,,,1469194.7000000002,1469192.8000000003,1466810.412,1466818.4,1466827.09,1469212.01,,black
Frame,canvas.Frame,2_36,2022-06-27T16:10:52.079Z,,,1,A,2367.809999999823,,,,1469195.1,1469194.9,1466810.412,1466817.3000000003,1466827.09,1469212.01,,black
Fixation,canvas.Screen,2_37_0_0,2022-06-27T16:10:54.432Z,,,1,A,2351.1429999999236,timeout,,,1471548.4,1471546.478,1469195.332,1469196.4,1469212.01,1471563.153,,black
Stimulus,canvas.Screen,2_37_0_1,2022-06-27T16:10:54.532Z,,,1,A,100.44500000006519,timeout,,,1471648.5,1471646.921,1471546.478,1471548.7000000002,1471563.153,1471663.598,,black
Reaction,canvas.Screen,2_37_0_2,2022-06-27T16:10:54.700Z,,,1,A,150.60200000018813,response,stim_detected,mousedown,1471816.2000000002,1471814.2000000002,1471646.921,1471648.7000000002,1471663.598,1471830.391,,black
Trial,flow.Sequence,2_37_0,2022-06-27T16:10:54.700Z,,,1,A,2602.190000000177,completion,,,1471816.6,1471814.2000000002,1469195.332,1469196.3000000003,1469212.01,1471830.391,,black
Frame,canvas.Frame,2_37,2022-06-27T16:10:54.701Z,,,1,A,2604.690000000177,,,,1471817,1471816.7000000002,1469195.332,1469195.3000000003,1469212.01,1471830.391,,black
Fixation,canvas.Screen,2_38_0_0,2022-06-27T16:10:57.118Z,,,1,AV,2419.7049999998417,timeout,,,1474234.7000000002,1474233.409,1471813.714,1471818.3000000003,1471830.391,1474250.096,,grey
Stimulus,canvas.Screen,2_38_0_1,2022-06-27T16:10:57.217Z,,,1,AV,98.45800000010058,timeout,,,1474333.7000000002,1474331.878,1474233.409,1474234.9,1474250.096,1474348.554,,grey
Reaction,canvas.Screen,2_38_0_2,2022-06-27T16:10:57.369Z,,,1,AV,135.0460000000894,response,stim_detected,mousedown,1474485.2000000002,1474483.6,1474331.878,1474333.9,1474348.554,1474498.896,,grey
Trial,flow.Sequence,2_38_0,2022-06-27T16:10:57.369Z,,,1,AV,2653.2090000000317,completion,,,1474485.5,1474483.6,1471813.714,1471818.1,1471830.391,1474498.896,,grey
Frame,canvas.Frame,2_38,2022-06-27T16:10:57.369Z,,,1,AV,2655.309000000125,,,,1474485.9,1474485.7000000002,1471813.714,1471817.2000000002,1471830.391,1474498.896,,grey
Fixation,canvas.Screen,2_39_0_0,2022-06-27T16:10:59.385Z,,,1,A,2017.7909999999683,timeout,,,1476501.7000000002,1476500.011,1474482.219,1474487,1474498.896,1476516.687,,black
Stimulus,canvas.Screen,2_39_0_1,2022-06-27T16:10:59.485Z,,,1,A,100.03100000019185,timeout,,,1476601.8000000003,1476600.043,1476500.011,1476502,1476516.687,1476616.718,,black
Reaction,canvas.Screen,2_39_0_2,2022-06-27T16:10:59.703Z,,,1,A,200.98200000007637,response,stim_detected,mousedown,1476819.2000000002,1476817.7000000002,1476600.043,1476602.1,1476616.718,1476833.783,,black
Trial,flow.Sequence,2_39_0,2022-06-27T16:10:59.703Z,,,1,A,2318.8040000002366,completion,,,1476819.6,1476817.7000000002,1474482.219,1474486.9,1474498.896,1476833.783,,black
Frame,canvas.Frame,2_39,2022-06-27T16:10:59.704Z,,,1,A,2320.9040000003297,,,,1476820,1476819.8000000003,1474482.219,1474486.1,1474498.896,1476833.783,,black
Fixation,canvas.Screen,2_40_0_0,2022-06-27T16:11:02.138Z,,,1,A,2435.3319999999367,timeout,,,1479254,1479252.435,1476817.106,1476821.2000000002,1476833.783,1479269.115,,black
Stimulus,canvas.Screen,2_40_0_1,2022-06-27T16:11:02.238Z,,,1,A,99.8070000000298,timeout,,,1479354,1479352.244,1479252.435,1479254.2000000002,1479269.115,1479368.922,,black
Reaction,canvas.Screen,2_40_0_2,2022-06-27T16:11:03.738Z,,,1,A,1500.813000000082,timeout,,,1480854,1480853.058,1479352.244,1479354.2000000002,1479368.922,1480869.735,,black
Trial,flow.Sequence,2_40_0,2022-06-27T16:11:03.738Z,,,1,A,4019.274999999907,completion,,,1480854.4,1480853.058,1476817.106,1476821,1476833.783,1480869.735,,black
Frame,canvas.Frame,2_40,2022-06-27T16:11:03.738Z,,,1,A,4020.716999999946,,,,1480854.7000000002,1480854.5,1476817.106,1476820.2000000002,1476833.783,1480886.412,,black
Fixation,canvas.Screen,2_41_0_0,2022-06-27T16:11:05.540Z,,,1,AV,1784.5370000000112,timeout,,,1482656.2000000002,1482654.272,1480869.735,1480855.7000000002,1480886.412,1482670.949,,grey
Stimulus,canvas.Screen,2_41_0_1,2022-06-27T16:11:05.640Z,,,1,AV,100.42299999995157,timeout,,,1482756.2000000002,1482754.671,1482654.272,1482656.5,1482670.949,1482771.372,,grey
Reaction,canvas.Screen,2_41_0_2,2022-06-27T16:11:05.803Z,,,1,AV,146.32800000021234,response,stim_detected,mousedown,1482919.1,1482917.7000000002,1482754.671,1482756.4,1482771.372,1482921.226,,grey
Trial,flow.Sequence,2_41_0,2022-06-27T16:11:05.803Z,,,1,AV,2031.288000000175,completion,,,1482919.5,1482917.7000000002,1480869.735,1480855.7000000002,1480886.412,1482921.226,,grey
Frame,canvas.Frame,2_41,2022-06-27T16:11:05.803Z,,,1,AV,2033.288000000175,,,,1482919.8000000003,1482919.7000000002,1480869.735,1480854.9,1480886.412,1482921.226,,grey
Fixation,canvas.Screen,2_42_0_0,2022-06-27T16:11:07.458Z,,,1,AV,1667.7009999998845,timeout,,,1484574.1,1484572.25,1482904.549,1482921.6,1482921.226,1484588.927,,grey
Stimulus,canvas.Screen,2_42_0_1,2022-06-27T16:11:07.557Z,,,1,AV,99.88100000005215,timeout,,,1484673.2000000002,1484672.133,1484572.25,1484574.4,1484588.927,1484688.808,,grey
Reaction,canvas.Screen,2_42_0_2,2022-06-27T16:11:07.775Z,,,1,AV,200.89200000022538,response,stim_detected,mousedown,1484891.1,1484889.7000000002,1484672.133,1484673.4,1484688.808,1484905.893,,grey
Trial,flow.Sequence,2_42_0,2022-06-27T16:11:07.775Z,,,1,AV,1968.474000000162,completion,,,1484891.5,1484889.7000000002,1482904.549,1482921.4,1482921.226,1484905.893,,grey
Frame,canvas.Frame,2_42,2022-06-27T16:11:07.775Z,,,1,AV,1970.374000000069,,,,1484891.9,1484891.6,1482904.549,1482920.2000000002,1482921.226,1484905.893,,grey
Fixation,canvas.Screen,2_43_0_0,2022-06-27T16:11:09.442Z,,,0,V,1667.7690000000875,timeout,,,1486558.1,1486556.984,1484889.215,1484912.8000000003,1484905.893,1486573.662,,grey
Stimulus,canvas.Screen,2_43_0_1,2022-06-27T16:11:09.542Z,,,0,V,99.59799999999814,timeout,,,1486658.1,1486656.587,1486556.984,1486558.5,1486573.662,1486673.26,,grey
Reaction,canvas.Screen,2_43_0_2,2022-06-27T16:11:09.771Z,,,0,V,212.44000000017695,response,stim_detected,mousedown,1486887.2000000002,1486885.7000000002,1486656.587,1486658.3000000003,1486673.26,1486890.552,,grey
Trial,flow.Sequence,2_43_0,2022-06-27T16:11:09.771Z,,,0,V,1979.8070000002626,completion,,,1486887.7000000002,1486885.7000000002,1484889.215,1484912.7000000002,1484905.893,1486890.552,,grey
Frame,canvas.Frame,2_43,2022-06-27T16:11:09.772Z,,,0,V,1982.0069999999832,,,,1486888.1,1486887.9,1484889.215,1484892,1484905.893,1486890.552,,grey
Fixation,canvas.Screen,2_44_0_0,2022-06-27T16:11:11.960Z,,,0,V,2201.498000000138,timeout,,,1489076.3000000003,1489075.372,1486873.874,1486889.1,1486890.552,1489092.05,,grey
Stimulus,canvas.Screen,2_44_0_1,2022-06-27T16:11:12.060Z,,,0,V,100.07700000004843,timeout,,,1489176.5,1489175.449,1489075.372,1489076.6,1489092.05,1489192.127,,grey
Reaction,canvas.Screen,2_44_0_2,2022-06-27T16:11:12.259Z,,,0,V,181.57300000009127,response,stim_detected,mousedown,1489375.3000000003,1489373.7000000002,1489175.449,1489176.6,1489192.127,1489392.245,,grey
Trial,flow.Sequence,2_44_0,2022-06-27T16:11:12.259Z,,,0,V,2483.1480000002775,completion,,,1489375.7000000002,1489373.7000000002,1486873.874,1486889.1,1486890.552,1489392.245,,grey
Frame,canvas.Frame,2_44,2022-06-27T16:11:12.260Z,,,0,V,2485.2480000003707,,,,1489376,1489375.8000000003,1486873.874,1486888.3000000003,1486890.552,1489392.245,,grey
Fixation,canvas.Screen,2_45_0_0,2022-06-27T16:11:14.128Z,,,1,AV,1867.7069999999367,timeout,,,1491244.4,1491243.276,1489375.568,1489377.3000000003,1489392.245,1491259.952,,grey
Stimulus,canvas.Screen,2_45_0_1,2022-06-27T16:11:14.228Z,,,1,AV,100.31400000001304,timeout,,,1491344.5,1491343.58,1491243.276,1491244.9,1491259.952,1491360.266,,grey
Reaction,canvas.Screen,2_45_0_2,2022-06-27T16:11:14.387Z,,,1,AV,141.4340000001248,response,stim_detected,mousedown,1491503.2000000002,1491501.7000000002,1491343.58,1491344.7000000002,1491360.266,1491510.368,,grey
Trial,flow.Sequence,2_45_0,2022-06-27T16:11:14.387Z,,,1,AV,2109.4550000000745,completion,,,1491503.6,1491501.7000000002,1489375.568,1489377.2000000002,1489392.245,1491510.368,,grey
Frame,canvas.Frame,2_45,2022-06-27T16:11:14.387Z,,,1,AV,2111.4550000000745,,,,1491503.8000000003,1491503.7000000002,1489375.568,1489376.2000000002,1489392.245,1491510.368,,grey
Fixation,canvas.Screen,2_46_0_0,2022-06-27T16:11:16.078Z,,,1,AV,1700.0100000000093,timeout,,,1493194.5,1493193.71,1491493.69,1491505,1491510.368,1493210.378,,grey
Stimulus,canvas.Screen,2_46_0_1,2022-06-27T16:11:16.180Z,,,1,AV,101.24600000004284,timeout,,,1493296.6,1493294.944,1493193.71,1493194.8000000003,1493210.378,1493311.624,,grey
Reaction,canvas.Screen,2_46_0_2,2022-06-27T16:11:16.349Z,,,1,AV,152.07600000011735,response,stim_detected,mousedown,1493465.3000000003,1493463.7000000002,1493294.944,1493296.7000000002,1493311.624,1493478.314,,grey
Trial,flow.Sequence,2_46_0,2022-06-27T16:11:16.349Z,,,1,AV,1953.3320000001695,completion,,,1493465.7000000002,1493463.7000000002,1491493.69,1491504.9,1491510.368,1493478.314,,grey
Frame,canvas.Frame,2_46,2022-06-27T16:11:16.350Z,,,1,AV,1955.4320000002626,,,,1493466.1,1493465.8000000003,1491493.69,1491504,1491510.368,1493478.314,,grey
Fixation,canvas.Screen,2_47_0_0,2022-06-27T16:11:18.748Z,,,1,AV,2402.1329999999143,timeout,,,1495864.8000000003,1495863.766,1493461.637,1493467.3000000003,1493478.314,1495880.447,,grey
Stimulus,canvas.Screen,2_47_0_1,2022-06-27T16:11:18.850Z,,,1,AV,99.52900000009686,timeout,,,1495965.4,1495963.299,1495863.766,1495865.1,1495880.447,1495979.976,,grey
Reaction,canvas.Screen,2_47_0_2,2022-06-27T16:11:18.999Z,,,1,AV,132.72400000016205,response,stim_detected,mousedown,1496114.4,1496112.7000000002,1495963.299,1495965.6,1495979.976,1496130.117,,grey
Trial,flow.Sequence,2_47_0,2022-06-27T16:11:18.999Z,,,1,AV,2634.386000000173,completion,,,1496114.9,1496112.7000000002,1493461.637,1493467.2000000002,1493478.314,1496130.117,,grey
Frame,canvas.Frame,2_47,2022-06-27T16:11:19.000Z,,,1,AV,2636.78600000008,,,,1496115.3000000003,1496115.1,1493461.637,1493466.2000000002,1493478.314,1496130.117,,grey
Fixation,canvas.Screen,2_48_0_0,2022-06-27T16:11:21.301Z,,,0,V,2300.6699999999255,timeout,,,1498416.3000000003,1498414.115,1496113.44,1496116.5,1496130.117,1498430.787,,grey
Stimulus,canvas.Screen,2_48_0_1,2022-06-27T16:11:21.400Z,,,0,V,100.91399999987334,timeout,,,1498516,1498514.603,1498414.115,1498416.6,1498430.787,1498531.701,,grey
Reaction,canvas.Screen,2_48_0_2,2022-06-27T16:11:21.636Z,,,0,V,218.99900000030175,response,stim_detected,mousedown,1498752.2000000002,1498750.7000000002,1498514.603,1498516.5,1498531.701,1498765.193,,grey
Trial,flow.Sequence,2_48_0,2022-06-27T16:11:21.637Z,,,0,V,2620.5830000001006,completion,,,1498752.6,1498750.7000000002,1496113.44,1496116.4,1496130.117,1498765.193,,grey
Frame,canvas.Frame,2_48,2022-06-27T16:11:21.637Z,,,0,V,2622.5830000001006,,,,1498753,1498752.7000000002,1496113.44,1496115.5,1496130.117,1498765.193,,grey
Fixation,canvas.Screen,2_49_0_0,2022-06-27T16:11:23.136Z,,,0,V,1501.8489999999292,timeout,,,1500251.9,1500250.356,1498748.515,1498754.1,1498765.193,1500267.042,,grey
Stimulus,canvas.Screen,2_49_0_1,2022-06-27T16:11:23.235Z,,,0,V,99.09400000004098,timeout,,,1500350.9,1500349.46,1500250.356,1500252.1,1500267.042,1500366.136,,grey
Reaction,canvas.Screen,2_49_0_2,2022-06-27T16:11:23.385Z,,,0,V,133.46400000015274,response,stim_detected,mousedown,1500501.1,1500499.6,1500349.46,1500351.1,1500366.136,1500516.379,,grey
Trial,flow.Sequence,2_49_0,2022-06-27T16:11:23.386Z,,,0,V,1734.407000000123,completion,,,1500501.5,1500499.6,1498748.515,1498754,1498765.193,1500516.379,,grey
Frame,canvas.Frame,2_49,2022-06-27T16:11:23.386Z,,,0,V,1736.407000000123,,,,1500501.8000000003,1500501.6,1498748.515,1498753.1,1498765.193,1500516.379,,grey
Fixation,canvas.Screen,2_50_0_0,2022-06-27T16:11:25.170Z,,,1,A,1784.9240000001155,timeout,,,1502286.1,1502284.622,1500499.702,1500502.9,1500516.379,1502301.303,,black
Stimulus,canvas.Screen,2_50_0_1,2022-06-27T16:11:25.269Z,,,1,A,99.68699999991804,timeout,,,1502385,1502384.14,1502284.622,1502286.3000000003,1502301.303,1502400.99,,black
Reaction,canvas.Screen,2_50_0_2,2022-06-27T16:11:26.771Z,,,1,A,1500.9299999999348,timeout,,,1503886.3000000003,1503885.243,1502384.14,1502385.3000000003,1502400.99,1503901.92,,black
Trial,flow.Sequence,2_50_0,2022-06-27T16:11:26.771Z,,,1,A,3368.8640000000596,completion,,,1503886.6,1503885.243,1500499.702,1500502.8000000003,1500516.379,1503901.92,,black
Frame,canvas.Frame,2_50,2022-06-27T16:11:26.771Z,,,1,A,3370.4210000003222,,,,1503886.9,1503886.8000000003,1500499.702,1500501.9,1500516.379,1503918.597,,black
Fixation,canvas.Screen,2_51_0_0,2022-06-27T16:11:29.005Z,,,0,V,2218.1319999999832,timeout,,,1506121.2000000002,1506120.052,1503901.92,1503888,1503918.597,1506136.729,,grey
Stimulus,canvas.Screen,2_51_0_1,2022-06-27T16:11:29.105Z,,,0,V,99.49099999992177,timeout,,,1506221.2000000002,1506219.548,1506120.052,1506121.5,1506136.729,1506236.22,,grey
Reaction,canvas.Screen,2_51_0_2,2022-06-27T16:11:29.311Z,,,0,V,189.38000000012107,response,stim_detected,mousedown,1506427.1,1506425.6,1506219.548,1506221.5,1506236.22,1506437.016,,grey
Trial,flow.Sequence,2_51_0,2022-06-27T16:11:29.312Z,,,0,V,2507.003000000026,completion,,,1506427.5,1506425.6,1503901.92,1503887.9,1503918.597,1506437.016,,grey
Frame,canvas.Frame,2_51,2022-06-27T16:11:29.312Z,,,0,V,2509.103000000119,,,,1506427.9,1506427.7000000002,1503901.92,1503887.1,1503918.597,1506437.016,,grey
Fixation,canvas.Screen,2_52_0_0,2022-06-27T16:11:31.675Z,,,1,AV,2368.2989999998827,timeout,,,1508790.4,1508788.637,1506420.339,1506429,1506437.016,1508805.315,,grey
Stimulus,canvas.Screen,2_52_0_1,2022-06-27T16:11:31.774Z,,,1,AV,100.04900000011548,timeout,,,1508889.4,1508888.497,1508788.637,1508790.8000000003,1508805.315,1508905.364,,grey
Reaction,canvas.Screen,2_52_0_2,2022-06-27T16:11:31.987Z,,,1,AV,196.23600000003353,response,stim_detected,mousedown,1509103.2000000002,1509101.6,1508888.497,1508889.6,1508905.364,1509105.5,,grey
Trial,flow.Sequence,2_52_0,2022-06-27T16:11:31.988Z,,,1,AV,2664.5840000000317,completion,,,1509103.6,1509101.6,1506420.339,1506428.9,1506437.016,1509105.5,,grey
Frame,canvas.Frame,2_52,2022-06-27T16:11:31.988Z,,,1,AV,2666.684000000125,,,,1509104,1509103.7000000002,1506420.339,1506428.1,1506437.016,1509105.5,,grey
Fixation,canvas.Screen,2_53_0_0,2022-06-27T16:11:34.259Z,,,0,V,2284.4439999999013,timeout,,,1511374.7000000002,1511373.269,1509088.822,1509105.1,1509105.5,1511389.944,,grey
Stimulus,canvas.Screen,2_53_0_1,2022-06-27T16:11:34.360Z,,,0,V,100.5820000001695,timeout,,,1511475.6,1511473.848,1511373.269,1511375,1511389.944,1511490.526,,grey
Reaction,canvas.Screen,2_53_0_2,2022-06-27T16:11:34.555Z,,,0,V,179.07400000002235,response,stim_detected,mousedown,1511671.1,1511669.6,1511473.848,1511475.8000000003,1511490.526,1511673.874,,grey
Trial,flow.Sequence,2_53_0,2022-06-27T16:11:34.556Z,,,0,V,2564.100000000093,completion,,,1511671.5,1511669.6,1509088.822,1509105,1509105.5,1511673.874,,grey
Frame,canvas.Frame,2_53,2022-06-27T16:11:34.556Z,,,0,V,2566.2000000001863,,,,1511671.8000000003,1511671.7000000002,1509088.822,1509104.1,1509105.5,1511673.874,,grey
Fixation,canvas.Screen,2_54_0_0,2022-06-27T16:11:36.461Z,,,0,V,1918.5089999998454,timeout,,,1513576.6,1513575.701,1511657.197,1511673.1,1511673.874,1513592.383,,grey
Stimulus,canvas.Screen,2_54_0_1,2022-06-27T16:11:36.561Z,,,0,V,99.62000000011176,timeout,,,1513676.6,1513675.325,1513575.701,1513576.9,1513592.383,1513692.003,,grey
Reaction,canvas.Screen,2_54_0_2,2022-06-27T16:11:36.749Z,,,0,V,171.59700000006706,response,stim_detected,mousedown,1513865.1,1513863.6,1513675.325,1513676.9,1513692.003,1513875.381,,grey
Trial,flow.Sequence,2_54_0,2022-06-27T16:11:36.750Z,,,0,V,2189.726000000024,completion,,,1513865.5,1513863.6,1511657.197,1511673,1511673.874,1513875.381,,grey
Frame,canvas.Frame,2_54,2022-06-27T16:11:36.750Z,,,0,V,2191.726000000024,,,,1513865.8000000003,1513865.6,1511657.197,1511671.9,1511673.874,1513875.381,,grey
Fixation,canvas.Screen,2_55_0_0,2022-06-27T16:11:38.713Z,,,1,A,1968.1620000000112,timeout,,,1515828.7000000002,1515826.864,1513858.704,1513867.1,1513875.381,1515843.543,,black
Stimulus,canvas.Screen,2_55_0_1,2022-06-27T16:11:38.812Z,,,1,A,99.875,timeout,,,1515927.7000000002,1515926.741,1515826.864,1515829.1,1515843.543,1515943.418,,black
Reaction,canvas.Screen,2_55_0_2,2022-06-27T16:11:39.010Z,,,1,A,181.1820000000298,response,stim_detected,mousedown,1516126,1516124.6,1515926.741,1515928,1515943.418,1516143.531,,black
Trial,flow.Sequence,2_55_0,2022-06-27T16:11:39.011Z,,,1,A,2249.219000000041,completion,,,1516126.4,1516124.6,1513858.704,1513867,1513875.381,1516143.531,,black
Frame,canvas.Frame,2_55,2022-06-27T16:11:39.011Z,,,1,A,2251.118999999948,,,,1516126.8000000003,1516126.5,1513858.704,1513866,1513875.381,1516143.531,,black
Fixation,canvas.Screen,2_56_0_0,2022-06-27T16:11:41.515Z,,,1,A,2502.53600000008,timeout,,,1518630.9,1518629.384,1516126.854,1516128.4,1516143.531,1518646.067,,black
Stimulus,canvas.Screen,2_56_0_1,2022-06-27T16:11:41.614Z,,,1,A,99.28300000005402,timeout,,,1518730,1518728.671,1518629.384,1518631.3000000003,1518646.067,1518745.35,,black
Reaction,canvas.Screen,2_56_0_2,2022-06-27T16:11:41.826Z,,,1,A,195.25,response,stim_detected,mousedown,1518942.1,1518940.6,1518728.671,1518730.2000000002,1518745.35,1518945.461,,black
Trial,flow.Sequence,2_56_0,2022-06-27T16:11:41.827Z,,,1,A,2797.069000000134,completion,,,1518942.4,1518940.6,1516126.854,1516128.3000000003,1516143.531,1518945.461,,black
Frame,canvas.Frame,2_56,2022-06-27T16:11:41.827Z,,,1,A,2799.069000000134,,,,1518942.8000000003,1518942.6,1516126.854,1516127.2000000002,1516143.531,1518945.461,,black
Fixation,canvas.Screen,2_57_0_0,2022-06-27T16:11:44.316Z,,,1,AV,2501.8930000001565,timeout,,,1521432.1,1521430.675,1518928.784,1518944,1518945.461,1521447.354,,grey
Stimulus,canvas.Screen,2_57_0_1,2022-06-27T16:11:44.417Z,,,1,AV,99.61299999989569,timeout,,,1521532.4,1521530.291,1521430.675,1521432.4,1521447.354,1521546.967,,grey
Reaction,canvas.Screen,2_57_0_2,2022-06-27T16:11:44.564Z,,,1,AV,131.63300000014715,response,stim_detected,mousedown,1521680.1,1521678.6,1521530.291,1521532.7000000002,1521546.967,1521697.309,,grey
Trial,flow.Sequence,2_57_0,2022-06-27T16:11:44.565Z,,,1,AV,2733.1390000001993,completion,,,1521680.5,1521678.6,1518928.784,1518943.9,1518945.461,1521697.309,,grey
Frame,canvas.Frame,2_57,2022-06-27T16:11:44.565Z,,,1,AV,2735.1390000001993,,,,1521680.8000000003,1521680.6,1518928.784,1518943,1518945.461,1521697.309,,grey
Fixation,canvas.Screen,2_58_0_0,2022-06-27T16:11:47.052Z,,,1,AV,2485.1990000000224,timeout,,,1524167.9,1524165.829,1521680.632,1521682.1,1521697.309,1524182.508,,grey
Stimulus,canvas.Screen,2_58_0_1,2022-06-27T16:11:47.151Z,,,1,AV,99.20900000003166,timeout,,,1524266.3000000003,1524265.044,1524165.829,1524168.2000000002,1524182.508,1524281.717,,grey
Reaction,canvas.Screen,2_58_0_2,2022-06-27T16:11:47.347Z,,,1,AV,179.78300000005402,response,stim_detected,mousedown,1524463.1,1524461.5,1524265.044,1524266.7000000002,1524281.717,1524465.845,,grey
Trial,flow.Sequence,2_58_0,2022-06-27T16:11:47.348Z,,,1,AV,2764.191000000108,completion,,,1524463.5,1524461.5,1521680.632,1521681.9,1521697.309,1524465.845,,grey
Frame,canvas.Frame,2_58,2022-06-27T16:11:47.348Z,,,1,AV,2766.3910000002943,,,,1524464,1524463.7000000002,1521680.632,1521681.1,1521697.309,1524465.845,,grey
Fixation,canvas.Screen,2_59_0_0,2022-06-27T16:11:49.620Z,,,0,V,2285.192000000039,timeout,,,1526735.9,1526734.357,1524449.167,1524465.2000000002,1524465.845,1526751.037,,grey
Stimulus,canvas.Screen,2_59_0_1,2022-06-27T16:11:49.720Z,,,0,V,99.57599999988452,timeout,,,1526835.4,1526833.937,1526734.357,1526736.2000000002,1526751.037,1526850.613,,grey
Reaction,canvas.Screen,2_59_0_2,2022-06-27T16:11:49.918Z,,,0,V,181.8870000001043,response,stim_detected,mousedown,1527034.1,1527032.5,1526833.937,1526835.7000000002,1526850.613,1527050.915,,grey
Trial,flow.Sequence,2_59_0,2022-06-27T16:11:49.919Z,,,0,V,2566.655000000028,completion,,,1527034.5,1527032.5,1524449.167,1524465.1,1524465.845,1527050.915,,grey
Frame,canvas.Frame,2_59,2022-06-27T16:11:49.919Z,,,0,V,2568.855000000214,,,,1527035,1527034.7000000002,1524449.167,1524464.2000000002,1524465.845,1527050.915,,grey
Fixation,canvas.Screen,2_60_0_0,2022-06-27T16:11:52.387Z,,,1,AV,2467.381000000052,timeout,,,1529502.9,1529501.624,1527034.238,1527036.3000000003,1527050.915,1529518.296,,grey
Stimulus,canvas.Screen,2_60_0_1,2022-06-27T16:11:52.489Z,,,1,AV,101.02899999986403,timeout,,,1529604.4,1529602.647,1529501.624,1529503,1529518.296,1529619.325,,grey
Reaction,canvas.Screen,2_60_0_2,2022-06-27T16:11:52.650Z,,,1,AV,145.07499999995343,response,stim_detected,mousedown,1529766,1529764.4,1529602.647,1529604.7000000002,1529619.325,1529769.362,,grey
Trial,flow.Sequence,2_60_0,2022-06-27T16:11:52.651Z,,,1,AV,2713.4849999998696,completion,,,1529766.4,1529764.4,1527034.238,1527036.2000000002,1527050.915,1529769.362,,grey
Frame,canvas.Frame,2_60,2022-06-27T16:11:52.651Z,,,1,AV,2715.5849999999627,,,,1529766.8000000003,1529766.5,1527034.238,1527035.1,1527050.915,1529769.362,,grey
Fixation,canvas.Screen,2_61_0_0,2022-06-27T16:11:54.607Z,,,0,V,1968.4120000000112,timeout,,,1531722.5,1531721.093,1529752.685,1529768,1529769.362,1531737.774,,grey
Stimulus,canvas.Screen,2_61_0_1,2022-06-27T16:11:54.707Z,,,0,V,99.68100000009872,timeout,,,1531822.7000000002,1531820.731,1531721.093,1531722.8000000003,1531737.774,1531837.455,,grey
Reaction,canvas.Screen,2_61_0_2,2022-06-27T16:11:54.919Z,,,0,V,196.0449999999255,response,stim_detected,mousedown,1532035,1532033.5,1531820.731,1531822.9,1531837.455,1532037.579,,grey
Trial,flow.Sequence,2_61_0,2022-06-27T16:11:54.920Z,,,0,V,2264.1380000000354,completion,,,1532035.4,1532033.5,1529752.685,1529768,1529769.362,1532037.579,,grey
Frame,canvas.Frame,2_61,2022-06-27T16:11:54.920Z,,,0,V,2266.1380000000354,,,,1532035.7000000002,1532035.5,1529752.685,1529767.1,1529769.362,1532037.579,,grey
Fixation,canvas.Screen,2_62_0_0,2022-06-27T16:11:57.009Z,,,1,A,2102.0120000001043,timeout,,,1534124.6,1534122.909,1532020.902,1532036.9,1532037.579,1534139.591,,black
Stimulus,canvas.Screen,2_62_0_1,2022-06-27T16:11:57.108Z,,,1,A,99.52099999994971,timeout,,,1534223.5,1534222.434,1534122.909,1534124.8000000003,1534139.591,1534239.112,,black
Reaction,canvas.Screen,2_62_0_2,2022-06-27T16:11:57.429Z,,,1,A,304.28799999994226,response,stim_detected,mousedown,1534545,1534543.4,1534222.434,1534223.8000000003,1534239.112,1534555.949,,black
Trial,flow.Sequence,2_62_0,2022-06-27T16:11:57.430Z,,,1,A,2505.8209999999963,completion,,,1534545.4,1534543.4,1532020.902,1532036.8000000003,1532037.579,1534555.949,,black
Frame,canvas.Frame,2_62,2022-06-27T16:11:57.430Z,,,1,A,2507.9210000000894,,,,1534545.7000000002,1534545.5,1532020.902,1532035.9,1532037.579,1534555.949,,black
Fixation,canvas.Screen,2_63_0_0,2022-06-27T16:11:59.493Z,,,1,A,2067.8189999999013,timeout,,,1536608.8000000003,1536607.092,1534539.272,1534547,1534555.949,1536623.768,,black
Stimulus,canvas.Screen,2_63_0_1,2022-06-27T16:11:59.593Z,,,1,A,100.2730000000447,timeout,,,1536708.9,1536707.364,1536607.092,1536609,1536623.768,1536724.041,,black
Reaction,canvas.Screen,2_63_0_2,2022-06-27T16:11:59.784Z,,,1,A,174.35899999993853,response,stim_detected,mousedown,1536899.8000000003,1536898.4,1536707.364,1536709.3000000003,1536724.041,1536924.184,,black
Trial,flow.Sequence,2_63_0,2022-06-27T16:11:59.785Z,,,1,A,2342.4509999998845,completion,,,1536900.3000000003,1536898.4,1534539.272,1534546.9,1534555.949,1536924.184,,black
Frame,canvas.Frame,2_63,2022-06-27T16:11:59.785Z,,,1,A,2344.4509999998845,,,,1536900.6,1536900.4,1534539.272,1534545.9,1534555.949,1536924.184,,black
Fixation,canvas.Screen,2_64_0_0,2022-06-27T16:12:01.696Z,,,1,A,1902.659000000218,timeout,,,1538811.6,1538810.153,1536890.83,1536901.7000000002,1536924.184,1538826.843,,black
Stimulus,canvas.Screen,2_64_0_1,2022-06-27T16:12:01.794Z,,,1,A,98.14999999990687,timeout,,,1538909.5,1538908.32,1538810.153,1538811.8000000003,1538826.843,1538924.993,,black
Reaction,canvas.Screen,2_64_0_2,2022-06-27T16:12:02.012Z,,,1,A,201.4069999998901,response,stim_detected,mousedown,1539128,1539126.4,1538908.32,1538909.7000000002,1538924.993,1539142.327,,black
Trial,flow.Sequence,2_64_0,2022-06-27T16:12:02.013Z,,,1,A,2202.216000000015,completion,,,1539128.5,1539126.4,1536890.83,1536901.6,1536924.184,1539142.327,,black
Frame,canvas.Frame,2_64,2022-06-27T16:12:02.013Z,,,1,A,2204.416000000201,,,,1539128.8000000003,1539128.6,1536890.83,1536900.8000000003,1536924.184,1539142.327,,black
Fixation,canvas.Screen,2_65_0_0,2022-06-27T16:12:04.480Z,,,1,A,2468.5379999999423,timeout,,,1541595.2000000002,1541594.186,1539125.65,1539129.8000000003,1539142.327,1541610.865,,black
Stimulus,canvas.Screen,2_65_0_1,2022-06-27T16:12:04.580Z,,,1,A,100.002000000095,timeout,,,1541696.1,1541694.186,1541594.186,1541595.6,1541610.865,1541710.867,,black
Reaction,canvas.Screen,2_65_0_2,2022-06-27T16:12:04.797Z,,,1,A,200.63299999991432,response,stim_detected,mousedown,1541913,1541911.5,1541694.186,1541696.3000000003,1541710.867,1541927.593,,black
Trial,flow.Sequence,2_65_0,2022-06-27T16:12:04.798Z,,,1,A,2769.1729999999516,completion,,,1541913.4,1541911.5,1539125.65,1539129.8000000003,1539142.327,1541927.593,,black
Frame,canvas.Frame,2_65,2022-06-27T16:12:04.798Z,,,1,A,2771.1729999999516,,,,1541913.7000000002,1541913.5,1539125.65,1539128.9,1539142.327,1541927.593,,black
Fixation,canvas.Screen,2_66_0_0,2022-06-27T16:12:06.547Z,,,1,A,1750.841999999946,timeout,,,1543663.1,1543661.76,1541910.916,1541914.9,1541927.593,1543678.435,,black
Stimulus,canvas.Screen,2_66_0_1,2022-06-27T16:12:06.647Z,,,1,A,100.42399999988265,timeout,,,1543763.1,1543762.181,1543661.76,1543663.3000000003,1543678.435,1543778.859,,black
Reaction,canvas.Screen,2_66_0_2,2022-06-27T16:12:06.845Z,,,1,A,180.54099999996834,response,stim_detected,mousedown,1543960.9,1543959.4,1543762.181,1543763.4,1543778.859,1543962.275,,black
Trial,flow.Sequence,2_66_0,2022-06-27T16:12:06.846Z,,,1,A,2031.806999999797,completion,,,1543961.3000000003,1543959.4,1541910.916,1541914.7000000002,1541927.593,1543962.275,,black
Frame,canvas.Frame,2_66,2022-06-27T16:12:06.846Z,,,1,A,2033.806999999797,,,,1543961.6,1543961.4,1541910.916,1541913.9,1541927.593,1543962.275,,black
Fixation,canvas.Screen,2_67_0_0,2022-06-27T16:12:09.150Z,,,1,AV,2318.255000000121,timeout,,,1546265.4,1546263.852,1543945.598,1543962.9,1543962.275,1546280.53,,grey
Stimulus,canvas.Screen,2_67_0_1,2022-06-27T16:12:09.250Z,,,1,AV,100.13899999996647,timeout,,,1546365.3000000003,1546363.991,1546263.852,1546265.7000000002,1546280.53,1546380.669,,grey
Reaction,canvas.Screen,2_67_0_2,2022-06-27T16:12:09.457Z,,,1,AV,190.73099999991246,response,stim_detected,mousedown,1546572.9,1546571.4,1546363.991,1546365.7000000002,1546380.669,1546580.703,,grey
Trial,flow.Sequence,2_67_0,2022-06-27T16:12:09.458Z,,,1,AV,2609.125,completion,,,1546573.3000000003,1546571.4,1543945.598,1543962.8000000003,1543962.275,1546580.703,,grey
Frame,canvas.Frame,2_67,2022-06-27T16:12:09.458Z,,,1,AV,2611.125,,,,1546573.6,1546573.4,1543945.598,1543961.8000000003,1543962.275,1546580.703,,grey
Fixation,canvas.Screen,2_68_0_0,2022-06-27T16:12:11.836Z,,,1,A,2385.997999999905,timeout,,,1548951.6,1548950.016,1546564.026,1546574.8000000003,1546580.703,1548966.701,,black
Stimulus,canvas.Screen,2_68_0_1,2022-06-27T16:12:11.934Z,,,1,A,99.00800000014715,timeout,,,1549050.1,1549049.031,1548950.016,1548951.8000000003,1548966.701,1549065.709,,black
Reaction,canvas.Screen,2_68_0_2,2022-06-27T16:12:12.188Z,,,1,A,236.6909999998752,response,stim_detected,mousedown,1549303.9,1549302.4,1549049.031,1549050.2000000002,1549065.709,1549315.828,,black
Trial,flow.Sequence,2_68_0,2022-06-27T16:12:12.189Z,,,1,A,2721.6969999999274,completion,,,1549304.3000000003,1549302.4,1546564.026,1546574.6,1546580.703,1549315.828,,black
Frame,canvas.Frame,2_68,2022-06-27T16:12:12.189Z,,,1,A,2723.8970000001136,,,,1549304.8000000003,1549304.6,1546564.026,1546573.8000000003,1546580.703,1549315.828,,black
Fixation,canvas.Screen,2_69_0_0,2022-06-27T16:12:14.548Z,,,1,AV,2353.9550000000745,timeout,,,1551663.3000000003,1551653.089,1549299.151,1549306.4,1549315.828,1551669.783,,grey
Stimulus,canvas.Screen,2_69_0_1,2022-06-27T16:12:14.636Z,,,1,AV,97.58999999985099,timeout,,,1551751.7000000002,1551750.697,1551653.089,1551663.6,1551669.783,1551767.373,,grey
Reaction,canvas.Screen,2_69_0_2,2022-06-27T16:12:14.819Z,,,1,AV,166.02700000000186,response,stim_detected,mousedown,1551935,1551933.4,1551750.697,1551751.9,1551767.373,1551950.992,,grey
Trial,flow.Sequence,2_69_0,2022-06-27T16:12:14.820Z,,,1,AV,2617.5719999999274,completion,,,1551935.5,1551933.4,1549299.151,1549306.2000000002,1549315.828,1551950.992,,grey
Frame,canvas.Frame,2_69,2022-06-27T16:12:14.820Z,,,1,AV,2619.7720000001136,,,,1551935.8000000003,1551935.6,1549299.151,1549305,1549315.828,1551950.992,,grey
Fixation,canvas.Screen,2_70_0_0,2022-06-27T16:12:17.072Z,,,1,A,2251.9899999999907,timeout,,,1554187.7000000002,1554186.301,1551934.315,1551937,1551950.992,1554202.982,,black
Stimulus,canvas.Screen,2_70_0_1,2022-06-27T16:12:17.172Z,,,1,A,99.60899999993853,timeout,,,1554287.7000000002,1554285.68,1554186.301,1554187.9,1554202.982,1554302.591,,black
Reaction,canvas.Screen,2_70_0_2,2022-06-27T16:12:17.328Z,,,1,A,139.7090000002645,response,stim_detected,mousedown,1554443.8000000003,1554442.3000000003,1554285.68,1554287.9,1554302.591,1554452.684,,black
Trial,flow.Sequence,2_70_0,2022-06-27T16:12:17.329Z,,,1,A,2491.3080000001937,completion,,,1554444.4,1554442.3000000003,1551934.315,1551936.8000000003,1551950.992,1554452.684,,black
Frame,canvas.Frame,2_70,2022-06-27T16:12:17.329Z,,,1,A,2493.5079999999143,,,,1554444.7000000002,1554444.5,1551934.315,1551936,1551950.992,1554452.684,,black
Fixation,canvas.Screen,2_71_0_0,2022-06-27T16:12:19.006Z,,,1,AV,1684.568000000203,timeout,,,1556121.8000000003,1556120.573,1554436.007,1554445.9,1554452.684,1556137.252,,grey
Stimulus,canvas.Screen,2_71_0_1,2022-06-27T16:12:19.105Z,,,1,AV,99.25699999998324,timeout,,,1556221,1556219.838,1556120.573,1556122,1556137.252,1556236.509,,grey
Reaction,canvas.Screen,2_71_0_2,2022-06-27T16:12:19.278Z,,,1,AV,155.89099999982864,response,stim_detected,mousedown,1556393.8000000003,1556392.4,1556219.838,1556221.2000000002,1556236.509,1556403.999,,grey
Trial,flow.Sequence,2_71_0,2022-06-27T16:12:19.279Z,,,1,AV,1939.716000000015,completion,,,1556394.2000000002,1556392.4,1554436.007,1554445.8000000003,1554452.684,1556403.999,,grey
Frame,canvas.Frame,2_71,2022-06-27T16:12:19.279Z,,,1,AV,1941.6160000003874,,,,1556394.5,1556394.3000000003,1554436.007,1554444.9,1554452.684,1556403.999,,grey
Fixation,canvas.Screen,2_72_0_0,2022-06-27T16:12:20.907Z,,,0,V,1634.6709999998566,timeout,,,1558022.9,1558021.99,1556387.321,1556395.6,1556403.999,1558038.67,,grey
Stimulus,canvas.Screen,2_72_0_1,2022-06-27T16:12:21.007Z,,,0,V,99.76000000000931,timeout,,,1558122.8000000003,1558121.753,1558021.99,1558023.2000000002,1558038.67,1558138.43,,grey
Reaction,canvas.Screen,2_72_0_2,2022-06-27T16:12:21.227Z,,,0,V,202.96999999997206,response,stim_detected,mousedown,1558342.8000000003,1558341.4,1558121.753,1558123.1,1558138.43,1558355.31,,grey
Trial,flow.Sequence,2_72_0,2022-06-27T16:12:21.228Z,,,0,V,1937.400999999838,completion,,,1558343.2000000002,1558341.4,1556387.321,1556395.4,1556403.999,1558355.31,,grey
Frame,canvas.Frame,2_72,2022-06-27T16:12:21.228Z,,,0,V,1939.3010000002105,,,,1558343.5,1558343.3000000003,1556387.321,1556394.7000000002,1556403.999,1558355.31,,grey
Fixation,canvas.Screen,2_73_0_0,2022-06-27T16:12:23.508Z,,,1,A,2284.1459999999497,timeout,,,1560624,1560622.783,1558338.633,1558344.6,1558355.31,1560639.456,,black
Stimulus,canvas.Screen,2_73_0_1,2022-06-27T16:12:23.609Z,,,1,A,100.73500000010245,timeout,,,1560725,1560723.514,1560622.783,1560624.3000000003,1560639.456,1560740.191,,black
Reaction,canvas.Screen,2_73_0_2,2022-06-27T16:12:23.797Z,,,1,A,171.20899999979883,response,stim_detected,mousedown,1560912.9,1560911.4,1560723.514,1560725.3000000003,1560740.191,1560923.666,,black
Trial,flow.Sequence,2_73_0,2022-06-27T16:12:23.798Z,,,1,A,2556.089999999851,completion,,,1560913.3000000003,1560911.4,1558338.633,1558344.5,1558355.31,1560923.666,,black
Frame,canvas.Frame,2_73,2022-06-27T16:12:23.798Z,,,1,A,2557.9900000002235,,,,1560913.6,1560913.3000000003,1558338.633,1558343.7000000002,1558355.31,1560923.666,,black
Fixation,canvas.Screen,2_74_0_0,2022-06-27T16:12:25.944Z,,,0,V,2151.7700000000186,timeout,,,1563060.2000000002,1563058.756,1560906.989,1560914.7000000002,1560923.666,1563075.436,,grey
Stimulus,canvas.Screen,2_74_0_1,2022-06-27T16:12:26.045Z,,,0,V,99.90599999995902,timeout,,,1563160.3000000003,1563158.664,1563058.756,1563060.4,1563075.436,1563175.342,,grey
Reaction,canvas.Screen,2_74_0_2,2022-06-27T16:12:26.318Z,,,0,V,256.3580000002403,response,stim_detected,mousedown,1563433.4,1563431.7000000002,1563158.664,1563160.7000000002,1563175.342,1563442.059,,grey
Trial,flow.Sequence,2_74_0,2022-06-27T16:12:26.318Z,,,0,V,2508.034000000218,completion,,,1563433.9,1563431.7000000002,1560906.989,1560914.7000000002,1560923.666,1563442.059,,grey
Frame,canvas.Frame,2_74,2022-06-27T16:12:26.319Z,,,0,V,2510.3340000000317,,,,1563434.3000000003,1563434,1560906.989,1560913.7000000002,1560923.666,1563442.059,,grey
Fixation,canvas.Screen,2_75_0_0,2022-06-27T16:12:27.928Z,,,1,AV,1617.8850000000093,timeout,,,1565044.2000000002,1565043.265,1563425.382,1563435.4,1563442.059,1565059.944,,grey
Stimulus,canvas.Screen,2_75_0_1,2022-06-27T16:12:28.028Z,,,1,AV,99.87200000020675,timeout,,,1565144.2000000002,1565143.139,1565043.265,1565044.4,1565059.944,1565159.816,,grey
Reaction,canvas.Screen,2_75_0_2,2022-06-27T16:12:28.205Z,,,1,AV,159.38400000007823,response,stim_detected,mousedown,1565320.8000000003,1565319.2000000002,1565143.139,1565144.5,1565159.816,1565326.684,,grey
Trial,flow.Sequence,2_75_0,2022-06-27T16:12:28.205Z,,,1,AV,1877.1410000002943,completion,,,1565321.1,1565319.2000000002,1563425.382,1563435.2000000002,1563442.059,1565326.684,,grey
Frame,canvas.Frame,2_75,2022-06-27T16:12:28.206Z,,,1,AV,1879.1410000002943,,,,1565321.5,1565321.2000000002,1563425.382,1563434.5,1563442.059,1565326.684,,grey
Fixation,canvas.Screen,2_76_0_0,2022-06-27T16:12:30.545Z,,,1,AV,2349.2960000000894,timeout,,,1567660.9,1567659.317,1565310.006,1565322.6,1565326.684,1567675.98,,grey
Stimulus,canvas.Screen,2_76_0_1,2022-06-27T16:12:30.648Z,,,1,AV,102.4320000000298,timeout,,,1567763.4,1567761.73,1567659.317,1567661.2000000002,1567675.98,1567778.412,,grey
Reaction,canvas.Screen,2_76_0_2,2022-06-27T16:12:30.817Z,,,1,AV,152.88800000026822,response,stim_detected,mousedown,1567932.8000000003,1567931.3000000003,1567761.73,1567764,1567778.412,1567945.089,,grey
Trial,flow.Sequence,2_76_0,2022-06-27T16:12:30.818Z,,,1,AV,2604.6160000003874,completion,,,1567933.2000000002,1567931.3000000003,1565310.006,1565322.5,1565326.684,1567945.089,,grey
Frame,canvas.Frame,2_76,2022-06-27T16:12:30.818Z,,,1,AV,2606.6160000003874,,,,1567933.5,1567933.3000000003,1565310.006,1565321.6,1565326.684,1567945.089,,grey
Fixation,canvas.Screen,2_77_0_0,2022-06-27T16:12:33.033Z,,,1,A,2218.3360000001267,timeout,,,1570148.5,1570146.746,1567928.412,1567934.7000000002,1567945.089,1570163.425,,black
Stimulus,canvas.Screen,2_77_0_1,2022-06-27T16:12:33.132Z,,,1,A,99.73600000003353,timeout,,,1570248.2000000002,1570246.485,1570146.746,1570148.7000000002,1570163.425,1570263.161,,black
Reaction,canvas.Screen,2_77_0_2,2022-06-27T16:12:33.346Z,,,1,A,197.1390000001993,response,stim_detected,mousedown,1570461.8000000003,1570460.3000000003,1570246.485,1570248.4,1570263.161,1570463.449,,black
Trial,flow.Sequence,2_77_0,2022-06-27T16:12:33.346Z,,,1,A,2515.2110000003595,completion,,,1570462.2000000002,1570460.3000000003,1567928.412,1567934.5,1567945.089,1570463.449,,black
Frame,canvas.Frame,2_77,2022-06-27T16:12:33.347Z,,,1,A,2517.2110000003595,,,,1570462.5,1570462.3000000003,1567928.412,1567933.6,1567945.089,1570463.449,,black
Fixation,canvas.Screen,2_78_0_0,2022-06-27T16:12:35.167Z,,,0,V,1834.8549999999814,timeout,,,1572282.6,1572281.624,1570446.772,1570463.6,1570463.449,1572298.304,,grey
Stimulus,canvas.Screen,2_78_0_1,2022-06-27T16:12:35.267Z,,,0,V,99.60599999991246,timeout,,,1572382.8000000003,1572381.234,1572281.624,1572282.9,1572298.304,1572397.91,,grey
Reaction,canvas.Screen,2_78_0_2,2022-06-27T16:12:35.541Z,,,0,V,256.3900000003632,response,stim_detected,mousedown,1572656.3000000003,1572654.3000000003,1572381.234,1572383.1,1572397.91,1572664.912,,grey
Trial,flow.Sequence,2_78_0,2022-06-27T16:12:35.541Z,,,0,V,2190.851000000257,completion,,,1572656.9,1572654.3000000003,1570446.772,1570463.5,1570463.449,1572664.912,,grey
Frame,canvas.Frame,2_78,2022-06-27T16:12:35.542Z,,,0,V,2193.651000000071,,,,1572657.3000000003,1572657.1,1570446.772,1570462.7000000002,1570463.449,1572664.912,,grey
Fixation,canvas.Screen,2_79_0_0,2022-06-27T16:12:37.251Z,,,1,AV,1717.494999999879,timeout,,,1574367,1574365.732,1572648.235,1572658.5,1572664.912,1574382.407,,grey
Stimulus,canvas.Screen,2_79_0_1,2022-06-27T16:12:37.352Z,,,1,AV,100.31300000008196,timeout,,,1574467.6,1574466.043,1574365.732,1574367.2000000002,1574382.407,1574482.72,,grey
Reaction,canvas.Screen,2_79_0_2,2022-06-27T16:12:37.540Z,,,1,AV,171.58000000030734,response,stim_detected,mousedown,1574655.8000000003,1574654.3000000003,1574466.043,1574467.8000000003,1574482.72,1574666.293,,grey
Trial,flow.Sequence,2_79_0,2022-06-27T16:12:37.541Z,,,1,AV,1989.3880000002682,completion,,,1574656.2000000002,1574654.3000000003,1572648.235,1572658.4,1572664.912,1574666.293,,grey
Frame,canvas.Frame,2_79,2022-06-27T16:12:37.541Z,,,1,AV,1991.3880000002682,,,,1574656.5,1574656.3000000003,1572648.235,1572657.5,1572664.912,1574666.293,,grey
Fixation,canvas.Screen,2_80_0_0,2022-06-27T16:12:39.853Z,,,1,A,2318.243999999948,timeout,,,1576969,1576967.859,1574649.615,1574657.7000000002,1574666.293,1576984.537,,black
Stimulus,canvas.Screen,2_80_0_1,2022-06-27T16:12:39.953Z,,,1,A,99.47299999999814,timeout,,,1577069,1577067.336,1576967.859,1576969.2000000002,1576984.537,1577084.01,,black
Reaction,canvas.Screen,2_80_0_2,2022-06-27T16:12:41.454Z,,,1,A,1501.4560000000056,timeout,,,1578569.9,1578568.789,1577067.336,1577069.2000000002,1577084.01,1578585.466,,black
Trial,flow.Sequence,2_80_0,2022-06-27T16:12:41.455Z,,,1,A,3902.496000000043,completion,,,1578570.2000000002,1578568.789,1574649.615,1574657.6,1574666.293,1578585.466,,black
Frame,canvas.Frame,2_80,2022-06-27T16:12:41.455Z,,,1,A,3904.007000000216,,,,1578570.5,1578570.3000000003,1574649.615,1574656.7000000002,1574666.293,1578602.143,,black
Fixation,canvas.Screen,2_81_0_0,2022-06-27T16:12:43.456Z,,,1,A,1985.4790000000503,timeout,,,1580572,1580570.939,1578585.466,1578571.6,1578602.143,1580587.622,,black
Stimulus,canvas.Screen,2_81_0_1,2022-06-27T16:12:43.556Z,,,1,A,99.51699999999255,timeout,,,1580672,1580670.448,1580570.939,1580572.2000000002,1580587.622,1580687.139,,black
Reaction,canvas.Screen,2_81_0_2,2022-06-27T16:12:43.742Z,,,1,A,167.96100000012666,response,stim_detected,mousedown,1580857.3000000003,1580855.1,1580670.448,1580672.3000000003,1580687.139,1580870.468,,black
Trial,flow.Sequence,2_81_0,2022-06-27T16:12:43.742Z,,,1,A,2252.9570000001695,completion,,,1580857.8000000003,1580855.1,1578585.466,1578571.5,1578602.143,1580870.468,,black
Frame,canvas.Frame,2_81,2022-06-27T16:12:43.742Z,,,1,A,2255.6570000003558,,,,1580858.1,1580857.8000000003,1578585.466,1578570.7000000002,1578602.143,1580870.468,,black
Fixation,canvas.Screen,2_82_0_0,2022-06-27T16:12:45.891Z,,,0,V,2151.46399999992,timeout,,,1583006.2000000002,1583005.254,1580853.79,1580859.3000000003,1580870.468,1583021.932,,grey
Stimulus,canvas.Screen,2_82_0_1,2022-06-27T16:12:45.991Z,,,0,V,100.05099999997765,timeout,,,1583106.4,1583105.077,1583005.254,1583006.6,1583021.932,1583121.983,,grey
Reaction,canvas.Screen,2_82_0_2,2022-06-27T16:12:46.241Z,,,0,V,233.2170000001788,response,stim_detected,mousedown,1583357,1583355.2000000002,1583105.077,1583106.7000000002,1583121.983,1583372.153,,grey
Trial,flow.Sequence,2_82_0,2022-06-27T16:12:46.242Z,,,0,V,2484.7320000000764,completion,,,1583357.5,1583355.2000000002,1580853.79,1580859.1,1580870.468,1583372.153,,grey
Frame,canvas.Frame,2_82,2022-06-27T16:12:46.242Z,,,0,V,2487.2320000000764,,,,1583357.9,1583357.7000000002,1580853.79,1580858.3000000003,1580870.468,1583372.153,,grey
Fixation,canvas.Screen,2_83_0_0,2022-06-27T16:12:48.643Z,,,1,A,2401.7970000000205,timeout,,,1585758.3000000003,1585757.271,1583355.475,1583359,1583372.153,1585773.95,,black
Stimulus,canvas.Screen,2_83_0_1,2022-06-27T16:12:48.743Z,,,1,A,99.77399999997579,timeout,,,1585858.3000000003,1585857.047,1585757.271,1585758.5,1585773.95,1585873.724,,black
Reaction,canvas.Screen,2_83_0_2,2022-06-27T16:12:48.973Z,,,1,A,213.57600000035018,response,stim_detected,mousedown,1586088.8000000003,1586087.3000000003,1585857.047,1585858.7000000002,1585873.724,1586090.584,,black
Trial,flow.Sequence,2_83_0,2022-06-27T16:12:48.974Z,,,1,A,2715.1470000003465,completion,,,1586089.2000000002,1586087.3000000003,1583355.475,1583358.9,1583372.153,1586090.584,,black
Frame,canvas.Frame,2_83,2022-06-27T16:12:48.974Z,,,1,A,2717.1470000003465,,,,1586089.5,1586089.3000000003,1583355.475,1583358,1583372.153,1586090.584,,black
Fixation,canvas.Screen,2_84_0_0,2022-06-27T16:12:50.979Z,,,0,V,2019.5709999999963,timeout,,,1588094.5,1588093.465,1586073.907,1586090.7000000002,1586090.584,1588110.155,,grey
Stimulus,canvas.Screen,2_84_0_1,2022-06-27T16:12:51.078Z,,,0,V,98.54300000006333,timeout,,,1588193.5,1588192.021,1588093.465,1588094.6,1588110.155,1588208.698,,grey
Reaction,canvas.Screen,2_84_0_2,2022-06-27T16:12:51.338Z,,,0,V,243.60200000018813,response,stim_detected,mousedown,1588453.7000000002,1588452.3000000003,1588192.021,1588193.7000000002,1588208.698,1588458.864,,grey
Trial,flow.Sequence,2_84_0,2022-06-27T16:12:51.338Z,,,0,V,2361.7160000002477,completion,,,1588454.1,1588452.3000000003,1586073.907,1586090.6,1586090.584,1588458.864,,grey
Frame,canvas.Frame,2_84,2022-06-27T16:12:51.339Z,,,0,V,2363.6160000001546,,,,1588454.5,1588454.2000000002,1586073.907,1586089.8000000003,1586090.584,1588458.864,,grey
Fixation,canvas.Screen,2_85_0_0,2022-06-27T16:12:53.364Z,,,1,AV,2035.6439999998547,timeout,,,1590479.5,1590477.823,1588442.187,1588455.5,1588458.864,1590494.508,,grey
Stimulus,canvas.Screen,2_85_0_1,2022-06-27T16:12:53.463Z,,,1,AV,99.13100000005215,timeout,,,1590578.6,1590576.962,1590477.823,1590479.7000000002,1590494.508,1590593.639,,grey
Reaction,canvas.Screen,2_85_0_2,2022-06-27T16:12:53.657Z,,,1,AV,177.46100000012666,response,stim_detected,mousedown,1590772.6,1590771.1,1590576.962,1590578.8000000003,1590593.639,1590777.126,,grey
Trial,flow.Sequence,2_85_0,2022-06-27T16:12:53.658Z,,,1,AV,2312.2360000000335,completion,,,1590773.2000000002,1590771.1,1588442.187,1588455.5,1588458.864,1590777.126,,grey
Frame,canvas.Frame,2_85,2022-06-27T16:12:53.658Z,,,1,AV,2314.43600000022,,,,1590773.6,1590773.3000000003,1588442.187,1588454.6,1588458.864,1590777.126,,grey
Fixation,canvas.Screen,2_86_0_0,2022-06-27T16:12:56.064Z,,,0,V,2418.3230000000913,timeout,,,1593179.9,1593178.771,1590760.449,1590774.8000000003,1590777.126,1593195.449,,grey
Stimulus,canvas.Screen,2_86_0_1,2022-06-27T16:12:56.164Z,,,0,V,99.72200000006706,timeout,,,1593279.9,1593278.496,1593178.771,1593180.3000000003,1593195.449,1593295.171,,grey
Reaction,canvas.Screen,2_86_0_2,2022-06-27T16:12:56.430Z,,,0,V,248.92900000000373,response,stim_detected,mousedown,1593545.7000000002,1593544.1,1593278.496,1593280.2000000002,1593295.171,1593562.312,,grey
Trial,flow.Sequence,2_86_0,2022-06-27T16:12:56.431Z,,,0,V,2766.974000000162,completion,,,1593546.8000000003,1593544.1,1590760.449,1590774.6,1590777.126,1593562.312,,grey
Frame,canvas.Frame,2_86,2022-06-27T16:12:56.432Z,,,0,V,2769.974000000162,,,,1593547.3000000003,1593547.1,1590760.449,1590773.8000000003,1590777.126,1593562.312,,grey
Fixation,canvas.Screen,2_87_0_0,2022-06-27T16:12:57.999Z,,,1,A,1567.41100000008,timeout,,,1595114.8000000003,1595113.048,1593545.635,1593548.5,1593562.312,1595129.723,,black
Stimulus,canvas.Screen,2_87_0_1,2022-06-27T16:12:58.099Z,,,1,A,100.44900000002235,timeout,,,1595214.8000000003,1595213.494,1595113.048,1595115,1595129.723,1595230.172,,black
Reaction,canvas.Screen,2_87_0_2,2022-06-27T16:12:58.576Z,,,1,A,460.0280000001658,response,stim_detected,mousedown,1595691.8000000003,1595690.2000000002,1595213.494,1595215.1,1595230.172,1595697.063,,black
Trial,flow.Sequence,2_87_0,2022-06-27T16:12:58.577Z,,,1,A,2127.888000000268,completion,,,1595692.2000000002,1595690.2000000002,1593545.635,1593548.4,1593562.312,1595697.063,,black
Frame,canvas.Frame,2_87,2022-06-27T16:12:58.577Z,,,1,A,2129.9880000003614,,,,1595692.5,1595692.3000000003,1593545.635,1593547.5,1593562.312,1595697.063,,black
Fixation,canvas.Screen,2_88_0_0,2022-06-27T16:13:00.852Z,,,1,A,2284.7669999999925,timeout,,,1597968,1597965.153,1595680.386,1595693.6,1595697.063,1597981.83,,black
Stimulus,canvas.Screen,2_88_0_1,2022-06-27T16:13:00.951Z,,,1,A,100.1929999999702,timeout,,,1598067,1598065.345,1597965.153,1597968.2000000002,1597981.83,1598082.023,,black
Reaction,canvas.Screen,2_88_0_2,2022-06-27T16:13:01.152Z,,,1,A,184.07700000004843,response,stim_detected,mousedown,1598267.8000000003,1598266.1,1598065.345,1598067.5,1598082.023,1598282.123,,black
Trial,flow.Sequence,2_88_0,2022-06-27T16:13:01.153Z,,,1,A,2569.037000000011,completion,,,1598268.2000000002,1598266.1,1595680.386,1595693.6,1595697.063,1598282.123,,black
Frame,canvas.Frame,2_88,2022-06-27T16:13:01.153Z,,,1,A,2571.2370000001974,,,,1598268.5,1598268.3000000003,1595680.386,1595692.8000000003,1595697.063,1598282.123,,black
Fixation,canvas.Screen,2_89_0_0,2022-06-27T16:13:02.720Z,,,0,V,1569.2980000001844,timeout,,,1599836,1599834.727,1598265.446,1598269.6,1598282.123,1599851.421,,grey
Stimulus,canvas.Screen,2_89_0_1,2022-06-27T16:13:02.818Z,,,0,V,98.53799999994226,timeout,,,1599934.1,1599933.027,1599834.727,1599836.2000000002,1599851.421,1599949.959,,grey
Reaction,canvas.Screen,2_89_0_2,2022-06-27T16:13:03.080Z,,,0,V,244.14100000006147,response,stim_detected,mousedown,1600195.7000000002,1600194.1,1599933.027,1599934.4,1599949.959,1600200.129,,grey
Trial,flow.Sequence,2_89_0,2022-06-27T16:13:03.080Z,,,0,V,1911.9770000001881,completion,,,1600196.1,1600194.1,1598265.446,1598269.5,1598282.123,1600200.129,,grey
Frame,canvas.Frame,2_89,2022-06-27T16:13:03.081Z,,,0,V,1914.0770000002813,,,,1600196.5,1600196.2000000002,1598265.446,1598268.7000000002,1598282.123,1600200.129,,grey
Fixation,canvas.Screen,2_90_0_0,2022-06-27T16:13:05.321Z,,,1,AV,2251.0810000000056,timeout,,,1602436.3000000003,1602434.535,1600183.451,1600197.6,1600200.129,1602451.21,,grey
Stimulus,canvas.Screen,2_90_0_1,2022-06-27T16:13:05.421Z,,,1,AV,100.51399999996647,timeout,,,1602536.3000000003,1602535.046,1602434.535,1602436.6,1602451.21,1602551.724,,grey
Reaction,canvas.Screen,2_90_0_2,2022-06-27T16:13:05.594Z,,,1,AV,155.47600000025705,response,stim_detected,mousedown,1602709.6,1602707.2000000002,1602535.046,1602536.6,1602551.724,1602718.465,,grey
Trial,flow.Sequence,2_90_0,2022-06-27T16:13:05.594Z,,,1,AV,2507.071000000229,completion,,,1602710,1602707.2000000002,1600183.451,1600197.6,1600200.129,1602718.465,,grey
Frame,canvas.Frame,2_90,2022-06-27T16:13:05.595Z,,,1,AV,2509.971000000136,,,,1602710.2000000002,1602710.1,1600183.451,1600196.6,1600200.129,1602718.465,,grey
Loop,flow.Loop,2,2022-06-27T16:13:05.595Z,,,,,218551.78800000018,completion,,,1602710.6,1602710.1,1384141.605,1384144.1,1384158.312,1602718.465,,
end,html.Page,3,2022-06-27T16:13:09.727Z,,,,,4123.235000000102,form submission,,,1606842.3000000003,1606841.7000000002,1602701.788,1602710.9,1602718.465,1606838.794,,
root,flow.Sequence,,2022-06-27T16:13:09.728Z,,,,,1605433.931,completion,,,1606843.5,1606841.7000000002,1391.089,1390.9000000001397,1407.769,1606838.794,,