sender,sender_type,sender_id,timestamp,meta,,aud,condition,duration,ended_on,response,response_action,time_commit,time_end,time_render,time_run,time_show,time_switch,url,vis
Instructions,html.Page,0,2022-07-04T15:33:25.420Z,"{""labjs_version"":""20.2.4"",""labjs_build"":{""flavor"":""production"",""commit"":""f5b4a49f956347addd546a832a3327688c2c0fef""},""location"":""file:///C:/Users/Proband%207/Desktop/RTE/index.html"",""userAgent"":""Mozilla/5.0 (Windows NT 6.1; Win64; x64) AppleWebKit/537.36 (KHTML, like Gecko) Chrome/103.0.0.0 Safari/537.36"",""platform"":""Win32"",""language"":""de-DE"",""locale"":""de"",""timeZone"":""Europe/Berlin"",""timezoneOffset"":-120,""screen_width"":1366,""screen_height"":768,""scroll_width"":1366,""scroll_height"":609,""window_innerWidth"":1366,""window_innerHeight"":657,""devicePixelRatio"":1}",,,,113259.98300000005,form submission,,,115045.80000000005,115044.30000000005,1767.638,1772.9000000001397,1784.317,115058.863,{},
Change Background,canvas.Screen,1,2022-07-04T15:33:28.423Z,,,,,3004.9570000000094,timeout,,,118049.20000000019,118047.128,115025.509,115046.5,115058.863,118063.82,,
Fixation,canvas.Screen,2_0_0_0,2022-07-04T15:33:30.450Z,,,0,V,2026.9479999999894,timeout,,,120075.80000000005,120074.115,118047.128,118050.80000000005,118063.82,120090.768,,grey
Stimulus,canvas.Screen,2_0_0_1,2022-07-04T15:33:30.556Z,,,0,V,106.07600000000093,timeout,,,120181.70000000019,120180.167,120074.115,120076.1000000001,120090.768,120196.844,,grey
Reaction,canvas.Screen,2_0_0_2,2022-07-04T15:33:30.835Z,,,0,V,262.1560000000027,response,stim_detected,mousedown,120461.1000000001,120459,120180.167,120182,120196.844,120463.65,,grey
Trial,flow.Sequence,2_0_0,2022-07-04T15:33:30.836Z,,,0,V,2395.179999999993,completion,,,120461.80000000005,120459,118047.128,118050.6000000001,118063.82,120463.65,,grey
Frame,canvas.Frame,2_0,2022-07-04T15:33:30.837Z,,,0,V,2398.5800000001327,,,,120462.90000000014,120462.40000000014,118047.128,118049.6000000001,118063.82,120463.65,,grey
Fixation,canvas.Screen,2_1_0_0,2022-07-04T15:33:32.390Z,,,1,AV,1567.7620000000024,timeout,,,122015.80000000005,122014.734,120446.973,120464.20000000019,120463.65,122031.412,,grey
Stimulus,canvas.Screen,2_1_0_1,2022-07-04T15:33:32.490Z,,,1,AV,100.09300000000803,timeout,,,122116.1000000001,122114.827,122014.734,122016.1000000001,122031.412,122131.505,,grey
Reaction,canvas.Screen,2_1_0_2,2022-07-04T15:33:32.679Z,,,1,AV,171.39500000013504,response,stim_detected,mousedown,122304.80000000005,122302.90000000014,122114.827,122116.6000000001,122131.505,122314.9,,grey
Trial,flow.Sequence,2_1_0,2022-07-04T15:33:32.680Z,,,1,AV,1839.2500000001455,completion,,,122305.90000000014,122302.90000000014,120446.973,120464,120463.65,122314.9,,grey
Frame,canvas.Frame,2_1,2022-07-04T15:33:32.680Z,,,1,AV,1842.550000000192,,,,122306.5,122306.20000000019,120446.973,120463.1000000001,120463.65,122314.9,,grey
Fixation,canvas.Screen,2_2_0_0,2022-07-04T15:33:35.126Z,,,1,AV,2452.5109999999986,timeout,,,124752,124750.728,122298.223,122307.90000000014,122314.9,124767.411,,grey
Stimulus,canvas.Screen,2_2_0_1,2022-07-04T15:33:35.225Z,,,1,AV,98.95800000001327,timeout,,,124851.1000000001,124849.693,124750.728,124752.40000000014,124767.411,124866.369,,grey
Reaction,canvas.Screen,2_2_0_2,2022-07-04T15:33:35.365Z,,,1,AV,122.53100000013364,response,stim_detected,mousedown,124990.90000000014,124988.90000000014,124849.693,124851.40000000014,124866.369,125000.047,,grey
Trial,flow.Sequence,2_2_0,2022-07-04T15:33:35.365Z,,,1,AV,2674.0000000001455,completion,,,124991.5,124988.90000000014,122298.223,122307.70000000019,122314.9,125000.047,,grey
Frame,canvas.Frame,2_2,2022-07-04T15:33:35.366Z,,,1,AV,2676.700000000099,,,,124992,124991.6000000001,122298.223,122306.90000000014,122314.9,125000.047,,grey
Fixation,canvas.Screen,2_3_0_0,2022-07-04T15:33:37.827Z,,,1,AV,2468.0420000000013,timeout,,,127453.1000000001,127451.413,124983.37,124993.20000000019,125000.047,127468.089,,grey
Stimulus,canvas.Screen,2_3_0_1,2022-07-04T15:33:37.927Z,,,1,AV,100.70599999999104,timeout,,,127553.1000000001,127552.115,127451.413,127453.40000000014,127468.089,127568.795,,grey
Reaction,canvas.Screen,2_3_0_2,2022-07-04T15:33:38.068Z,,,1,AV,123.10500000014144,response,stim_detected,mousedown,127694,127691.90000000014,127552.115,127553.40000000014,127568.795,127701.885,,grey
Trial,flow.Sequence,2_3_0,2022-07-04T15:33:38.068Z,,,1,AV,2691.8530000001338,completion,,,127694.5,127691.90000000014,124983.37,124993.1000000001,125000.047,127701.885,,grey
Frame,canvas.Frame,2_3,2022-07-04T15:33:38.069Z,,,1,AV,2694.6530000001803,,,,127694.90000000014,127694.70000000019,124983.37,124992.20000000019,125000.047,127701.885,,grey
Fixation,canvas.Screen,2_4_0_0,2022-07-04T15:33:40.512Z,,,1,A,2452.0020000000077,timeout,,,130138.20000000019,130137.207,127685.208,127696.20000000019,127701.885,130153.887,,black
Stimulus,canvas.Screen,2_4_0_1,2022-07-04T15:33:40.611Z,,,1,A,98.80199999999604,timeout,,,130237.30000000005,130236.017,130137.207,130138.40000000014,130153.887,130252.689,,black
Reaction,canvas.Screen,2_4_0_2,2022-07-04T15:33:40.754Z,,,1,A,125.11100000004808,response,stim_detected,mousedown,130379.80000000005,130377.80000000005,130236.017,130237.6000000001,130252.689,130403.65,,black
Trial,flow.Sequence,2_4_0,2022-07-04T15:33:40.754Z,,,1,A,2675.915000000052,completion,,,130380.40000000014,130377.80000000005,127685.208,127696.1000000001,127701.885,130403.65,,black
Frame,canvas.Frame,2_4,2022-07-04T15:33:40.755Z,,,1,A,2678.7150000000984,,,,130380.80000000005,130380.6000000001,127685.208,127695.20000000019,127701.885,130403.65,,black
Fixation,canvas.Screen,2_5_0_0,2022-07-04T15:33:43.064Z,,,1,AV,2301.429999999993,timeout,,,132690.1000000001,132688.403,130370.296,130382.30000000005,130403.65,132705.08,,grey
Stimulus,canvas.Screen,2_5_0_1,2022-07-04T15:33:43.164Z,,,1,AV,100.18600000001607,timeout,,,132790,132788.587,132688.403,132690.2000000002,132705.08,132805.266,,grey
Reaction,canvas.Screen,2_5_0_2,2022-07-04T15:33:43.271Z,,,1,AV,90.23399999999674,response,stim_detected,mousedown,132897,132895.5,132788.587,132790.2000000002,132805.266,132905.284,,grey
Trial,flow.Sequence,2_5_0,2022-07-04T15:33:43.271Z,,,1,AV,2491.850000000006,completion,,,132897.5,132895.5,130370.296,130382.1000000001,130403.65,132905.284,,grey
Frame,canvas.Frame,2_5,2022-07-04T15:33:43.272Z,,,1,AV,2493.950000000099,,,,132897.90000000014,132897.6000000001,130370.296,130381.1000000001,130403.65,132905.284,,grey
Fixation,canvas.Screen,2_6_0_0,2022-07-04T15:33:45.699Z,,,1,A,2435.002999999997,timeout,,,135325.5,135323.609,132888.607,132899.40000000014,132905.284,135340.287,,black
Stimulus,canvas.Screen,2_6_0_1,2022-07-04T15:33:45.799Z,,,1,A,100.12299999999232,timeout,,,135425.40000000014,135423.732,135323.609,135326,135340.287,135440.41,,black
Reaction,canvas.Screen,2_6_0_2,2022-07-04T15:33:45.946Z,,,1,A,129.5899999999965,response,stim_detected,mousedown,135571.80000000005,135570,135423.732,135425.7000000002,135440.41,135573.786,,black
Trial,flow.Sequence,2_6_0,2022-07-04T15:33:45.946Z,,,1,A,2664.715999999986,completion,,,135572.2000000002,135570,132888.607,132898.7000000002,132905.284,135573.786,,black
Frame,canvas.Frame,2_6,2022-07-04T15:33:45.947Z,,,1,A,2667.1160000001255,,,,135572.7000000002,135572.40000000014,132888.607,132898,132905.284,135573.786,,black
Fixation,canvas.Screen,2_7_0_0,2022-07-04T15:33:47.834Z,,,1,A,1901.5599999999977,timeout,,,137460.5,137458.666,135557.109,135573.90000000014,135573.786,137475.346,,black
Stimulus,canvas.Screen,2_7_0_1,2022-07-04T15:33:47.933Z,,,1,A,99.7050000000163,timeout,,,137559.5,137558.374,137458.666,137460.80000000005,137475.346,137575.051,,black
Reaction,canvas.Screen,2_7_0_2,2022-07-04T15:33:48.126Z,,,1,A,175.84900000013295,response,stim_detected,mousedown,137752.5,137750.90000000014,137558.374,137559.80000000005,137575.051,137758.593,,black
Trial,flow.Sequence,2_7_0,2022-07-04T15:33:48.127Z,,,1,A,2177.114000000147,completion,,,137752.90000000014,137750.90000000014,135557.109,135573.7000000002,135573.786,137758.593,,black
Frame,canvas.Frame,2_7,2022-07-04T15:33:48.127Z,,,1,A,2179.214000000007,,,,137753.2000000002,137753,135557.109,135573,135573.786,137758.593,,black
Fixation,canvas.Screen,2_8_0_0,2022-07-04T15:33:50.535Z,,,1,A,2417.850000000006,timeout,,,140161,140159.768,137741.916,137754.40000000014,137758.593,140176.443,,black
Stimulus,canvas.Screen,2_8_0_1,2022-07-04T15:33:50.636Z,,,1,A,100.53899999998976,timeout,,,140262,140260.304,140159.768,140161.30000000005,140176.443,140276.982,,black
Reaction,canvas.Screen,2_8_0_2,2022-07-04T15:33:51.115Z,,,1,A,462.8180000000575,response,stim_detected,mousedown,140741.30000000005,140739.80000000005,140260.304,140262.40000000014,140276.982,140743.911,,black
Trial,flow.Sequence,2_8_0,2022-07-04T15:33:51.116Z,,,1,A,2981.207000000053,completion,,,140741.7000000002,140739.80000000005,137741.916,137754.30000000005,137758.593,140743.911,,black
Frame,canvas.Frame,2_8,2022-07-04T15:33:51.116Z,,,1,A,2983.307000000146,,,,140742.1000000001,140741.90000000014,137741.916,137753.5,137758.593,140743.911,,black
Fixation,canvas.Screen,2_9_0_0,2022-07-04T15:33:52.937Z,,,0,V,1834.6230000000214,timeout,,,142562.80000000005,142561.856,140727.234,140743.1000000001,140743.911,142578.534,,grey
Stimulus,canvas.Screen,2_9_0_1,2022-07-04T15:33:53.037Z,,,0,V,99.86899999997695,timeout,,,142662.7000000002,142661.727,142561.856,142563.1000000001,142578.534,142678.403,,grey
Reaction,canvas.Screen,2_9_0_2,2022-07-04T15:33:53.175Z,,,0,V,120.29700000019511,response,stim_detected,mousedown,142800.6000000001,142798.7000000002,142661.727,142663.1000000001,142678.403,142811.978,,grey
Trial,flow.Sequence,2_9_0,2022-07-04T15:33:53.175Z,,,0,V,2054.7890000001935,completion,,,142801,142798.7000000002,140727.234,140743.1000000001,140743.911,142811.978,,grey
Frame,canvas.Frame,2_9,2022-07-04T15:33:53.175Z,,,0,V,2057.1890000001004,,,,142801.30000000005,142801.1000000001,140727.234,140742.2000000002,140743.911,142811.978,,grey
Fixation,canvas.Screen,2_10_0_0,2022-07-04T15:33:55.105Z,,,1,A,1934.021000000008,timeout,,,144730.7000000002,144729.326,142795.301,142802.6000000001,142811.978,144745.999,,black
Stimulus,canvas.Screen,2_10_0_1,2022-07-04T15:33:55.206Z,,,1,A,100.7049999999872,timeout,,,144831.80000000005,144830.026,144729.326,144730.90000000014,144745.999,144846.704,,black
Reaction,canvas.Screen,2_10_0_2,2022-07-04T15:33:55.351Z,,,1,A,128.99600000018836,response,stim_detected,mousedown,144977.5,144975.7000000002,144830.026,144832.1000000001,144846.704,144996.736,,black
Trial,flow.Sequence,2_10_0,2022-07-04T15:33:55.352Z,,,1,A,2163.7220000001835,completion,,,144978,144975.7000000002,142795.301,142802.40000000014,142811.978,144996.736,,black
Frame,canvas.Frame,2_10,2022-07-04T15:33:55.352Z,,,1,A,2166.3220000000438,,,,144978.5,144978.30000000005,142795.301,142801.6000000001,142811.978,144996.736,,black
Fixation,canvas.Screen,2_11_0_0,2022-07-04T15:33:57.574Z,,,1,AV,2218.8759999999893,timeout,,,147200,147198.929,144963.382,144980.2000000002,144996.736,147215.612,,grey
Stimulus,canvas.Screen,2_11_0_1,2022-07-04T15:33:57.673Z,,,1,AV,98.67399999999907,timeout,,,147299,147297.613,147198.929,147200.40000000014,147215.612,147314.286,,grey
Reaction,canvas.Screen,2_11_0_2,2022-07-04T15:33:57.821Z,,,1,AV,131.31400000010035,response,stim_detected,mousedown,147447.40000000014,147445.6000000001,147297.613,147299.30000000005,147314.286,147465.062,,grey
Trial,flow.Sequence,2_11_0,2022-07-04T15:33:57.822Z,,,1,AV,2448.8640000000887,completion,,,147447.90000000014,147445.6000000001,144963.382,144980.1000000001,144996.736,147465.062,,grey
Frame,canvas.Frame,2_11,2022-07-04T15:33:57.822Z,,,1,AV,2451.3640000000887,,,,147448.40000000014,147448.1000000001,144963.382,144978.80000000005,144996.736,147465.062,,grey
Fixation,canvas.Screen,2_12_0_0,2022-07-04T15:34:00.110Z,,,1,A,2284.752999999997,timeout,,,149735.80000000005,149733.138,147448.385,147450.40000000014,147465.062,149749.815,,black
Stimulus,canvas.Screen,2_12_0_1,2022-07-04T15:34:00.210Z,,,1,A,100.37599999998929,timeout,,,149835.7000000002,149833.478,149733.138,149736.1000000001,149749.815,149850.191,,black
Reaction,canvas.Screen,2_12_0_2,2022-07-04T15:34:00.356Z,,,1,A,130.4090000001015,response,stim_detected,mousedown,149982.30000000005,149980.6000000001,149833.478,149836,149850.191,150000.024,,black
Trial,flow.Sequence,2_12_0,2022-07-04T15:34:00.357Z,,,1,A,2515.538000000088,completion,,,149982.80000000005,149980.6000000001,147448.385,147450.2000000002,147465.062,150000.024,,black
Frame,canvas.Frame,2_12,2022-07-04T15:34:00.357Z,,,1,A,2518.038000000088,,,,149983.30000000005,149983.1000000001,147448.385,147448.7000000002,147465.062,150000.024,,black
Fixation,canvas.Screen,2_13_0_0,2022-07-04T15:34:02.760Z,,,1,A,2401.7299999999814,timeout,,,152386.2000000002,152385.076,149983.353,149984.6000000001,150000.024,152401.754,,black
Stimulus,canvas.Screen,2_13_0_1,2022-07-04T15:34:02.860Z,,,1,A,99.4440000000177,timeout,,,152486.5,152484.524,152385.076,152386.5,152401.754,152501.198,,black
Reaction,canvas.Screen,2_13_0_2,2022-07-04T15:34:03.051Z,,,1,A,174.40200000008917,response,stim_detected,mousedown,152677.2000000002,152675.6000000001,152484.524,152486.7000000002,152501.198,152685.24,,black
Trial,flow.Sequence,2_13_0,2022-07-04T15:34:03.052Z,,,1,A,2675.5760000000882,completion,,,152677.7000000002,152675.6000000001,149983.353,149984.5,150000.024,152685.24,,black
Frame,canvas.Frame,2_13,2022-07-04T15:34:03.052Z,,,1,A,2677.975999999995,,,,152678.2000000002,152678,149983.353,149983.5,150000.024,152685.24,,black
Fixation,canvas.Screen,2_14_0_0,2022-07-04T15:34:04.844Z,,,0,V,1800.7580000000016,timeout,,,154470.5,154469.324,152668.563,152679.5,152685.24,154485.998,,grey
Stimulus,canvas.Screen,2_14_0_1,2022-07-04T15:34:04.945Z,,,0,V,100.51600000000326,timeout,,,154571.2000000002,154569.836,154469.324,154470.7000000002,154485.998,154586.514,,grey
Reaction,canvas.Screen,2_14_0_2,2022-07-04T15:34:05.125Z,,,0,V,163.1860000001907,response,stim_detected,mousedown,154751.30000000005,154749.7000000002,154569.836,154571.5,154586.514,154753.287,,grey
Trial,flow.Sequence,2_14_0,2022-07-04T15:34:05.126Z,,,0,V,2064.4600000001956,completion,,,154751.7000000002,154749.7000000002,152668.563,152679.40000000014,152685.24,154753.287,,grey
Frame,canvas.Frame,2_14,2022-07-04T15:34:05.126Z,,,0,V,2066.660000000149,,,,154752,154751.90000000014,152668.563,152678.5,152685.24,154753.287,,grey
Fixation,canvas.Screen,2_15_0_0,2022-07-04T15:34:07.029Z,,,1,AV,1917.868999999977,timeout,,,156655.30000000005,156654.479,154736.61,154753.1000000001,154753.287,156671.156,,grey
Stimulus,canvas.Screen,2_15_0_1,2022-07-04T15:34:07.129Z,,,1,AV,100.1359999999986,timeout,,,156755.40000000014,156754.155,156654.479,156655.5,156671.156,156771.292,,grey
Reaction,canvas.Screen,2_15_0_2,2022-07-04T15:34:07.289Z,,,1,AV,142.3080000001064,response,stim_detected,mousedown,156915.30000000005,156913.6000000001,156754.155,156755.7000000002,156771.292,156921.385,,grey
Trial,flow.Sequence,2_15_0,2022-07-04T15:34:07.290Z,,,1,AV,2160.313000000082,completion,,,156915.90000000014,156913.6000000001,154736.61,154753,154753.287,156921.385,,grey
Frame,canvas.Frame,2_15,2022-07-04T15:34:07.290Z,,,1,AV,2162.913000000175,,,,156916.40000000014,156916.2000000002,154736.61,154752.30000000005,154753.287,156921.385,,grey
Fixation,canvas.Screen,2_16_0_0,2022-07-04T15:34:09.031Z,,,0,V,1751.68299999999,timeout,,,158657.40000000014,158656.386,156904.708,156917.6000000001,156921.385,158673.068,,grey
Stimulus,canvas.Screen,2_16_0_1,2022-07-04T15:34:09.131Z,,,0,V,99.3979999999865,timeout,,,158757.5,158755.79,158656.386,158657.6000000001,158673.068,158772.466,,grey
Reaction,canvas.Screen,2_16_0_2,2022-07-04T15:34:09.276Z,,,0,V,128.0340000000142,response,stim_detected,mousedown,158902.2000000002,158900.5,158755.79,158757.80000000005,158772.466,158922.739,,grey
Trial,flow.Sequence,2_16_0,2022-07-04T15:34:09.277Z,,,0,V,1979.1149999999907,completion,,,158902.6000000001,158900.5,156904.708,156917.40000000014,156921.385,158922.739,,grey
Frame,canvas.Frame,2_16,2022-07-04T15:34:09.277Z,,,0,V,1981.4150000000373,,,,158903.1000000001,158902.80000000005,156904.708,156916.6000000001,156921.385,158922.739,,grey
Fixation,canvas.Screen,2_17_0_0,2022-07-04T15:34:10.815Z,,,1,AV,1533.7699999999895,timeout,,,160441.6000000001,160439.837,158889.385,158904.30000000005,158922.739,160456.509,,grey
Stimulus,canvas.Screen,2_17_0_1,2022-07-04T15:34:10.915Z,,,1,AV,100.68600000001607,timeout,,,160541.5,160540.517,160439.837,160441.90000000014,160456.509,160557.195,,grey
Reaction,canvas.Screen,2_17_0_2,2022-07-04T15:34:11.039Z,,,1,AV,105.30499999999302,response,stim_detected,mousedown,160664.6000000001,160662.5,160540.517,160541.80000000005,160557.195,160673.883,,grey
Trial,flow.Sequence,2_17_0,2022-07-04T15:34:11.039Z,,,1,AV,1739.7609999999986,completion,,,160665.1000000001,160662.5,158889.385,158904.2000000002,158922.739,160673.883,,grey
Frame,canvas.Frame,2_17,2022-07-04T15:34:11.039Z,,,1,AV,1742.4610000001849,,,,160665.40000000014,160665.2000000002,158889.385,158903.40000000014,158922.739,160673.883,,grey
Fixation,canvas.Screen,2_18_0_0,2022-07-04T15:34:12.566Z,,,1,A,1534.296000000002,timeout,,,162192.6000000001,162191.502,160657.206,160667,160673.883,162208.179,,black
Stimulus,canvas.Screen,2_18_0_1,2022-07-04T15:34:12.667Z,,,1,A,99.95699999999488,timeout,,,162292.7000000002,162291.46,162191.502,162192.80000000005,162208.179,162308.136,,black
Reaction,canvas.Screen,2_18_0_2,2022-07-04T15:34:12.825Z,,,1,A,141.3640000000014,response,stim_detected,mousedown,162451.2000000002,162449.5,162291.46,162293,162308.136,162458.443,,black
Trial,flow.Sequence,2_18_0,2022-07-04T15:34:12.826Z,,,1,A,1775.6169999999984,completion,,,162451.80000000005,162449.5,160657.206,160666.90000000014,160673.883,162458.443,,black
Frame,canvas.Frame,2_18,2022-07-04T15:34:12.826Z,,,1,A,1778.017000000138,,,,162452.2000000002,162451.90000000014,160657.206,160665.7000000002,160673.883,162458.443,,black
Fixation,canvas.Screen,2_19_0_0,2022-07-04T15:34:14.384Z,,,0,V,1567.1119999999937,timeout,,,164010.30000000005,164008.883,162441.766,162453.30000000005,162458.443,164025.555,,grey
Stimulus,canvas.Screen,2_19_0_1,2022-07-04T15:34:14.486Z,,,0,V,101.10899999999674,timeout,,,164111.7000000002,164109.982,164008.883,164010.30000000005,164025.555,164126.664,,grey
Reaction,canvas.Screen,2_19_0_2,2022-07-04T15:34:14.665Z,,,0,V,161.83600000001024,response,stim_detected,mousedown,164290.6000000001,164288.5,164109.982,164112,164126.664,164292.968,,grey
Trial,flow.Sequence,2_19_0,2022-07-04T15:34:14.665Z,,,0,V,1830.0570000000007,completion,,,164291.2000000002,164288.5,162441.766,162453.2000000002,162458.443,164292.968,,grey
Frame,canvas.Frame,2_19,2022-07-04T15:34:14.666Z,,,0,V,1832.9570000001404,,,,164291.7000000002,164291.40000000014,162441.766,162452.40000000014,162458.443,164292.968,,grey
Fixation,canvas.Screen,2_20_0_0,2022-07-04T15:34:16.487Z,,,1,A,1835.5100000000093,timeout,,,166112.80000000005,166111.792,164276.291,164292.90000000014,164292.968,166128.478,,black
Stimulus,canvas.Screen,2_20_0_1,2022-07-04T15:34:16.586Z,,,1,A,98.75699999998324,timeout,,,166211.80000000005,166210.561,166111.792,166113.2000000002,166128.478,166227.235,,black
Reaction,canvas.Screen,2_20_0_2,2022-07-04T15:34:16.767Z,,,1,A,164.26500000001397,response,stim_detected,mousedown,166393,166391.5,166210.561,166212.1000000001,166227.235,166411.056,,black
Trial,flow.Sequence,2_20_0,2022-07-04T15:34:16.767Z,,,1,A,2098.5320000000065,completion,,,166393.5,166391.5,164276.291,164292.80000000005,164292.968,166411.056,,black
Frame,canvas.Frame,2_20,2022-07-04T15:34:16.768Z,,,1,A,2100.732000000193,,,,166394,166393.7000000002,164276.291,164291.90000000014,164292.968,166411.056,,black
Fixation,canvas.Screen,2_21_0_0,2022-07-04T15:34:18.587Z,,,1,A,1817.6779999999853,timeout,,,168212.90000000014,168212.058,166394.379,166395.1000000001,166411.056,168228.734,,black
Stimulus,canvas.Screen,2_21_0_1,2022-07-04T15:34:18.688Z,,,1,A,100.3859999999986,timeout,,,168313.90000000014,168312.44,168212.058,168213.1000000001,168228.734,168329.12,,black
Reaction,canvas.Screen,2_21_0_2,2022-07-04T15:34:18.833Z,,,1,A,128.38000000000466,response,stim_detected,mousedown,168459.1000000001,168457.5,168312.44,168314.2000000002,168329.12,168479.103,,black
Trial,flow.Sequence,2_21_0,2022-07-04T15:34:18.833Z,,,1,A,2046.4439999999886,completion,,,168459.6000000001,168457.5,166394.379,166395,166411.056,168479.103,,black
Frame,canvas.Frame,2_21,2022-07-04T15:34:18.834Z,,,1,A,2048.744000000035,,,,168460.1000000001,168459.80000000005,166394.379,166394.2000000002,166411.056,168479.103,,black
Fixation,canvas.Screen,2_22_0_0,2022-07-04T15:34:20.556Z,,,0,V,1718.0909999999858,timeout,,,170182,170180.514,168445.749,168461.40000000014,168479.103,170197.194,,grey
Stimulus,canvas.Screen,2_22_0_1,2022-07-04T15:34:20.656Z,,,0,V,99.88000000000466,timeout,,,170282,170280.396,170180.514,170182.40000000014,170197.194,170297.074,,grey
Reaction,canvas.Screen,2_22_0_2,2022-07-04T15:34:20.810Z,,,0,V,137.42600000000675,response,stim_detected,mousedown,170436.40000000014,170434.5,170280.396,170282.30000000005,170297.074,170447.107,,grey
Trial,flow.Sequence,2_22_0,2022-07-04T15:34:20.811Z,,,0,V,1955.3969999999972,completion,,,170436.90000000014,170434.5,168445.749,168461.30000000005,168479.103,170447.107,,grey
Frame,canvas.Frame,2_22,2022-07-04T15:34:20.811Z,,,0,V,1958.0970000001835,,,,170437.40000000014,170437.2000000002,168445.749,168460.40000000014,168479.103,170447.107,,grey
Fixation,canvas.Screen,2_23_0_0,2022-07-04T15:34:23.291Z,,,1,A,2485.366000000009,timeout,,,172917.1000000001,172915.793,170430.43,170438.6000000001,170447.107,172932.473,,black
Stimulus,canvas.Screen,2_23_0_1,2022-07-04T15:34:23.390Z,,,1,A,99.46199999999953,timeout,,,173016.2000000002,173015.259,172915.793,172917.30000000005,172932.473,173031.935,,black
Reaction,canvas.Screen,2_23_0_2,2022-07-04T15:34:23.547Z,,,1,A,139.56500000000233,response,stim_detected,mousedown,173173.1000000001,173171.5,173015.259,173016.40000000014,173031.935,173182.263,,black
Trial,flow.Sequence,2_23_0,2022-07-04T15:34:23.547Z,,,1,A,2724.393000000011,completion,,,173173.6000000001,173171.5,170430.43,170438.5,170447.107,173182.263,,black
Frame,canvas.Frame,2_23,2022-07-04T15:34:23.548Z,,,1,A,2726.593000000197,,,,173174,173173.7000000002,170430.43,170437.7000000002,170447.107,173182.263,,black
Fixation,canvas.Screen,2_24_0_0,2022-07-04T15:34:25.191Z,,,0,V,1650.6870000000054,timeout,,,174817.1000000001,174816.276,173165.586,173175.1000000001,173182.263,174832.95,,grey
Stimulus,canvas.Screen,2_24_0_1,2022-07-04T15:34:25.292Z,,,0,V,100.58199999999488,timeout,,,174918.1000000001,174916.851,174816.276,174817.40000000014,174832.95,174933.532,,grey
Reaction,canvas.Screen,2_24_0_2,2022-07-04T15:34:25.469Z,,,0,V,159.76800000004005,response,stim_detected,mousedown,175094.90000000014,175093.30000000005,174916.851,174918.40000000014,174933.532,175100.173,,grey
Trial,flow.Sequence,2_24_0,2022-07-04T15:34:25.469Z,,,0,V,1911.0370000000403,completion,,,175095.30000000005,175093.30000000005,173165.586,173175,173182.263,175100.173,,grey
Frame,canvas.Frame,2_24,2022-07-04T15:34:25.470Z,,,0,V,1913.2369999999937,,,,175095.80000000005,175095.5,173165.586,173174.2000000002,173182.263,175100.173,,grey
Fixation,canvas.Screen,2_25_0_0,2022-07-04T15:34:27.227Z,,,1,AV,1768.61599999998,timeout,,,176853.30000000005,176852.105,175083.496,175097,175100.173,176868.789,,grey
Stimulus,canvas.Screen,2_25_0_1,2022-07-04T15:34:27.326Z,,,1,AV,99.31100000001607,timeout,,,176952.2000000002,176951.423,176852.105,176853.5,176868.789,176968.1,,grey
Reaction,canvas.Screen,2_25_0_2,2022-07-04T15:34:27.461Z,,,1,AV,117.39999999999418,response,stim_detected,mousedown,177087,177085.5,176951.423,176952.5,176968.1,177101.583,,grey
Trial,flow.Sequence,2_25_0,2022-07-04T15:34:27.461Z,,,1,AV,1985.3269999999902,completion,,,177087.40000000014,177085.5,175083.496,175096.90000000014,175100.173,177101.583,,grey
Frame,canvas.Frame,2_25,2022-07-04T15:34:27.462Z,,,1,AV,1987.3269999999902,,,,177087.7000000002,177087.5,175083.496,175096.1000000001,175100.173,177101.583,,grey
Fixation,canvas.Screen,2_26_0_0,2022-07-04T15:34:29.644Z,,,1,AV,2184.1149999999907,timeout,,,179270.30000000005,179269.025,177084.906,177088.80000000005,177101.583,179285.698,,grey
Stimulus,canvas.Screen,2_26_0_1,2022-07-04T15:34:29.744Z,,,1,AV,100.19000000000233,timeout,,,179370.30000000005,179369.214,179269.025,179270.5,179285.698,179385.888,,grey
Reaction,canvas.Screen,2_26_0_2,2022-07-04T15:34:29.863Z,,,1,AV,101.51200000013341,response,stim_detected,mousedown,179489,179487.40000000014,179369.214,179370.6000000001,179385.888,179503.533,,grey
Trial,flow.Sequence,2_26_0,2022-07-04T15:34:29.863Z,,,1,AV,2385.8170000001264,completion,,,179489.40000000014,179487.40000000014,177084.906,177088.7000000002,177101.583,179503.533,,grey
Frame,canvas.Frame,2_26,2022-07-04T15:34:29.864Z,,,1,AV,2387.9169999999867,,,,179489.7000000002,179489.5,177084.906,177087.90000000014,177101.583,179503.533,,grey
Fixation,canvas.Screen,2_27_0_0,2022-07-04T15:34:31.945Z,,,0,V,2083.597999999998,timeout,,,181571.30000000005,181570.459,179486.817,179490.7000000002,179503.533,181587.131,,grey
Stimulus,canvas.Screen,2_27_0_1,2022-07-04T15:34:32.046Z,,,0,V,100.83699999999953,timeout,,,181672.1000000001,181671.289,181570.459,181571.40000000014,181587.131,181687.968,,grey
Reaction,canvas.Screen,2_27_0_2,2022-07-04T15:34:32.221Z,,,0,V,158.23200000019278,response,stim_detected,mousedown,181847.30000000005,181846.2000000002,181671.289,181672.2000000002,181687.968,181854.696,,grey
Trial,flow.Sequence,2_27_0,2022-07-04T15:34:32.221Z,,,0,V,2342.6670000001905,completion,,,181847.5,181846.2000000002,179486.817,179490.6000000001,179503.533,181854.696,,grey
Frame,canvas.Frame,2_27,2022-07-04T15:34:32.222Z,,,0,V,2344.0670000000973,,,,181847.7000000002,181847.6000000001,179486.817,179489.80000000005,179503.533,181854.696,,grey
Fixation,canvas.Screen,2_28_0_0,2022-07-04T15:34:33.730Z,,,1,A,1517.505999999994,timeout,,,183356.6000000001,183355.526,181838.019,181848.40000000014,181854.696,183372.202,,black
Stimulus,canvas.Screen,2_28_0_1,2022-07-04T15:34:33.830Z,,,1,A,100.21400000000722,timeout,,,183456.30000000005,183455.739,183355.526,183356.90000000014,183372.202,183472.416,,black
Reaction,canvas.Screen,2_28_0_2,2022-07-04T15:34:34.199Z,,,1,A,351.6840000000957,response,stim_detected,mousedown,183824.90000000014,183824.1000000001,183455.739,183456.40000000014,183472.416,183839.346,,black
Trial,flow.Sequence,2_28_0,2022-07-04T15:34:34.199Z,,,1,A,1969.4040000000969,completion,,,183825.1000000001,183824.1000000001,181838.019,181848.30000000005,181854.696,183839.346,,black
Frame,canvas.Frame,2_28,2022-07-04T15:34:34.199Z,,,1,A,1970.50400000019,,,,183825.30000000005,183825.2000000002,181838.019,181847.80000000005,181854.696,183839.346,,black
Fixation,canvas.Screen,2_29_0_0,2022-07-04T15:34:36.232Z,,,1,AV,2034.75,timeout,,,185858.30000000005,185857.418,183822.669,183825.80000000005,183839.346,185874.096,,grey
Stimulus,canvas.Screen,2_29_0_1,2022-07-04T15:34:36.333Z,,,1,AV,99.92900000000373,timeout,,,185958.7000000002,185957.348,185857.418,185858.30000000005,185874.096,185974.025,,grey
Reaction,canvas.Screen,2_29_0_2,2022-07-04T15:34:36.448Z,,,1,AV,98.97500000000582,response,stim_detected,mousedown,186073.90000000014,186073,185957.348,185958.7000000002,185974.025,186090.854,,grey
Trial,flow.Sequence,2_29_0,2022-07-04T15:34:36.448Z,,,1,AV,2233.6540000000095,completion,,,186074,186073,183822.669,183825.7000000002,183839.346,186090.854,,grey
Frame,canvas.Frame,2_29,2022-07-04T15:34:36.448Z,,,1,AV,2234.7540000001027,,,,186074.2000000002,186074.1000000001,183822.669,183825.40000000014,183839.346,186090.854,,grey
Fixation,canvas.Screen,2_30_0_0,2022-07-04T15:34:38.801Z,,,1,A,2351.3060000000114,timeout,,,188426.7000000002,188425.484,186074.177,186074.7000000002,186090.854,188442.16,,black
Stimulus,canvas.Screen,2_30_0_1,2022-07-04T15:34:38.901Z,,,1,A,100.38300000000163,timeout,,,188526.80000000005,188525.865,188425.484,188426.80000000005,188442.16,188542.543,,black
Reaction,canvas.Screen,2_30_0_2,2022-07-04T15:34:39.020Z,,,1,A,102.45699999999488,response,stim_detected,mousedown,188645.90000000014,188645,188525.865,188526.90000000014,188542.543,188659.236,,black
Trial,flow.Sequence,2_30_0,2022-07-04T15:34:39.020Z,,,1,A,2554.146000000008,completion,,,188646,188645,186074.177,186074.6000000001,186090.854,188659.236,,black
Frame,canvas.Frame,2_30,2022-07-04T15:34:39.020Z,,,1,A,2555.246000000101,,,,188646.2000000002,188646.1000000001,186074.177,186074.30000000005,186090.854,188659.236,,black
Fixation,canvas.Screen,2_31_0_0,2022-07-04T15:34:41.302Z,,,0,V,2284.828999999998,timeout,,,190928.5,190927.313,188642.559,188646.6000000001,188659.236,190944.065,,grey
Stimulus,canvas.Screen,2_31_0_1,2022-07-04T15:34:41.403Z,,,0,V,100.06200000000536,timeout,,,191028.90000000014,191027.45,190927.313,190928.6000000001,190944.065,191044.127,,grey
Reaction,canvas.Screen,2_31_0_2,2022-07-04T15:34:41.537Z,,,0,V,117.87299999999232,response,stim_detected,mousedown,191162.90000000014,191162,191027.45,191028.90000000014,191044.127,191177.577,,grey
Trial,flow.Sequence,2_31_0,2022-07-04T15:34:41.537Z,,,0,V,2502.7639999999956,completion,,,191163.2000000002,191162,188642.559,188646.6000000001,188659.236,191177.577,,grey
Frame,canvas.Frame,2_31,2022-07-04T15:34:41.537Z,,,0,V,2503.964000000182,,,,191163.30000000005,191163.2000000002,188642.559,188646.2000000002,188659.236,191177.577,,grey
Fixation,canvas.Screen,2_32_0_0,2022-07-04T15:34:43.470Z,,,1,A,1934.6670000000158,timeout,,,193096.5,193095.566,191160.9,191163.80000000005,191177.577,193112.244,,black
Stimulus,canvas.Screen,2_32_0_1,2022-07-04T15:34:43.570Z,,,1,A,100.05199999999604,timeout,,,193196.6000000001,193195.619,193095.566,193096.7000000002,193112.244,193212.296,,black
Reaction,canvas.Screen,2_32_0_2,2022-07-04T15:34:43.712Z,,,1,A,124.7039999999979,response,stim_detected,mousedown,193337.90000000014,193337,193195.619,193196.7000000002,193212.296,193345.705,,black
Trial,flow.Sequence,2_32_0,2022-07-04T15:34:43.712Z,,,1,A,2159.42300000001,completion,,,193338.1000000001,193337,191160.9,191163.80000000005,191177.577,193345.705,,black
Frame,canvas.Frame,2_32,2022-07-04T15:34:43.712Z,,,1,A,2160.523000000103,,,,193338.30000000005,193338.1000000001,191160.9,191163.30000000005,191177.577,193345.705,,black
Fixation,canvas.Screen,2_33_0_0,2022-07-04T15:34:45.805Z,,,1,AV,2101.164000000019,timeout,,,195430.6000000001,195430.193,193329.028,193339,193345.705,195446.869,,grey
Stimulus,canvas.Screen,2_33_0_1,2022-07-04T15:34:45.906Z,,,1,AV,100.26199999998789,timeout,,,195531.6000000001,195530.454,195430.193,195430.80000000005,195446.869,195547.131,,grey
Reaction,canvas.Screen,2_33_0_2,2022-07-04T15:34:46.010Z,,,1,AV,87.76900000014575,response,stim_detected,mousedown,195635.80000000005,195634.90000000014,195530.454,195531.7000000002,195547.131,195647.235,,grey
Trial,flow.Sequence,2_33_0,2022-07-04T15:34:46.010Z,,,1,AV,2289.1950000001525,completion,,,195636,195634.90000000014,193329.028,193339,193345.705,195647.235,,grey
Frame,canvas.Frame,2_33,2022-07-04T15:34:46.010Z,,,1,AV,2290.295000000013,,,,195636.1000000001,195636,193329.028,193338.30000000005,193345.705,195647.235,,grey
Fixation,canvas.Screen,2_34_0_0,2022-07-04T15:34:47.757Z,,,1,A,1751.0950000000012,timeout,,,197382.7000000002,197381.653,195630.558,195636.7000000002,195647.235,197398.33,,black
Stimulus,canvas.Screen,2_34_0_1,2022-07-04T15:34:47.857Z,,,1,A,100.11200000002282,timeout,,,197482.80000000005,197481.765,197381.653,197382.80000000005,197398.33,197498.442,,black
Reaction,canvas.Screen,2_34_0_2,2022-07-04T15:34:48.021Z,,,1,A,147.55799999999,response,stim_detected,mousedown,197646.80000000005,197646,197481.765,197482.90000000014,197498.442,197648.571,,black
Trial,flow.Sequence,2_34_0,2022-07-04T15:34:48.021Z,,,1,A,1998.765000000014,completion,,,197647,197646,195630.558,195636.6000000001,195647.235,197648.571,,black
Frame,canvas.Frame,2_34,2022-07-04T15:34:48.021Z,,,1,A,1999.765000000014,,,,197647.2000000002,197647,195630.558,195636.2000000002,195647.235,197648.571,,black
Fixation,canvas.Screen,2_35_0_0,2022-07-04T15:34:50.392Z,,,0,V,2384.972000000009,timeout,,,200018.30000000005,200016.865,197631.894,197647.7000000002,197648.571,200033.543,,grey
Stimulus,canvas.Screen,2_35_0_1,2022-07-04T15:34:50.492Z,,,0,V,99.92299999998068,timeout,,,200118.30000000005,200116.789,200016.865,200018.40000000014,200033.543,200133.466,,grey
Reaction,canvas.Screen,2_35_0_2,2022-07-04T15:34:50.611Z,,,0,V,102.4340000001539,response,stim_detected,mousedown,200236.80000000005,200235.90000000014,200116.789,200118.5,200133.466,200250.321,,grey
Trial,flow.Sequence,2_35_0,2022-07-04T15:34:50.611Z,,,0,V,2587.3290000001434,completion,,,200236.90000000014,200235.90000000014,197631.894,197647.6000000001,197648.571,200250.321,,grey
Frame,canvas.Frame,2_35,2022-07-04T15:34:50.611Z,,,0,V,2588.4290000000037,,,,200237,200237,197631.894,197647.30000000005,197648.571,200250.321,,grey
Fixation,canvas.Screen,2_36_0_0,2022-07-04T15:34:53.093Z,,,0,V,2484.872000000003,timeout,,,202719.30000000005,202718.516,200233.644,200237.6000000001,200250.321,202735.193,,grey
Stimulus,canvas.Screen,2_36_0_1,2022-07-04T15:34:53.193Z,,,0,V,100.07699999999022,timeout,,,202819.2000000002,202818.593,202718.516,202719.40000000014,202735.193,202835.27,,grey
Reaction,canvas.Screen,2_36_0_2,2022-07-04T15:34:53.282Z,,,0,V,71.63000000015018,response,stim_detected,mousedown,202907.80000000005,202906.90000000014,202818.593,202819.30000000005,202835.27,202918.763,,grey
Trial,flow.Sequence,2_36_0,2022-07-04T15:34:53.282Z,,,0,V,2656.5790000001434,completion,,,202908,202906.90000000014,200233.644,200237.5,200250.321,202918.763,,grey
Frame,canvas.Frame,2_36,2022-07-04T15:34:53.282Z,,,0,V,2657.6790000000037,,,,202908.1000000001,202908,200233.644,200237.1000000001,200250.321,202918.763,,grey
Fixation,canvas.Screen,2_37_0_0,2022-07-04T15:34:54.961Z,,,0,V,1684.3849999999802,timeout,,,204587.1000000001,204586.471,202902.086,202908.6000000001,202918.763,204603.148,,grey
Stimulus,canvas.Screen,2_37_0_1,2022-07-04T15:34:55.061Z,,,0,V,100.11100000000442,timeout,,,204687.1000000001,204686.582,204586.471,204587.2000000002,204603.148,204703.259,,grey
Reaction,canvas.Screen,2_37_0_2,2022-07-04T15:34:55.225Z,,,0,V,146.64100000014878,response,stim_detected,mousedown,204850.80000000005,204849.90000000014,204686.582,204687.2000000002,204703.259,204853.385,,grey
Trial,flow.Sequence,2_37_0,2022-07-04T15:34:55.225Z,,,0,V,1931.1370000001334,completion,,,204851,204849.90000000014,202902.086,202908.5,202918.763,204853.385,,grey
Frame,canvas.Frame,2_37,2022-07-04T15:34:55.225Z,,,0,V,1932.3370000000868,,,,204851.1000000001,204851.1000000001,202902.086,202908.2000000002,202918.763,204853.385,,grey
Fixation,canvas.Screen,2_38_0_0,2022-07-04T15:34:57.429Z,,,0,V,2218.0529999999853,timeout,,,207055.2000000002,207054.761,204836.708,204851.7000000002,204853.385,207071.438,,grey
Stimulus,canvas.Screen,2_38_0_1,2022-07-04T15:34:57.529Z,,,0,V,100.0690000000177,timeout,,,207155.30000000005,207154.83,207054.761,207055.30000000005,207071.438,207171.507,,grey
Reaction,canvas.Screen,2_38_0_2,2022-07-04T15:34:57.668Z,,,0,V,121.39300000012736,response,stim_detected,mousedown,207293.80000000005,207292.90000000014,207154.83,207155.40000000014,207171.507,207305.028,,grey
Trial,flow.Sequence,2_38_0,2022-07-04T15:34:57.668Z,,,0,V,2439.5150000001304,completion,,,207293.90000000014,207292.90000000014,204836.708,204851.6000000001,204853.385,207305.028,,grey
Frame,canvas.Frame,2_38,2022-07-04T15:34:57.668Z,,,0,V,2440.6149999999907,,,,207294.1000000001,207294,204836.708,204851.2000000002,204853.385,207305.028,,grey
Fixation,canvas.Screen,2_39_0_0,2022-07-04T15:34:59.265Z,,,1,AV,1601.1040000000212,timeout,,,208890.7000000002,208889.454,207288.351,207294.5,207305.028,208906.132,,grey
Stimulus,canvas.Screen,2_39_0_1,2022-07-04T15:34:59.364Z,,,1,AV,99.95799999998417,timeout,,,208990.30000000005,208989.413,208889.454,208890.90000000014,208906.132,209006.09,,grey
Reaction,canvas.Screen,2_39_0_2,2022-07-04T15:34:59.482Z,,,1,AV,100.71000000005006,response,stim_detected,mousedown,209107.6000000001,209106.80000000005,208989.413,208990.40000000014,209006.09,209122.916,,grey
Trial,flow.Sequence,2_39_0,2022-07-04T15:34:59.482Z,,,1,AV,1801.7720000000554,completion,,,209107.7000000002,209106.80000000005,207288.351,207294.5,207305.028,209122.916,,grey
Frame,canvas.Frame,2_39,2022-07-04T15:34:59.482Z,,,1,AV,1802.7720000000554,,,,209107.90000000014,209107.80000000005,207288.351,207294.1000000001,207305.028,209122.916,,grey
Fixation,canvas.Screen,2_40_0_0,2022-07-04T15:35:01.883Z,,,1,A,2401.3399999999965,timeout,,,211508.80000000005,211507.58,209106.239,209108.30000000005,209122.916,211524.256,,black
Stimulus,canvas.Screen,2_40_0_1,2022-07-04T15:35:01.983Z,,,1,A,100.34700000000885,timeout,,,211608.80000000005,211607.926,211507.58,211508.90000000014,211524.256,211624.603,,black
Reaction,canvas.Screen,2_40_0_2,2022-07-04T15:35:02.106Z,,,1,A,106.19700000004377,response,stim_detected,mousedown,211731.6000000001,211730.80000000005,211607.926,211608.90000000014,211624.603,211741.333,,black
Trial,flow.Sequence,2_40_0,2022-07-04T15:35:02.106Z,,,1,A,2607.884000000049,completion,,,211731.80000000005,211730.80000000005,209106.239,209108.30000000005,209122.916,211741.333,,black
Frame,canvas.Frame,2_40,2022-07-04T15:35:02.106Z,,,1,A,2608.884000000049,,,,211731.90000000014,211731.80000000005,209106.239,209108,209122.916,211741.333,,black
Fixation,canvas.Screen,2_41_0_0,2022-07-04T15:35:04.435Z,,,1,AV,2334.6359999999986,timeout,,,214061,214059.293,211724.656,211732.40000000014,211741.333,214075.969,,grey
Stimulus,canvas.Screen,2_41_0_1,2022-07-04T15:35:04.534Z,,,1,AV,100.20900000000256,timeout,,,214160.6000000001,214159.501,214059.293,214061,214075.969,214176.178,,grey
Reaction,canvas.Screen,2_41_0_2,2022-07-04T15:35:04.653Z,,,1,AV,101.52200000017183,response,stim_detected,mousedown,214278.90000000014,214277.7000000002,214159.501,214160.7000000002,214176.178,214293.034,,grey
Trial,flow.Sequence,2_41_0,2022-07-04T15:35:04.653Z,,,1,AV,2536.367000000173,completion,,,214279.1000000001,214277.7000000002,211724.656,211732.40000000014,211741.333,214293.034,,grey
Frame,canvas.Frame,2_41,2022-07-04T15:35:04.653Z,,,1,AV,2537.76700000008,,,,214279.2000000002,214279.1000000001,211724.656,211732,211741.333,214293.034,,grey
Fixation,canvas.Screen,2_42_0_0,2022-07-04T15:35:06.186Z,,,1,A,1534.2849999999744,timeout,,,215811.7000000002,215810.642,214276.357,214279.7000000002,214293.034,215827.319,,black
Stimulus,canvas.Screen,2_42_0_1,2022-07-04T15:35:06.286Z,,,1,A,100.11200000002282,timeout,,,215911.6000000001,215910.754,215810.642,215811.7000000002,215827.319,215927.431,,black
Reaction,canvas.Screen,2_42_0_2,2022-07-04T15:35:06.462Z,,,1,A,159.36900000003516,response,stim_detected,mousedown,216087.6000000001,216086.80000000005,215910.754,215911.7000000002,215927.431,216094.241,,black
Trial,flow.Sequence,2_42_0,2022-07-04T15:35:06.462Z,,,1,A,1793.7660000000324,completion,,,216087.90000000014,216086.80000000005,214276.357,214279.6000000001,214293.034,216094.241,,black
Frame,canvas.Frame,2_42,2022-07-04T15:35:06.462Z,,,1,A,1794.8660000001255,,,,216088,216087.90000000014,214276.357,214279.30000000005,214293.034,216094.241,,black
Fixation,canvas.Screen,2_43_0_0,2022-07-04T15:35:08.253Z,,,1,A,1800.9959999999846,timeout,,,217879,217878.561,216077.564,216088.80000000005,216094.241,217895.237,,black
Stimulus,canvas.Screen,2_43_0_1,2022-07-04T15:35:08.354Z,,,1,A,100.18400000000838,timeout,,,217979.80000000005,217978.744,217878.561,217879,217895.237,217995.421,,black
Reaction,canvas.Screen,2_43_0_2,2022-07-04T15:35:08.457Z,,,1,A,86.37900000004447,response,stim_detected,mousedown,218082.7000000002,218081.80000000005,217978.744,217979.80000000005,217995.421,218095.576,,black
Trial,flow.Sequence,2_43_0,2022-07-04T15:35:08.457Z,,,1,A,1987.5590000000375,completion,,,218082.80000000005,218081.80000000005,216077.564,216088.7000000002,216094.241,218095.576,,black
Frame,canvas.Frame,2_43,2022-07-04T15:35:08.457Z,,,1,A,1988.6590000001306,,,,218083,218082.90000000014,216077.564,216088,216094.241,218095.576,,black
Fixation,canvas.Screen,2_44_0_0,2022-07-04T15:35:10.522Z,,,1,AV,2067.9530000000086,timeout,,,220147.80000000005,220146.852,218078.899,218083.40000000014,218095.576,220163.529,,grey
Stimulus,canvas.Screen,2_44_0_1,2022-07-04T15:35:10.622Z,,,1,AV,100.12599999998929,timeout,,,220247.90000000014,220246.978,220146.852,220147.90000000014,220163.529,220263.655,,grey
Reaction,canvas.Screen,2_44_0_2,2022-07-04T15:35:10.739Z,,,1,AV,101.14500000004773,response,stim_detected,mousedown,220365.6000000001,220364.80000000005,220246.978,220247.90000000014,220263.655,220380.438,,grey
Trial,flow.Sequence,2_44_0,2022-07-04T15:35:10.740Z,,,1,AV,2269.2240000000456,completion,,,220365.7000000002,220364.80000000005,218078.899,218083.40000000014,218095.576,220380.438,,grey
Frame,canvas.Frame,2_44,2022-07-04T15:35:10.740Z,,,1,AV,2270.1240000001853,,,,220365.80000000005,220365.7000000002,218078.899,218083,218095.576,220380.438,,grey
Fixation,canvas.Screen,2_45_0_0,2022-07-04T15:35:12.606Z,,,1,AV,1867.8250000000116,timeout,,,222231.90000000014,222231.586,220363.761,220366.2000000002,220380.438,222248.263,,grey
Stimulus,canvas.Screen,2_45_0_1,2022-07-04T15:35:12.707Z,,,1,AV,100.07399999999325,timeout,,,222332.90000000014,222331.66,222231.586,222232,222248.263,222348.337,,grey
Reaction,canvas.Screen,2_45_0_2,2022-07-04T15:35:12.827Z,,,1,AV,104.46300000004703,response,stim_detected,mousedown,222453.6000000001,222452.80000000005,222331.66,222333,222348.337,222465.163,,grey
Trial,flow.Sequence,2_45_0,2022-07-04T15:35:12.828Z,,,1,AV,2072.362000000052,completion,,,222453.80000000005,222452.80000000005,220363.761,220366.2000000002,220380.438,222465.163,,grey
Frame,canvas.Frame,2_45,2022-07-04T15:35:12.828Z,,,1,AV,2073.362000000052,,,,222453.80000000005,222453.80000000005,220363.761,220365.90000000014,220380.438,222465.163,,grey
Fixation,canvas.Screen,2_46_0_0,2022-07-04T15:35:14.975Z,,,1,A,2151.337999999989,timeout,,,224601,224599.824,222448.486,222454.30000000005,222465.163,224616.501,,black
Stimulus,canvas.Screen,2_46_0_1,2022-07-04T15:35:15.075Z,,,1,A,100.18600000001607,timeout,,,224701,224700.01,224599.824,224601.1000000001,224616.501,224716.687,,black
Reaction,canvas.Screen,2_46_0_2,2022-07-04T15:35:15.187Z,,,1,A,96.01300000018091,response,stim_detected,mousedown,224813.6000000001,224812.7000000002,224700.01,224701.1000000001,224716.687,224816.736,,black
Trial,flow.Sequence,2_46_0,2022-07-04T15:35:15.188Z,,,1,A,2347.537000000186,completion,,,224813.7000000002,224812.7000000002,222448.486,222454.30000000005,222465.163,224816.736,,black
Frame,canvas.Frame,2_46,2022-07-04T15:35:15.188Z,,,1,A,2348.537000000186,,,,224813.7000000002,224813.7000000002,222448.486,222454,222465.163,224816.736,,black
Fixation,canvas.Screen,2_47_0_0,2022-07-04T15:35:17.144Z,,,0,V,1967.8850000000093,timeout,,,226769.2000000002,226767.944,224800.059,224814.2000000002,224816.736,226784.621,,grey
Stimulus,canvas.Screen,2_47_0_1,2022-07-04T15:35:17.244Z,,,0,V,100.125,timeout,,,226869.1000000001,226868.069,226767.944,226769.30000000005,226784.621,226884.746,,grey
Reaction,canvas.Screen,2_47_0_2,2022-07-04T15:35:17.364Z,,,0,V,102.95400000017253,response,stim_detected,mousedown,226988.5,226987.7000000002,226868.069,226869.2000000002,226884.746,227001.533,,grey
Trial,flow.Sequence,2_47_0,2022-07-04T15:35:17.364Z,,,0,V,2170.964000000182,completion,,,226988.80000000005,226987.7000000002,224800.059,224814.2000000002,224816.736,227001.533,,grey
Frame,canvas.Frame,2_47,2022-07-04T15:35:17.364Z,,,0,V,2172.064000000042,,,,226989,226988.80000000005,224800.059,224813.80000000005,224816.736,227001.533,,grey
Fixation,canvas.Screen,2_48_0_0,2022-07-04T15:35:18.878Z,,,0,V,1517.512000000017,timeout,,,228503.2000000002,228502.369,226984.856,226989.5,227001.533,228519.045,,grey
Stimulus,canvas.Screen,2_48_0_1,2022-07-04T15:35:18.978Z,,,0,V,100.27999999999884,timeout,,,228603.2000000002,228602.647,228502.369,228503.30000000005,228519.045,228619.325,,grey
Reaction,canvas.Screen,2_48_0_2,2022-07-04T15:35:19.151Z,,,0,V,156.2750000000815,response,stim_detected,mousedown,228776.5,228775.6000000001,228602.647,228603.30000000005,228619.325,228786.048,,grey
Trial,flow.Sequence,2_48_0,2022-07-04T15:35:19.152Z,,,0,V,1774.0670000000973,completion,,,228776.6000000001,228775.6000000001,226984.856,226989.40000000014,227001.533,228786.048,,grey
Frame,canvas.Frame,2_48,2022-07-04T15:35:19.152Z,,,0,V,1775.0670000000973,,,,228776.7000000002,228776.6000000001,226984.856,226989.1000000001,227001.533,228786.048,,grey
Fixation,canvas.Screen,2_49_0_0,2022-07-04T15:35:21.296Z,,,1,A,2151.3399999999965,timeout,,,230921.30000000005,230920.711,228769.371,228777.1000000001,228786.048,230937.388,,black
Stimulus,canvas.Screen,2_49_0_1,2022-07-04T15:35:21.396Z,,,1,A,100.18799999999464,timeout,,,231021.30000000005,231020.899,230920.711,230921.40000000014,230937.388,231037.576,,black
Reaction,canvas.Screen,2_49_0_2,2022-07-04T15:35:21.524Z,,,1,A,110.12400000018533,response,stim_detected,mousedown,231148.7000000002,231147.7000000002,231020.899,231021.40000000014,231037.576,231154.3,,black
Trial,flow.Sequence,2_49_0,2022-07-04T15:35:21.524Z,,,1,A,2361.6520000001765,completion,,,231148.80000000005,231147.7000000002,228769.371,228777.1000000001,228786.048,231154.3,,black
Frame,canvas.Frame,2_49,2022-07-04T15:35:21.524Z,,,1,A,2362.85200000013,,,,231149,231148.90000000014,228769.371,228776.7000000002,228786.048,231154.3,,black
Fixation,canvas.Screen,2_50_0_0,2022-07-04T15:35:23.064Z,,,1,AV,1550.9680000000226,timeout,,,232689.40000000014,232688.591,231137.623,231149.40000000014,231154.3,232705.268,,grey
Stimulus,canvas.Screen,2_50_0_1,2022-07-04T15:35:23.164Z,,,1,AV,100.15399999998044,timeout,,,232789.40000000014,232788.745,232688.591,232689.5,232705.268,232805.422,,grey
Reaction,canvas.Screen,2_50_0_2,2022-07-04T15:35:23.295Z,,,1,AV,114.17800000010175,response,stim_detected,mousedown,232920.5,232919.6000000001,232788.745,232789.5,232805.422,232922.159,,grey
Trial,flow.Sequence,2_50_0,2022-07-04T15:35:23.296Z,,,1,AV,1765.3000000001048,completion,,,232920.6000000001,232919.6000000001,231137.623,231149.40000000014,231154.3,232922.159,,grey
Frame,canvas.Frame,2_50,2022-07-04T15:35:23.296Z,,,1,AV,1766.3000000001048,,,,232920.7000000002,232920.6000000001,231137.623,231149,231154.3,232922.159,,grey
Fixation,canvas.Screen,2_51_0_0,2022-07-04T15:35:24.883Z,,,1,AV,1600.8909999999742,timeout,,,234507.6000000001,234506.374,232905.482,232921.2000000002,232922.159,234523.05,,grey
Stimulus,canvas.Screen,2_51_0_1,2022-07-04T15:35:24.983Z,,,1,AV,100.16500000000815,timeout,,,234607.5,234606.538,234506.374,234507.6000000001,234523.05,234623.215,,grey
Reaction,canvas.Screen,2_51_0_2,2022-07-04T15:35:25.076Z,,,1,AV,76.48500000018976,response,stim_detected,mousedown,234700.5,234699.7000000002,234606.538,234607.6000000001,234623.215,234706.68,,grey
Trial,flow.Sequence,2_51_0,2022-07-04T15:35:25.076Z,,,1,AV,1777.541000000172,completion,,,234700.7000000002,234699.7000000002,232905.482,232921.2000000002,232922.159,234706.68,,grey
Frame,canvas.Frame,2_51,2022-07-04T15:35:25.076Z,,,1,AV,1778.541000000172,,,,234700.7000000002,234700.7000000002,232905.482,232920.90000000014,232922.159,234706.68,,grey
Fixation,canvas.Screen,2_52_0_0,2022-07-04T15:35:26.634Z,,,0,V,1567.6469999999972,timeout,,,236258.6000000001,236257.65,234690.003,234701.30000000005,234706.68,236274.327,,grey
Stimulus,canvas.Screen,2_52_0_1,2022-07-04T15:35:26.734Z,,,0,V,100.10700000001816,timeout,,,236358.7000000002,236357.757,236257.65,236258.6000000001,236274.327,236374.434,,grey
Reaction,canvas.Screen,2_52_0_2,2022-07-04T15:35:26.859Z,,,0,V,108.16600000008475,response,stim_detected,mousedown,236483.6000000001,236482.6000000001,236357.757,236359,236374.434,236491.214,,grey
Trial,flow.Sequence,2_52_0,2022-07-04T15:35:26.859Z,,,0,V,1775.9200000001001,completion,,,236483.7000000002,236482.6000000001,234690.003,234701.30000000005,234706.68,236491.214,,grey
Frame,canvas.Frame,2_52,2022-07-04T15:35:26.859Z,,,0,V,1777.1200000000536,,,,236483.90000000014,236483.80000000005,234690.003,234700.90000000014,234706.68,236491.214,,grey
Fixation,canvas.Screen,2_53_0_0,2022-07-04T15:35:28.818Z,,,0,V,1967.6300000000047,timeout,,,238442.7000000002,238442.169,236474.537,236484.40000000014,236491.214,238458.844,,grey
Stimulus,canvas.Screen,2_53_0_1,2022-07-04T15:35:28.918Z,,,0,V,99.93399999997928,timeout,,,238542.7000000002,238542.105,238442.169,238442.80000000005,238458.844,238558.778,,grey
Reaction,canvas.Screen,2_53_0_2,2022-07-04T15:35:29.089Z,,,0,V,154.12200000014855,response,stim_detected,mousedown,238713.6000000001,238712.90000000014,238542.105,238542.80000000005,238558.778,238726.031,,grey
Trial,flow.Sequence,2_53_0,2022-07-04T15:35:29.089Z,,,0,V,2221.6860000001325,completion,,,238713.80000000005,238712.90000000014,236474.537,236484.30000000005,236491.214,238726.031,,grey
Frame,canvas.Frame,2_53,2022-07-04T15:35:29.089Z,,,0,V,2222.5860000000393,,,,238713.90000000014,238713.80000000005,236474.537,236484,236491.214,238726.031,,grey
Fixation,canvas.Screen,2_54_0_0,2022-07-04T15:35:31.320Z,,,1,AV,2234.7240000000165,timeout,,,240945.30000000005,240944.078,238709.354,238714.30000000005,238726.031,240960.755,,grey
Stimulus,canvas.Screen,2_54_0_1,2022-07-04T15:35:31.420Z,,,1,AV,99.92399999999907,timeout,,,241045.2000000002,241044.003,240944.078,240945.6000000001,240960.755,241060.679,,grey
Reaction,canvas.Screen,2_54_0_2,2022-07-04T15:35:31.558Z,,,1,AV,121.12100000004284,response,stim_detected,mousedown,241183.30000000005,241181.80000000005,241044.003,241045.5,241060.679,241194.412,,grey
Trial,flow.Sequence,2_54_0,2022-07-04T15:35:31.559Z,,,1,AV,2455.7690000000584,completion,,,241183.7000000002,241181.80000000005,238709.354,238714.30000000005,238726.031,241194.412,,grey
Frame,canvas.Frame,2_54,2022-07-04T15:35:31.559Z,,,1,AV,2457.7690000000584,,,,241184,241183.80000000005,238709.354,238714,238726.031,241194.412,,grey
Fixation,canvas.Screen,2_55_0_0,2022-07-04T15:35:33.488Z,,,1,AV,1934.2779999999912,timeout,,,243113,243112.015,241177.735,241185,241194.412,243128.69,,grey
Stimulus,canvas.Screen,2_55_0_1,2022-07-04T15:35:33.588Z,,,1,AV,100.39999999999418,timeout,,,243213,243212.412,243112.015,243113.2000000002,243128.69,243229.09,,grey
Reaction,canvas.Screen,2_55_0_2,2022-07-04T15:35:33.713Z,,,1,AV,108.41000000000349,response,stim_detected,mousedown,243338.5,243337.5,243212.412,243213.1000000001,243229.09,243345.786,,grey
Trial,flow.Sequence,2_55_0,2022-07-04T15:35:33.714Z,,,1,AV,2143.087999999989,completion,,,243338.7000000002,243337.5,241177.735,241184.90000000014,241194.412,243345.786,,grey
Frame,canvas.Frame,2_55,2022-07-04T15:35:33.714Z,,,1,AV,2144.288000000175,,,,243338.80000000005,243338.7000000002,241177.735,241184.2000000002,241194.412,243345.786,,grey
Fixation,canvas.Screen,2_56_0_0,2022-07-04T15:35:35.523Z,,,1,AV,1817.7939999999944,timeout,,,245148,245146.903,243329.109,243339.2000000002,243345.786,245163.58,,grey
Stimulus,canvas.Screen,2_56_0_1,2022-07-04T15:35:35.623Z,,,1,AV,100.0690000000177,timeout,,,245248,245246.972,245146.903,245148.1000000001,245163.58,245263.649,,grey
Reaction,canvas.Screen,2_56_0_2,2022-07-04T15:35:35.742Z,,,1,AV,102.85099999999511,response,stim_detected,mousedown,245367.30000000005,245366.5,245246.972,245248.1000000001,245263.649,245378.642,,grey
Trial,flow.Sequence,2_56_0,2022-07-04T15:35:35.743Z,,,1,AV,2020.7140000000072,completion,,,245367.5,245366.5,243329.109,243339.2000000002,243345.786,245378.642,,grey
Frame,canvas.Frame,2_56,2022-07-04T15:35:35.743Z,,,1,AV,2021.8140000001004,,,,245367.6000000001,245367.6000000001,243329.109,243338.80000000005,243345.786,245378.642,,grey
Fixation,canvas.Screen,2_57_0_0,2022-07-04T15:35:38.225Z,,,0,V,2486.717000000004,timeout,,,247849.6000000001,247848.682,245362.118,245368.1000000001,245378.642,247865.359,,grey
Stimulus,canvas.Screen,2_57_0_1,2022-07-04T15:35:38.326Z,,,0,V,100.13800000000629,timeout,,,247950.6000000001,247948.82,247848.682,247849.7000000002,247865.359,247965.497,,grey
Reaction,canvas.Screen,2_57_0_2,2022-07-04T15:35:38.442Z,,,0,V,99.90300000013667,response,stim_detected,mousedown,248066.7000000002,248065.40000000014,247948.82,247950.7000000002,247965.497,248082.284,,grey
Trial,flow.Sequence,2_57_0,2022-07-04T15:35:38.442Z,,,0,V,2686.758000000147,completion,,,248066.90000000014,248065.40000000014,245362.118,245368,245378.642,248082.284,,grey
Frame,canvas.Frame,2_57,2022-07-04T15:35:38.442Z,,,0,V,2688.258000000147,,,,248067,248066.90000000014,245362.118,245367.7000000002,245378.642,248082.284,,grey
Fixation,canvas.Screen,2_58_0_0,2022-07-04T15:35:39.992Z,,,0,V,1550.9659999999858,timeout,,,249617.2000000002,249616.573,248065.607,248067.40000000014,248082.284,249633.25,,grey
Stimulus,canvas.Screen,2_58_0_1,2022-07-04T15:35:40.092Z,,,0,V,100.10999999998603,timeout,,,249717.30000000005,249716.683,249616.573,249617.40000000014,249633.25,249733.36,,grey
Reaction,canvas.Screen,2_58_0_2,2022-07-04T15:35:40.265Z,,,0,V,156.04000000015367,response,stim_detected,mousedown,249890.30000000005,249889.40000000014,249716.683,249717.30000000005,249733.36,249900.168,,grey
Trial,flow.Sequence,2_58_0,2022-07-04T15:35:40.266Z,,,0,V,1807.1160000001255,completion,,,249890.5,249889.40000000014,248065.607,248067.40000000014,248082.284,249900.168,,grey
Frame,canvas.Frame,2_58,2022-07-04T15:35:40.266Z,,,0,V,1808.2159999999858,,,,249890.6000000001,249890.5,248065.607,248067,248082.284,249900.168,,grey
Fixation,canvas.Screen,2_59_0_0,2022-07-04T15:35:42.227Z,,,1,AV,1967.8919999999925,timeout,,,251852.5,251851.383,249883.491,249891.2000000002,249900.168,251868.06,,grey
Stimulus,canvas.Screen,2_59_0_1,2022-07-04T15:35:42.327Z,,,1,AV,100.17600000000675,timeout,,,251952.40000000014,251951.559,251851.383,251852.6000000001,251868.06,251968.236,,grey
Reaction,canvas.Screen,2_59_0_2,2022-07-04T15:35:42.447Z,,,1,AV,102.26399999999558,response,stim_detected,mousedown,252071.5,252070.5,251951.559,251952.5,251968.236,252084.957,,grey
Trial,flow.Sequence,2_59_0,2022-07-04T15:35:42.447Z,,,1,AV,2170.331999999995,completion,,,252071.6000000001,252070.5,249883.491,249891.2000000002,249900.168,252084.957,,grey
Frame,canvas.Frame,2_59,2022-07-04T15:35:42.447Z,,,1,AV,2171.532000000181,,,,252071.7000000002,252071.7000000002,249883.491,249890.6000000001,249900.168,252084.957,,grey
Fixation,canvas.Screen,2_60_0_0,2022-07-04T15:35:44.712Z,,,1,AV,2268.222000000009,timeout,,,254337.5,254336.501,252068.28,252072.30000000005,252084.957,254353.179,,grey
Stimulus,canvas.Screen,2_60_0_1,2022-07-04T15:35:44.813Z,,,1,AV,99.92699999999604,timeout,,,254437.5,254436.429,254336.501,254337.6000000001,254353.179,254453.106,,grey
Reaction,canvas.Screen,2_60_0_2,2022-07-04T15:35:44.924Z,,,1,AV,95.29400000013993,response,stim_detected,mousedown,254549.30000000005,254548.40000000014,254436.429,254437.6000000001,254453.106,254553.277,,grey
Trial,flow.Sequence,2_60_0,2022-07-04T15:35:44.925Z,,,1,AV,2463.443000000145,completion,,,254549.5,254548.40000000014,252068.28,252072.30000000005,252084.957,254553.277,,grey
Frame,canvas.Frame,2_60,2022-07-04T15:35:44.925Z,,,1,AV,2464.543000000005,,,,254549.6000000001,254549.5,252068.28,252071.80000000005,252084.957,254553.277,,grey
Fixation,canvas.Screen,2_61_0_0,2022-07-04T15:35:47.098Z,,,1,A,2184.69200000001,timeout,,,256722.5,256721.292,254536.6,254550.1000000001,254553.277,256737.969,,black
Stimulus,canvas.Screen,2_61_0_1,2022-07-04T15:35:47.198Z,,,1,A,100.12999999997555,timeout,,,256822.5,256821.422,256721.292,256722.6000000001,256737.969,256838.099,,black
Reaction,canvas.Screen,2_61_0_2,2022-07-04T15:35:47.345Z,,,1,A,131.30100000015227,response,stim_detected,mousedown,256970.2000000002,256969.40000000014,256821.422,256822.6000000001,256838.099,256986.457,,black
Trial,flow.Sequence,2_61_0,2022-07-04T15:35:47.345Z,,,1,A,2416.123000000138,completion,,,256970.40000000014,256969.40000000014,254536.6,254550.1000000001,254553.277,256986.457,,black
Frame,canvas.Frame,2_61,2022-07-04T15:35:47.346Z,,,1,A,2417.123000000138,,,,256970.40000000014,256970.40000000014,254536.6,254549.7000000002,254553.277,256986.457,,black
Fixation,canvas.Screen,2_62_0_0,2022-07-04T15:35:49.015Z,,,0,V,1669.4850000000151,timeout,,,258639.80000000005,258639.265,256969.907,256970.90000000014,256986.457,258655.942,,grey
Stimulus,canvas.Screen,2_62_0_1,2022-07-04T15:35:49.116Z,,,0,V,100.16000000000349,timeout,,,258740.7000000002,258739.425,258639.265,258640,258655.942,258756.102,,grey
Reaction,canvas.Screen,2_62_0_2,2022-07-04T15:35:49.245Z,,,0,V,113.2980000001262,response,stim_detected,mousedown,258870.30000000005,258869.40000000014,258739.425,258740.7000000002,258756.102,258872.831,,grey
Trial,flow.Sequence,2_62_0,2022-07-04T15:35:49.246Z,,,0,V,1882.9430000001448,completion,,,258870.5,258869.40000000014,256969.907,256970.90000000014,256986.457,258872.831,,grey
Frame,canvas.Frame,2_62,2022-07-04T15:35:49.246Z,,,0,V,1884.0430000000051,,,,258870.6000000001,258870.5,256969.907,256970.5,256986.457,258872.831,,grey
Fixation,canvas.Screen,2_63_0_0,2022-07-04T15:35:51.133Z,,,1,AV,1901.1820000000007,timeout,,,260757.7000000002,260757.336,258856.154,258871.2000000002,258872.831,260774.013,,grey
Stimulus,canvas.Screen,2_63_0_1,2022-07-04T15:35:51.234Z,,,1,AV,100.12200000000303,timeout,,,260858.7000000002,260857.458,260757.336,260757.80000000005,260774.013,260874.135,,grey
Reaction,canvas.Screen,2_63_0_2,2022-07-04T15:35:51.340Z,,,1,AV,90.26500000013039,response,stim_detected,mousedown,260965.30000000005,260964.40000000014,260857.458,260858.80000000005,260874.135,260974.248,,grey
Trial,flow.Sequence,2_63_0,2022-07-04T15:35:51.340Z,,,1,AV,2091.569000000134,completion,,,260965.40000000014,260964.40000000014,258856.154,258871.1000000001,258872.831,260974.248,,grey
Frame,canvas.Frame,2_63,2022-07-04T15:35:51.341Z,,,1,AV,2092.6689999999944,,,,260965.5,260965.5,258856.154,258870.7000000002,258872.831,260974.248,,grey
Fixation,canvas.Screen,2_64_0_0,2022-07-04T15:35:53.351Z,,,0,V,2017.9260000000068,timeout,,,262975.90000000014,262975.497,260957.571,260966,260974.248,262992.174,,grey
Stimulus,canvas.Screen,2_64_0_1,2022-07-04T15:35:53.451Z,,,0,V,100.00699999998324,timeout,,,263075.90000000014,263075.505,262975.497,262976,262992.174,263092.181,,grey
Reaction,canvas.Screen,2_64_0_2,2022-07-04T15:35:53.577Z,,,0,V,109.2190000001574,response,stim_detected,mousedown,263202.1000000001,263201.40000000014,263075.505,263076,263092.181,263209.077,,grey
Trial,flow.Sequence,2_64_0,2022-07-04T15:35:53.577Z,,,0,V,2227.1520000001474,completion,,,263202.30000000005,263201.40000000014,260957.571,260966,260974.248,263209.077,,grey
Frame,canvas.Frame,2_64,2022-07-04T15:35:53.577Z,,,0,V,2228.1520000001474,,,,263202.40000000014,263202.40000000014,260957.571,260965.6000000001,260974.248,263209.077,,grey
Fixation,canvas.Screen,2_65_0_0,2022-07-04T15:35:55.586Z,,,1,AV,2017.9210000000312,timeout,,,265211.5,265210.321,263192.4,263202.90000000014,263209.077,265226.998,,grey
Stimulus,canvas.Screen,2_65_0_1,2022-07-04T15:35:55.686Z,,,1,AV,100.3059999999823,timeout,,,265311.40000000014,265310.624,265210.321,265211.80000000005,265226.998,265327.304,,grey
Reaction,canvas.Screen,2_65_0_2,2022-07-04T15:35:55.817Z,,,1,AV,112.19599999999627,response,stim_detected,mousedown,265442.1000000001,265439.5,265310.624,265311.6000000001,265327.304,265443.965,,grey
Trial,flow.Sequence,2_65_0,2022-07-04T15:35:55.817Z,,,1,AV,2230.42300000001,completion,,,265442.40000000014,265439.5,263192.4,263202.80000000005,263209.077,265443.965,,grey
Frame,canvas.Frame,2_65,2022-07-04T15:35:55.818Z,,,1,AV,2233.523000000103,,,,265442.80000000005,265442.6000000001,263192.4,263202.5,263209.077,265443.965,,grey
Fixation,canvas.Screen,2_66_0_0,2022-07-04T15:35:57.772Z,,,0,V,1968.1439999999711,timeout,,,267396.5,267395.43,265427.288,265443.80000000005,265443.965,267412.109,,grey
Stimulus,canvas.Screen,2_66_0_1,2022-07-04T15:35:57.872Z,,,0,V,99.97100000001956,timeout,,,267496.6000000001,267495.402,267395.43,267396.80000000005,267412.109,267512.08,,grey
Reaction,canvas.Screen,2_66_0_2,2022-07-04T15:35:58.066Z,,,0,V,176.9199999999837,response,stim_detected,mousedown,267690.5,267689,267495.402,267496.80000000005,267512.08,267695.452,,grey
Trial,flow.Sequence,2_66_0,2022-07-04T15:35:58.066Z,,,0,V,2245.0349999999744,completion,,,267690.90000000014,267689,265427.288,265443.7000000002,265443.965,267695.452,,grey
Frame,canvas.Frame,2_66,2022-07-04T15:35:58.066Z,,,0,V,2247.0349999999744,,,,267691.2000000002,267691,265427.288,265443,265443.965,267695.452,,grey
Fixation,canvas.Screen,2_67_0_0,2022-07-04T15:36:00.355Z,,,1,AV,2300.9689999999828,timeout,,,269980.30000000005,269979.747,267678.775,267692.2000000002,267695.452,269996.421,,grey
Stimulus,canvas.Screen,2_67_0_1,2022-07-04T15:36:00.456Z,,,1,AV,100.57600000000093,timeout,,,270081.2000000002,270080.32,269979.747,269980.40000000014,269996.421,270096.997,,grey
Reaction,canvas.Screen,2_67_0_2,2022-07-04T15:36:00.591Z,,,1,AV,118.30300000007264,response,stim_detected,mousedown,270216.1000000001,270215.30000000005,270080.32,270081.30000000005,270096.997,270230.447,,grey
Trial,flow.Sequence,2_67_0,2022-07-04T15:36:00.591Z,,,1,AV,2519.8480000000563,completion,,,270216.30000000005,270215.30000000005,267678.775,267692.1000000001,267695.452,270230.447,,grey
Frame,canvas.Frame,2_67,2022-07-04T15:36:00.591Z,,,1,AV,2520.8480000000563,,,,270216.40000000014,270216.30000000005,267678.775,267691.40000000014,267695.452,270230.447,,grey
Fixation,canvas.Screen,2_68_0_0,2022-07-04T15:36:02.440Z,,,1,A,1851.146000000008,timeout,,,272065.30000000005,272064.916,270213.769,270216.80000000005,270230.447,272081.593,,black
Stimulus,canvas.Screen,2_68_0_1,2022-07-04T15:36:02.541Z,,,1,A,100.05900000000838,timeout,,,272166.30000000005,272164.975,272064.916,272065.40000000014,272081.593,272181.652,,black
Reaction,canvas.Screen,2_68_0_2,2022-07-04T15:36:02.672Z,,,1,A,114.6480000000447,response,stim_detected,mousedown,272297.1000000001,272296.30000000005,272164.975,272166.30000000005,272181.652,272298.49,,black
Trial,flow.Sequence,2_68_0,2022-07-04T15:36:02.672Z,,,1,A,2065.853000000061,completion,,,272297.2000000002,272296.30000000005,270213.769,270216.80000000005,270230.447,272298.49,,black
Frame,canvas.Frame,2_68,2022-07-04T15:36:02.672Z,,,1,A,2066.853000000061,,,,272297.40000000014,272297.30000000005,270213.769,270216.5,270230.447,272298.49,,black
Fixation,canvas.Screen,2_69_0_0,2022-07-04T15:36:04.509Z,,,0,V,1851.0270000000019,timeout,,,274133.7000000002,274132.841,272281.813,272298.2000000002,272298.49,274149.517,,grey
Stimulus,canvas.Screen,2_69_0_1,2022-07-04T15:36:04.609Z,,,0,V,100.18900000001304,timeout,,,274233.5,274233.029,274132.841,274133.90000000014,274149.517,274249.706,,grey
Reaction,canvas.Screen,2_69_0_2,2022-07-04T15:36:04.756Z,,,0,V,130.59400000004098,response,stim_detected,mousedown,274381.1000000001,274380.30000000005,274233.029,274233.7000000002,274249.706,274383.225,,grey
Trial,flow.Sequence,2_69_0,2022-07-04T15:36:04.756Z,,,0,V,2081.810000000056,completion,,,274381.30000000005,274380.30000000005,272281.813,272298.1000000001,272298.49,274383.225,,grey
Frame,canvas.Frame,2_69,2022-07-04T15:36:04.756Z,,,0,V,2082.810000000056,,,,274381.30000000005,274381.30000000005,272281.813,272297.80000000005,272298.49,274383.225,,grey
Fixation,canvas.Screen,2_70_0_0,2022-07-04T15:36:07.111Z,,,1,A,2367.9800000000396,timeout,,,276736,276734.529,274366.548,274381.80000000005,274383.225,276751.205,,black
Stimulus,canvas.Screen,2_70_0_1,2022-07-04T15:36:07.211Z,,,1,A,100.28800000000047,timeout,,,276835.7000000002,276834.816,276734.529,276736.2000000002,276751.205,276851.493,,black
Reaction,canvas.Screen,2_70_0_2,2022-07-04T15:36:07.386Z,,,1,A,157.90700000012293,response,stim_detected,mousedown,277011,277009.40000000014,276834.816,276835.90000000014,276851.493,277018.313,,black
Trial,flow.Sequence,2_70_0,2022-07-04T15:36:07.386Z,,,1,A,2626.175000000163,completion,,,277011.40000000014,277009.40000000014,274366.548,274381.7000000002,274383.225,277018.313,,black
Frame,canvas.Frame,2_70,2022-07-04T15:36:07.387Z,,,1,A,2628.2750000000233,,,,277011.7000000002,277011.5,274366.548,274381.40000000014,274383.225,277018.313,,black
Fixation,canvas.Screen,2_71_0_0,2022-07-04T15:36:09.179Z,,,0,V,1801.0039999999572,timeout,,,278803.80000000005,278802.641,277001.636,277012.7000000002,277018.313,278819.317,,grey
Stimulus,canvas.Screen,2_71_0_1,2022-07-04T15:36:09.279Z,,,0,V,100.42200000002049,timeout,,,278903.7000000002,278903.06,278802.641,278803.90000000014,278819.317,278919.739,,grey
Reaction,canvas.Screen,2_71_0_2,2022-07-04T15:36:09.472Z,,,0,V,176.46100000018487,response,stim_detected,mousedown,279097.1000000001,279096.2000000002,278903.06,278903.90000000014,278919.739,279103.03,,grey
Trial,flow.Sequence,2_71_0,2022-07-04T15:36:09.472Z,,,0,V,2077.8870000001625,completion,,,279097.30000000005,279096.2000000002,277001.636,277012.6000000001,277018.313,279103.03,,grey
Frame,canvas.Frame,2_71,2022-07-04T15:36:09.473Z,,,0,V,2078.987000000023,,,,279097.80000000005,279097.30000000005,277001.636,277011.90000000014,277018.313,279103.03,,grey
Fixation,canvas.Screen,2_72_0_0,2022-07-04T15:36:11.948Z,,,0,V,2485.210999999952,timeout,,,281572.90000000014,281571.562,279086.353,279098.30000000005,279103.03,281588.241,,grey
Stimulus,canvas.Screen,2_72_0_1,2022-07-04T15:36:12.047Z,,,0,V,99.58100000000559,timeout,,,281671.80000000005,281671.146,281571.562,281573.1000000001,281588.241,281687.822,,grey
Reaction,canvas.Screen,2_72_0_2,2022-07-04T15:36:12.202Z,,,0,V,138.478000000061,response,stim_detected,mousedown,281827.1000000001,281826.30000000005,281671.146,281672,281687.822,281838.198,,grey
Trial,flow.Sequence,2_72_0,2022-07-04T15:36:12.202Z,,,0,V,2723.2700000000186,completion,,,281827.2000000002,281826.30000000005,279086.353,279098.30000000005,279103.03,281838.198,,grey
Frame,canvas.Frame,2_72,2022-07-04T15:36:12.202Z,,,0,V,2724.3700000001118,,,,281827.40000000014,281827.40000000014,279086.353,279097.90000000014,279103.03,281838.198,,grey
Fixation,canvas.Screen,2_73_0_0,2022-07-04T15:36:13.849Z,,,1,A,1651.0290000000386,timeout,,,283474.30000000005,283472.55,281821.521,281827.90000000014,281838.198,283489.227,,black
Stimulus,canvas.Screen,2_73_0_1,2022-07-04T15:36:13.949Z,,,1,A,100.15999999997439,timeout,,,283573.90000000014,283572.71,283472.55,283474.6000000001,283489.227,283589.387,,black
Reaction,canvas.Screen,2_73_0_2,2022-07-04T15:36:14.088Z,,,1,A,121.91300000005867,response,stim_detected,mousedown,283713,283711.30000000005,283572.71,283574.1000000001,283589.387,283722.811,,black
Trial,flow.Sequence,2_73_0,2022-07-04T15:36:14.088Z,,,1,A,1873.1020000000717,completion,,,283713.30000000005,283711.30000000005,281821.521,281827.90000000014,281838.198,283722.811,,black
Frame,canvas.Frame,2_73,2022-07-04T15:36:14.089Z,,,1,A,1875.3020000000251,,,,283713.6000000001,283713.5,281821.521,281827.40000000014,281838.198,283722.811,,black
Fixation,canvas.Screen,2_74_0_0,2022-07-04T15:36:16.300Z,,,1,A,2217.6110000000335,timeout,,,285925.40000000014,285923.748,283706.134,283714.6000000001,283722.811,285940.422,,black
Stimulus,canvas.Screen,2_74_0_1,2022-07-04T15:36:16.401Z,,,1,A,100.44099999999162,timeout,,,286025.5,286024.187,285923.748,285925.6000000001,285940.422,286040.863,,black
Reaction,canvas.Screen,2_74_0_2,2022-07-04T15:36:16.531Z,,,1,A,113.53700000012759,response,stim_detected,mousedown,286156,286154.40000000014,286024.187,286025.7000000002,286040.863,286157.779,,black
Trial,flow.Sequence,2_74_0,2022-07-04T15:36:16.531Z,,,1,A,2431.5890000001527,completion,,,286156.30000000005,286154.40000000014,283706.134,283714.5,283722.811,286157.779,,black
Frame,canvas.Frame,2_74,2022-07-04T15:36:16.532Z,,,1,A,2433.689000000013,,,,286156.7000000002,286156.5,283706.134,283713.80000000005,283722.811,286157.779,,black
Fixation,canvas.Screen,2_75_0_0,2022-07-04T15:36:18.220Z,,,1,AV,1701.2860000000219,timeout,,,287843.7000000002,287842.386,286141.102,286157.7000000002,286157.779,287859.065,,grey
Stimulus,canvas.Screen,2_75_0_1,2022-07-04T15:36:18.319Z,,,1,AV,100.02100000000792,timeout,,,287943.5,287942.407,287842.386,287843.90000000014,287859.065,287959.086,,grey
Reaction,canvas.Screen,2_75_0_2,2022-07-04T15:36:18.467Z,,,1,AV,130.31400000012945,response,stim_detected,mousedown,288091.1000000001,288089.40000000014,287942.407,287943.7000000002,287959.086,288109.109,,grey
Trial,flow.Sequence,2_75_0,2022-07-04T15:36:18.468Z,,,1,AV,1931.6210000001593,completion,,,288091.6000000001,288089.40000000014,286141.102,286157.5,286157.779,288109.109,,grey
Frame,canvas.Frame,2_75,2022-07-04T15:36:18.468Z,,,1,AV,1933.9210000002058,,,,288091.90000000014,288091.7000000002,286141.102,286156.80000000005,286157.779,288109.109,,grey
Fixation,canvas.Screen,2_76_0_0,2022-07-04T15:36:20.954Z,,,0,V,2485.362000000023,timeout,,,290578.5,290577.791,288092.432,288093,288109.109,290594.471,,grey
Stimulus,canvas.Screen,2_76_0_1,2022-07-04T15:36:21.053Z,,,0,V,98.94500000000698,timeout,,,290677.2000000002,290676.743,290577.791,290578.6000000001,290594.471,290693.416,,grey
Reaction,canvas.Screen,2_76_0_2,2022-07-04T15:36:21.159Z,,,0,V,88.68400000006659,response,stim_detected,mousedown,290783.2000000002,290782.1000000001,290676.743,290677.30000000005,290693.416,290794.182,,grey
Trial,flow.Sequence,2_76_0,2022-07-04T15:36:21.159Z,,,0,V,2672.9910000000964,completion,,,290783.40000000014,290782.1000000001,288092.432,288092.90000000014,288109.109,290794.182,,grey
Frame,canvas.Frame,2_76,2022-07-04T15:36:21.159Z,,,0,V,2674.291000000143,,,,290783.5,290783.40000000014,288092.432,288092.1000000001,288109.109,290794.182,,grey
Fixation,canvas.Screen,2_77_0_0,2022-07-04T15:36:23.422Z,,,1,AV,2267.9310000000405,timeout,,,293046.30000000005,293045.437,290777.505,290784,290794.182,293062.113,,grey
Stimulus,canvas.Screen,2_77_0_1,2022-07-04T15:36:23.522Z,,,1,AV,100.33199999999488,timeout,,,293146.30000000005,293145.768,293045.437,293046.5,293062.113,293162.445,,grey
Reaction,canvas.Screen,2_77_0_2,2022-07-04T15:36:23.658Z,,,1,AV,118.65500000008615,response,stim_detected,mousedown,293282,293281.1000000001,293145.768,293146.5,293162.445,293295.869,,grey
Trial,flow.Sequence,2_77_0,2022-07-04T15:36:23.658Z,,,1,AV,2486.9180000001215,completion,,,293282.2000000002,293281.1000000001,290777.505,290784,290794.182,293295.869,,grey
Frame,canvas.Frame,2_77,2022-07-04T15:36:23.658Z,,,1,AV,2488.118000000075,,,,293282.30000000005,293282.30000000005,290777.505,290783.5,290794.182,293295.869,,grey
Fixation,canvas.Screen,2_78_0_0,2022-07-04T15:36:25.957Z,,,1,AV,2301.125,timeout,,,295581.40000000014,295580.319,293279.192,293282.80000000005,293295.869,295596.994,,grey
Stimulus,canvas.Screen,2_78_0_1,2022-07-04T15:36:26.057Z,,,1,AV,100.52499999996508,timeout,,,295681.5,295680.841,295580.319,295581.5,295596.994,295697.519,,grey
Reaction,canvas.Screen,2_78_0_2,2022-07-04T15:36:26.190Z,,,1,AV,115.581000000122,response,stim_detected,mousedown,295814,295813.1000000001,295680.841,295681.6000000001,295697.519,295830.892,,grey
Trial,flow.Sequence,2_78_0,2022-07-04T15:36:26.190Z,,,1,AV,2517.231000000087,completion,,,295814.2000000002,295813.1000000001,293279.192,293282.7000000002,293295.869,295830.892,,grey
Frame,canvas.Frame,2_78,2022-07-04T15:36:26.190Z,,,1,AV,2518.33100000018,,,,295814.30000000005,295814.2000000002,293279.192,293282.40000000014,293295.869,295830.892,,grey
Fixation,canvas.Screen,2_79_0_0,2022-07-04T15:36:28.126Z,,,1,A,1934.4110000000219,timeout,,,297749.90000000014,297748.627,295814.215,295814.80000000005,295830.892,297765.303,,black
Stimulus,canvas.Screen,2_79_0_1,2022-07-04T15:36:28.227Z,,,1,A,100.70600000000559,timeout,,,297851,297849.328,297748.627,297750.2000000002,297765.303,297866.009,,black
Reaction,canvas.Screen,2_79_0_2,2022-07-04T15:36:28.551Z,,,1,A,307.29100000002654,response,stim_detected,mousedown,298174.80000000005,298173.30000000005,297849.328,297851.2000000002,297866.009,298182.507,,black
Trial,flow.Sequence,2_79_0,2022-07-04T15:36:28.551Z,,,1,A,2342.408000000054,completion,,,298175.2000000002,298173.30000000005,295814.215,295814.80000000005,295830.892,298182.507,,black
Frame,canvas.Frame,2_79,2022-07-04T15:36:28.551Z,,,1,A,2344.408000000054,,,,298175.5,298175.30000000005,295814.215,295814.40000000014,295830.892,298182.507,,black
Fixation,canvas.Screen,2_80_0_0,2022-07-04T15:36:31.011Z,,,1,A,2467.1810000000405,timeout,,,300634.7000000002,300633.017,298165.83,298177,298182.507,300649.688,,black
Stimulus,canvas.Screen,2_80_0_1,2022-07-04T15:36:31.111Z,,,1,A,101.05499999999302,timeout,,,300735.30000000005,300734.066,300633.017,300635,300649.688,300750.743,,black
Reaction,canvas.Screen,2_80_0_2,2022-07-04T15:36:31.249Z,,,1,A,120.5570000000298,response,stim_detected,mousedown,300872.90000000014,300871.30000000005,300734.066,300735.5,300750.743,300900.963,,black
Trial,flow.Sequence,2_80_0,2022-07-04T15:36:31.249Z,,,1,A,2688.7930000000633,completion,,,300873.40000000014,300871.30000000005,298165.83,298176.80000000005,298182.507,300900.963,,black
Frame,canvas.Frame,2_80,2022-07-04T15:36:31.250Z,,,1,A,2690.9930000000168,,,,300873.7000000002,300873.5,298165.83,298175.7000000002,298182.507,300900.963,,black
Fixation,canvas.Screen,2_81_0_0,2022-07-04T15:36:32.879Z,,,0,V,1617.6820000000298,timeout,,,302503.2000000002,302501.968,300867.609,300875,300900.963,302518.645,,grey
Stimulus,canvas.Screen,2_81_0_1,2022-07-04T15:36:32.979Z,,,0,V,99.84299999999348,timeout,,,302603.2000000002,302601.813,302501.968,302503.6000000001,302518.645,302618.488,,grey
Reaction,canvas.Screen,2_81_0_2,2022-07-04T15:36:33.175Z,,,0,V,178.81200000003446,response,stim_detected,mousedown,302799.1000000001,302797.30000000005,302601.813,302603.5,302618.488,302802.269,,grey
Trial,flow.Sequence,2_81_0,2022-07-04T15:36:33.175Z,,,0,V,1896.3370000000577,completion,,,302799.5,302797.30000000005,300867.609,300874.90000000014,300900.963,302802.269,,grey
Frame,canvas.Frame,2_81,2022-07-04T15:36:33.176Z,,,0,V,1898.6370000001043,,,,302799.80000000005,302799.6000000001,300867.609,300873.90000000014,300900.963,302802.269,,grey
Fixation,canvas.Screen,2_82_0_0,2022-07-04T15:36:34.997Z,,,1,A,1833.9680000000517,timeout,,,304621.30000000005,304619.564,302785.592,302800.80000000005,302802.269,304636.237,,black
Stimulus,canvas.Screen,2_82_0_1,2022-07-04T15:36:35.097Z,,,1,A,100.74299999995856,timeout,,,304721.30000000005,304720.302,304619.564,304621.40000000014,304636.237,304736.98,,black
Reaction,canvas.Screen,2_82_0_2,2022-07-04T15:36:35.290Z,,,1,A,175.3200000000652,response,stim_detected,mousedown,304913.80000000005,304912.30000000005,304720.302,304721.6000000001,304736.98,304920.34,,black
Trial,flow.Sequence,2_82_0,2022-07-04T15:36:35.290Z,,,1,A,2110.0310000000754,completion,,,304914.2000000002,304912.30000000005,302785.592,302800.80000000005,302802.269,304920.34,,black
Frame,canvas.Frame,2_82,2022-07-04T15:36:35.290Z,,,1,A,2112.0310000000754,,,,304914.5,304914.30000000005,302785.592,302799.90000000014,302802.269,304920.34,,black
Fixation,canvas.Screen,2_83_0_0,2022-07-04T15:36:37.582Z,,,0,V,2300.966999999946,timeout,,,307205.6000000001,307204.633,304903.663,304915.6000000001,304920.34,307221.307,,grey
Stimulus,canvas.Screen,2_83_0_1,2022-07-04T15:36:37.682Z,,,0,V,100.78900000004796,timeout,,,307306.40000000014,307305.417,307204.633,307205.80000000005,307221.307,307322.096,,grey
Reaction,canvas.Screen,2_83_0_2,2022-07-04T15:36:37.828Z,,,0,V,128.1040000001667,response,stim_detected,mousedown,307451.7000000002,307450.2000000002,307305.417,307306.7000000002,307322.096,307455.381,,grey
Trial,flow.Sequence,2_83_0,2022-07-04T15:36:37.828Z,,,0,V,2529.8600000001607,completion,,,307452.1000000001,307450.2000000002,304903.663,304915.5,304920.34,307455.381,,grey
Frame,canvas.Frame,2_83,2022-07-04T15:36:37.828Z,,,0,V,2531.8600000001607,,,,307452.40000000014,307452.2000000002,304903.663,304914.6000000001,304920.34,307455.381,,grey
Fixation,canvas.Screen,2_84_0_0,2022-07-04T15:36:39.782Z,,,1,A,1966.9839999999967,timeout,,,309406.5,309405.695,307438.704,307453.40000000014,307455.381,309422.365,,black
Stimulus,canvas.Screen,2_84_0_1,2022-07-04T15:36:39.885Z,,,1,A,101.13099999999395,timeout,,,309508.6000000001,309506.816,309405.695,309406.7000000002,309422.365,309523.496,,black
Reaction,canvas.Screen,2_84_0_2,2022-07-04T15:36:40.030Z,,,1,A,128.70400000020163,response,stim_detected,mousedown,309653.7000000002,309652.2000000002,309506.816,309508.80000000005,309523.496,309656.863,,black
Trial,flow.Sequence,2_84_0,2022-07-04T15:36:40.030Z,,,1,A,2196.8190000001923,completion,,,309654,309652.2000000002,307438.704,307453.30000000005,307455.381,309656.863,,black
Frame,canvas.Frame,2_84,2022-07-04T15:36:40.030Z,,,1,A,2198.8190000001923,,,,309654.40000000014,309654.2000000002,307438.704,307452.5,307455.381,309656.863,,black
Fixation,canvas.Screen,2_85_0_0,2022-07-04T15:36:41.752Z,,,1,A,1733.951000000001,timeout,,,311375.6000000001,311374.141,309640.186,309655.30000000005,309656.863,311390.814,,black
Stimulus,canvas.Screen,2_85_0_1,2022-07-04T15:36:41.852Z,,,1,A,100.60599999997066,timeout,,,311475.5,311474.743,311374.141,311375.90000000014,311390.814,311491.42,,black
Reaction,canvas.Screen,2_85_0_2,2022-07-04T15:36:41.968Z,,,1,A,98.78000000020256,response,stim_detected,mousedown,311591.7000000002,311590.2000000002,311474.743,311475.80000000005,311491.42,311606.374,,black
Trial,flow.Sequence,2_85_0,2022-07-04T15:36:41.968Z,,,1,A,1933.3370000001742,completion,,,311592.30000000005,311590.2000000002,309640.186,309655.2000000002,309656.863,311606.374,,black
Frame,canvas.Frame,2_85,2022-07-04T15:36:41.969Z,,,1,A,1935.5370000001276,,,,311592.6000000001,311592.40000000014,309640.186,309654.5,309656.863,311606.374,,black
Fixation,canvas.Screen,2_86_0_0,2022-07-04T15:36:43.586Z,,,1,AV,1619.1410000000033,timeout,,,313209.80000000005,313208.841,311589.859,311593.7000000002,311606.374,313225.515,,grey
Stimulus,canvas.Screen,2_86_0_1,2022-07-04T15:36:43.687Z,,,1,AV,100.13500000000931,timeout,,,313310.7000000002,313308.976,313208.841,313210,313225.515,313325.65,,grey
Reaction,canvas.Screen,2_86_0_2,2022-07-04T15:36:43.796Z,,,1,AV,92.34999999997672,response,stim_detected,mousedown,313419.6000000001,313418,313308.976,313310.90000000014,313325.65,313426.007,,grey
Trial,flow.Sequence,2_86_0,2022-07-04T15:36:43.796Z,,,1,AV,1811.6259999999893,completion,,,313419.90000000014,313418,311589.859,311593.5,311606.374,313426.007,,grey
Frame,canvas.Frame,2_86,2022-07-04T15:36:43.796Z,,,1,AV,1813.7260000000824,,,,313420.30000000005,313420.1000000001,311589.859,311592.80000000005,311606.374,313426.007,,grey
Fixation,canvas.Screen,2_87_0_0,2022-07-04T15:36:45.389Z,,,0,V,1601.7350000000442,timeout,,,315012.7000000002,315011.058,313409.33,313421.30000000005,313426.007,315027.742,,grey
Stimulus,canvas.Screen,2_87_0_1,2022-07-04T15:36:45.488Z,,,0,V,98.99699999997392,timeout,,,315111.80000000005,315110.066,315011.058,315012.90000000014,315027.742,315126.739,,grey
Reaction,canvas.Screen,2_87_0_2,2022-07-04T15:36:45.625Z,,,0,V,120.46100000018487,response,stim_detected,mousedown,315249,315247.2000000002,315110.066,315112,315126.739,315260.598,,grey
Trial,flow.Sequence,2_87_0,2022-07-04T15:36:45.625Z,,,0,V,1821.193000000203,completion,,,315249.40000000014,315247.2000000002,313409.33,313421.2000000002,313426.007,315260.598,,grey
Frame,canvas.Frame,2_87,2022-07-04T15:36:45.626Z,,,0,V,1823.4930000000168,,,,315249.7000000002,315249.5,313409.33,313420.5,313426.007,315260.598,,grey
Fixation,canvas.Screen,2_88_0_0,2022-07-04T15:36:47.389Z,,,1,A,1768.1140000000014,timeout,,,317013.1000000001,317012.032,315243.921,315250.7000000002,315260.598,317028.712,,black
Stimulus,canvas.Screen,2_88_0_1,2022-07-04T15:36:47.489Z,,,1,A,99.63199999998324,timeout,,,317112.90000000014,317111.668,317012.032,317013.30000000005,317028.712,317128.344,,black
Reaction,canvas.Screen,2_88_0_2,2022-07-04T15:36:47.642Z,,,1,A,135.75600000011036,response,stim_detected,mousedown,317265.7000000002,317264.1000000001,317111.668,317113.1000000001,317128.344,317278.62,,black
Trial,flow.Sequence,2_88_0,2022-07-04T15:36:47.642Z,,,1,A,2003.502000000095,completion,,,317266,317264.1000000001,315243.921,315250.6000000001,315260.598,317278.62,,black
Frame,canvas.Frame,2_88,2022-07-04T15:36:47.642Z,,,1,A,2005.502000000095,,,,317266.30000000005,317266.1000000001,315243.921,315249.90000000014,315260.598,317278.62,,black
Fixation,canvas.Screen,2_89_0_0,2022-07-04T15:36:49.806Z,,,1,AV,2167.0109999999986,timeout,,,319430,319428.961,317261.943,317267.40000000014,317278.62,319445.631,,grey
Stimulus,canvas.Screen,2_89_0_1,2022-07-04T15:36:49.907Z,,,1,AV,101.21399999997811,timeout,,,319531.2000000002,319530.165,319428.961,319430.2000000002,319445.631,319546.845,,grey
Reaction,canvas.Screen,2_89_0_2,2022-07-04T15:36:50.025Z,,,1,AV,100.3550000002142,response,stim_detected,mousedown,319648.7000000002,319647.2000000002,319530.165,319531.40000000014,319546.845,319663.529,,grey
Trial,flow.Sequence,2_89_0,2022-07-04T15:36:50.025Z,,,1,AV,2368.580000000191,completion,,,319649,319647.2000000002,317261.943,317267.30000000005,317278.62,319663.529,,grey
Frame,canvas.Frame,2_89,2022-07-04T15:36:50.025Z,,,1,AV,2370.580000000191,,,,319649.40000000014,319649.2000000002,317261.943,317266.5,317278.62,319663.529,,grey
Fixation,canvas.Screen,2_90_0_0,2022-07-04T15:36:51.542Z,,,0,V,1517.695000000007,timeout,,,321166.2000000002,321164.546,319646.852,319650.40000000014,319663.529,321181.224,,grey
Stimulus,canvas.Screen,2_90_0_1,2022-07-04T15:36:51.642Z,,,0,V,100.07600000000093,timeout,,,321266.1000000001,321264.623,321164.546,321166.5,321181.224,321281.3,,grey
Reaction,canvas.Screen,2_90_0_2,2022-07-04T15:36:51.958Z,,,0,V,298.8000000001048,response,stim_detected,mousedown,321581.6000000001,321580.1000000001,321264.623,321266.30000000005,321281.3,321598.152,,grey
Trial,flow.Sequence,2_90_0,2022-07-04T15:36:51.958Z,,,0,V,1916.5710000001127,completion,,,321582,321580.1000000001,319646.852,319650.40000000014,319663.529,321598.152,,grey
Frame,canvas.Frame,2_90,2022-07-04T15:36:51.958Z,,,0,V,1918.6710000002058,,,,321582.40000000014,321582.2000000002,319646.852,319649.6000000001,319663.529,321598.152,,grey
Loop,flow.Loop,2,2022-07-04T15:36:51.959Z,,,,,203518.38000000018,completion,,,321582.7000000002,321582.2000000002,118047.128,118049.6000000001,118063.82,321598.152,,
end,html.Page,3,2022-07-04T15:36:56.808Z,,,,,4833.347999999998,form submission,,,326432.30000000005,326431.5,321581.475,321582.90000000014,321598.152,326448.443,,
root,flow.Sequence,,2022-07-04T15:36:56.810Z,,,,,324647.183,completion,,,326434,326431.5,1767.638,1772.6000000000931,1784.317,326448.443,,