sender,sender_type,sender_id,timestamp,meta,,aud,condition,duration,ended_on,response,response_action,time_commit,time_end,time_render,time_run,time_show,time_switch,url,vis
Instructions,html.Page,0,2022-06-03T12:15:23.416Z,"{""labjs_version"":""20.2.4"",""labjs_build"":{""flavor"":""production"",""commit"":""f5b4a49f956347addd546a832a3327688c2c0fef""},""location"":""file:///C:/Users/Proband%207/Desktop/RTE/index.html"",""userAgent"":""Mozilla/5.0 (Windows NT 6.1; Win64; x64) AppleWebKit/537.36 (KHTML, like Gecko) Chrome/102.0.5005.63 Safari/537.36"",""platform"":""Win32"",""language"":""de-DE"",""locale"":""de"",""timeZone"":""Europe/Berlin"",""timezoneOffset"":-120,""screen_width"":1366,""screen_height"":768,""scroll_width"":1366,""scroll_height"":609,""window_innerWidth"":1366,""window_innerHeight"":657,""devicePixelRatio"":1}",,,,44725.26199999702,form submission,,,46185,46183.79999999702,1441.837,1450.199999999255,1458.538,46203.142,{},
Change Background,canvas.Screen,1,2022-06-03T12:15:26.423Z,,,,,3004.2220000000016,timeout,,,49192.099999997765,49190.68,46169.8,46185.699999999255,46203.142,49207.364,,
Fixation,canvas.Screen,2_0_0_0,2022-06-03T12:15:28.254Z,,,1,AV,1830.676999999996,timeout,,,51022.89999999851,51021.377,49190.68,49193.79999999702,49207.364,51038.041,,grey
Stimulus,canvas.Screen,2_0_0_1,2022-06-03T12:15:28.356Z,,,1,AV,103.08000000000175,timeout,,,51125.199999999255,51124.444,51021.377,51023.199999999255,51038.041,51141.121,,grey
Reaction,canvas.Screen,2_0_0_2,2022-06-03T12:15:28.626Z,,,1,AV,251.17899999702058,response,stim_detected,mousedown,51394.599999997765,51392.29999999702,51124.444,51125.29999999702,51141.121,51407.936,,grey
Trial,flow.Sequence,2_0_0,2022-06-03T12:15:28.626Z,,,1,AV,2184.9359999970184,completion,,,51395.099999997765,51392.29999999702,49190.68,49193.599999997765,49207.364,51407.936,,grey
Frame,canvas.Frame,2_0,2022-06-03T12:15:28.627Z,,,1,AV,2188.0359999985085,,,,51395.79999999702,51395.39999999851,49190.68,49192.5,49207.364,51407.936,,grey
Fixation,canvas.Screen,2_1_0_0,2022-06-03T12:15:30.576Z,,,1,A,1952.1549999999988,timeout,,,53344.79999999702,53343.407,51391.26,51397.099999997765,51407.936,53360.091,,black
Stimulus,canvas.Screen,2_1_0_1,2022-06-03T12:15:30.675Z,,,1,A,99.27700000000186,timeout,,,53443.79999999702,53442.691,53343.407,53345.099999997765,53360.091,53459.368,,black
Reaction,canvas.Screen,2_1_0_2,2022-06-03T12:15:30.861Z,,,1,A,168.7319999977626,response,stim_detected,mousedown,53629.599999997765,53628.099999997765,53442.691,53444.29999999702,53459.368,53642.829,,black
Trial,flow.Sequence,2_1_0,2022-06-03T12:15:30.862Z,,,1,A,2220.1639999977633,completion,,,53630.39999999851,53628.099999997765,51391.26,51396.89999999851,51407.936,53642.829,,black
Frame,canvas.Frame,2_1,2022-06-03T12:15:30.862Z,,,1,A,2222.7639999992534,,,,53631,53630.699999999255,51391.26,51396.099999997765,51407.936,53642.829,,black
Fixation,canvas.Screen,2_2_0_0,2022-06-03T12:15:32.692Z,,,1,A,1833.6070000000036,timeout,,,55461.099999997765,55459.766,53626.152,53632.29999999702,53642.829,55476.436,,black
Stimulus,canvas.Screen,2_2_0_1,2022-06-03T12:15:32.793Z,,,1,A,100.98500000000058,timeout,,,55561.89999999851,55560.744,55459.766,55461.39999999851,55476.436,55577.421,,black
Reaction,canvas.Screen,2_2_0_2,2022-06-03T12:15:32.959Z,,,1,A,148.5789999999979,response,stim_detected,mousedown,55727.89999999851,55726,55560.744,55562.199999999255,55577.421,55744.178,,black
Trial,flow.Sequence,2_2_0,2022-06-03T12:15:32.960Z,,,1,A,2083.171000000002,completion,,,55728.5,55726,53626.152,53632.199999999255,53642.829,55744.178,,black
Frame,canvas.Frame,2_2,2022-06-03T12:15:32.960Z,,,1,A,2085.870999999257,,,,55728.89999999851,55728.699999999255,53626.152,53631.29999999702,53642.829,55744.178,,black
Fixation,canvas.Screen,2_3_0_0,2022-06-03T12:15:34.594Z,,,1,A,1634.3559999999998,timeout,,,57362.89999999851,57361.857,55727.501,55730,55744.178,57378.534,,black
Stimulus,canvas.Screen,2_3_0_1,2022-06-03T12:15:34.695Z,,,1,A,100.1840000000011,timeout,,,57463.89999999851,57462.04,57361.857,57363.099999997765,57378.534,57478.718,,black
Reaction,canvas.Screen,2_3_0_2,2022-06-03T12:15:34.979Z,,,1,A,267.1819999985091,response,stim_detected,mousedown,57747.39999999851,57745.89999999851,57462.04,57464.199999999255,57478.718,57762.172,,black
Trial,flow.Sequence,2_3_0,2022-06-03T12:15:34.979Z,,,1,A,2001.72199999851,completion,,,57747.89999999851,57745.89999999851,55727.501,55729.89999999851,55744.178,57762.172,,black
Frame,canvas.Frame,2_3,2022-06-03T12:15:34.979Z,,,1,A,2003.8220000000001,,,,57748.099999997765,57748,55727.501,55729.099999997765,55744.178,57762.172,,black
Fixation,canvas.Screen,2_4_0_0,2022-06-03T12:15:36.895Z,,,0,V,1917.0570000000007,timeout,,,59664,59662.558,57745.495,57749.199999999255,57762.172,59679.229,,grey
Stimulus,canvas.Screen,2_4_0_1,2022-06-03T12:15:36.996Z,,,0,V,100.64400000000023,timeout,,,59764.89999999851,59763.198,59662.558,59664.39999999851,59679.229,59779.873,,grey
Reaction,canvas.Screen,2_4_0_2,2022-06-03T12:15:37.174Z,,,0,V,161.0269999985103,response,stim_detected,mousedown,59942.89999999851,59940.89999999851,59763.198,59765.199999999255,59779.873,59946.919,,grey
Trial,flow.Sequence,2_4_0,2022-06-03T12:15:37.175Z,,,0,V,2178.727999998511,completion,,,59943.39999999851,59940.89999999851,57745.495,57749.099999997765,57762.172,59946.919,,grey
Frame,canvas.Frame,2_4,2022-06-03T12:15:37.175Z,,,0,V,2181.427999997766,,,,59943.79999999702,59943.599999997765,57745.495,57748.29999999702,57762.172,59946.919,,grey
Fixation,canvas.Screen,2_5_0_0,2022-06-03T12:15:39.132Z,,,1,A,1968.7839999999997,timeout,,,61900,61899.019,59930.242,59945.699999999255,59946.919,61915.703,,black
Stimulus,canvas.Screen,2_5_0_1,2022-06-03T12:15:39.232Z,,,1,A,99.18699999999808,timeout,,,62000.099999997765,61998.214,61899.019,61900.29999999702,61915.703,62014.89,,black
Reaction,canvas.Screen,2_5_0_2,2022-06-03T12:15:39.463Z,,,1,A,214.90999999702035,response,stim_detected,mousedown,62231.39999999851,62229.79999999702,61998.214,62000.29999999702,62014.89,62248.428,,black
Trial,flow.Sequence,2_5_0,2022-06-03T12:15:39.463Z,,,1,A,2282.880999997018,completion,,,62231.79999999702,62229.79999999702,59930.242,59945.5,59946.919,62248.428,,black
Frame,canvas.Frame,2_5,2022-06-03T12:15:39.464Z,,,1,A,2284.980999998508,,,,62232.099999997765,62231.89999999851,59930.242,59944.099999997765,59946.919,62248.428,,black
Fixation,canvas.Screen,2_6_0_0,2022-06-03T12:15:41.434Z,,,0,V,1968.561999999998,timeout,,,64202.099999997765,64200.308,62231.751,62233.29999999702,62248.428,64216.99,,grey
Stimulus,canvas.Screen,2_6_0_1,2022-06-03T12:15:41.533Z,,,0,V,99.33299999999872,timeout,,,64301.099999997765,64299.647,64200.308,64202.599999997765,64216.99,64316.323,,grey
Reaction,canvas.Screen,2_6_0_2,2022-06-03T12:15:41.727Z,,,0,V,177.37699999925826,response,stim_detected,mousedown,64495.699999999255,64493.699999999255,64299.647,64301.29999999702,64316.323,64499.889,,grey
Trial,flow.Sequence,2_6_0,2022-06-03T12:15:41.728Z,,,0,V,2245.271999999255,completion,,,64496.099999997765,64493.699999999255,62231.751,62233.099999997765,62248.428,64499.889,,grey
Frame,canvas.Frame,2_6,2022-06-03T12:15:41.728Z,,,0,V,2247.87199999702,,,,64496.39999999851,64496.29999999702,62231.751,62232.29999999702,62248.428,64499.889,,grey
Fixation,canvas.Screen,2_7_0_0,2022-06-03T12:15:43.920Z,,,0,V,2203.1559999999954,timeout,,,66688.09999999776,66686.355,64483.212,64497.599999997765,64499.889,66703.045,,grey
Stimulus,canvas.Screen,2_7_0_1,2022-06-03T12:15:44.018Z,,,0,V,98.17699999999604,timeout,,,66786.09999999776,66784.546,66686.355,66688.39999999851,66703.045,66801.222,,grey
Reaction,canvas.Screen,2_7_0_2,2022-06-03T12:15:44.209Z,,,0,V,174.57799999702547,response,stim_detected,mousedown,66977.09999999776,66975.79999999702,66784.546,66786.29999999702,66801.222,66984.882,,grey
Trial,flow.Sequence,2_7_0,2022-06-03T12:15:44.209Z,,,0,V,2475.910999997017,completion,,,66977.59999999776,66975.79999999702,64483.212,64497.39999999851,64499.889,66984.882,,grey
Frame,canvas.Frame,2_7,2022-06-03T12:15:44.210Z,,,0,V,2477.810999999252,,,,66977.89999999851,66977.69999999925,64483.212,64496.599999997765,64499.889,66984.882,,grey
Fixation,canvas.Screen,2_8_0_0,2022-06-03T12:15:45.920Z,,,1,A,1718.3010000000068,timeout,,,68688.19999999925,68686.501,66968.205,66979,66984.882,68703.183,,black
Stimulus,canvas.Screen,2_8_0_1,2022-06-03T12:15:46.019Z,,,1,A,99.09399999999732,timeout,,,68787.19999999925,68785.604,68686.501,68688.5,68703.183,68802.277,,black
Reaction,canvas.Screen,2_8_0_2,2022-06-03T12:15:46.223Z,,,1,A,188.22299999999814,response,stim_detected,mousedown,68991.5,68990.5,68785.604,68787.39999999851,68802.277,69002.827,,black
Trial,flow.Sequence,2_8_0,2022-06-03T12:15:46.223Z,,,1,A,2005.6180000000022,completion,,,68991.79999999702,68990.5,66968.205,66978.79999999702,66984.882,69002.827,,black
Frame,canvas.Frame,2_8,2022-06-03T12:15:46.224Z,,,1,A,2006.917999997022,,,,68992,68991.79999999702,66968.205,66978,66984.882,69002.827,,black
Fixation,canvas.Screen,2_9_0_0,2022-06-03T12:15:48.256Z,,,1,A,2036.7699999999895,timeout,,,71024.29999999702,71022.903,68986.15,68992.69999999925,69002.827,71039.597,,black
Stimulus,canvas.Screen,2_9_0_1,2022-06-03T12:15:48.353Z,,,1,A,97.34000000001106,timeout,,,71121.29999999702,71120.265,71022.903,71024.5,71039.597,71136.937,,black
Reaction,canvas.Screen,2_9_0_2,2022-06-03T12:15:48.626Z,,,1,A,255.66299999775947,response,stim_detected,mousedown,71394.09999999776,71392.59999999776,71120.265,71121.5,71136.937,71404.445,,black
Trial,flow.Sequence,2_9_0,2022-06-03T12:15:48.626Z,,,1,A,2389.77299999776,completion,,,71394.5,71392.59999999776,68986.15,68992.69999999925,69002.827,71404.445,,black
Frame,canvas.Frame,2_9,2022-06-03T12:15:48.627Z,,,1,A,2391.77299999776,,,,71394.79999999702,71394.59999999776,68986.15,68992,69002.827,71404.445,,black
Fixation,canvas.Screen,2_10_0_0,2022-06-03T12:15:50.755Z,,,0,V,2134.506999999998,timeout,,,73523.69999999925,73522.276,71387.768,71395.89999999851,71404.445,73538.952,,grey
Stimulus,canvas.Screen,2_10_0_1,2022-06-03T12:15:50.855Z,,,0,V,100.05999999999767,timeout,,,73623.59999999776,73622.336,73522.276,73524.09999999776,73538.952,73639.012,,grey
Reaction,canvas.Screen,2_10_0_2,2022-06-03T12:15:51.042Z,,,0,V,169.58799999776238,response,stim_detected,mousedown,73810.39999999851,73808.59999999776,73622.336,73623.79999999702,73639.012,73822.722,,grey
Trial,flow.Sequence,2_10_0,2022-06-03T12:15:51.043Z,,,0,V,2404.154999997758,completion,,,73810.79999999702,73808.59999999776,71387.768,71395.89999999851,71404.445,73822.722,,grey
Frame,canvas.Frame,2_10,2022-06-03T12:15:51.043Z,,,0,V,2406.554999999993,,,,73811.09999999776,73811,71387.768,71395,71404.445,73822.722,,grey
Fixation,canvas.Screen,2_11_0_0,2022-06-03T12:15:52.556Z,,,1,A,1517.4990000000107,timeout,,,75324.59999999776,75323.545,73806.045,73812.29999999702,73822.722,75340.221,,black
Stimulus,canvas.Screen,2_11_0_1,2022-06-03T12:15:52.657Z,,,1,A,100.28699999999662,timeout,,,75425.5,75423.83,75323.545,75324.69999999925,75340.221,75440.508,,black
Reaction,canvas.Screen,2_11_0_2,2022-06-03T12:15:52.851Z,,,1,A,176.99199999999837,response,stim_detected,mousedown,75619.09999999776,75617.5,75423.83,75425.89999999851,75440.508,75623.892,,black
Trial,flow.Sequence,2_11_0,2022-06-03T12:15:52.851Z,,,1,A,1794.7780000000057,completion,,,75619.5,75617.5,73806.045,73812.09999999776,73822.722,75623.892,,black
Frame,canvas.Frame,2_11,2022-06-03T12:15:52.852Z,,,1,A,1796.8779999977705,,,,75620.09999999776,75619.59999999776,73806.045,73811.39999999851,73822.722,75623.892,,black
Fixation,canvas.Screen,2_12_0_0,2022-06-03T12:15:54.808Z,,,1,A,1968.156999999992,timeout,,,77576.5,77575.37,75607.215,75621.19999999925,75623.892,77592.049,,black
Stimulus,canvas.Screen,2_12_0_1,2022-06-03T12:15:54.908Z,,,1,A,99.89900000000489,timeout,,,77676.59999999776,77675.271,77575.37,77576.69999999925,77592.049,77691.948,,black
Reaction,canvas.Screen,2_12_0_2,2022-06-03T12:15:55.109Z,,,1,A,183.65199999776087,response,stim_detected,mousedown,77877.09999999776,77875.59999999776,77675.271,77676.69999999925,77691.948,77892.006,,black
Trial,flow.Sequence,2_12_0,2022-06-03T12:15:55.109Z,,,1,A,2251.7079999977577,completion,,,77877.39999999851,77875.59999999776,75607.215,75621.09999999776,75623.892,77892.006,,black
Frame,canvas.Frame,2_12,2022-06-03T12:15:55.109Z,,,1,A,2253.7079999977577,,,,77877.79999999702,77877.59999999776,75607.215,75620.29999999702,75623.892,77892.006,,black
Fixation,canvas.Screen,2_13_0_0,2022-06-03T12:15:57.394Z,,,0,V,2286.0880000000034,timeout,,,80162.69999999925,80161.408,77875.33,77878.79999999702,77892.006,80178.094,,grey
Stimulus,canvas.Screen,2_13_0_1,2022-06-03T12:15:57.493Z,,,0,V,98.69199999999546,timeout,,,80261.69999999925,80260.11,80161.408,80162.89999999851,80178.094,80276.786,,grey
Reaction,canvas.Screen,2_13_0_2,2022-06-03T12:15:57.693Z,,,0,V,182.6139999985171,response,stim_detected,mousedown,80461,80459.39999999851,80260.11,80262,80276.786,80477.043,,grey
Trial,flow.Sequence,2_13_0,2022-06-03T12:15:57.693Z,,,0,V,2567.393999998516,completion,,,80461.39999999851,80459.39999999851,77875.33,77878.79999999702,77892.006,80477.043,,grey
Frame,canvas.Frame,2_13,2022-06-03T12:15:57.693Z,,,0,V,2569.494000000006,,,,80461.69999999925,80461.5,77875.33,77878,77892.006,80477.043,,grey
Fixation,canvas.Screen,2_14_0_0,2022-06-03T12:15:59.963Z,,,0,V,2269.652000000002,timeout,,,82731.69999999925,82730.007,80460.366,80462.89999999851,80477.043,82746.695,,grey
Stimulus,canvas.Screen,2_14_0_1,2022-06-03T12:16:00.061Z,,,0,V,98.44599999999627,timeout,,,82829.59999999776,82828.465,82730.007,82731.89999999851,82746.695,82845.141,,grey
Reaction,canvas.Screen,2_14_0_2,2022-06-03T12:16:00.245Z,,,0,V,166.25899999850662,response,stim_detected,mousedown,83012.89999999851,83011.39999999851,82828.465,82829.89999999851,82845.141,83028.746,,grey
Trial,flow.Sequence,2_14_0,2022-06-03T12:16:00.245Z,,,0,V,2534.3569999985048,completion,,,83013.29999999702,83011.39999999851,80460.366,80462.79999999702,80477.043,83028.746,,grey
Frame,canvas.Frame,2_14,2022-06-03T12:16:00.245Z,,,0,V,2536.3569999985048,,,,83013.59999999776,83013.39999999851,80460.366,80461.89999999851,80477.043,83028.746,,grey
Fixation,canvas.Screen,2_15_0_0,2022-06-03T12:16:02.463Z,,,0,V,2217.3150000000023,timeout,,,85230.79999999702,85229.389,83012.069,83015.09999999776,83028.746,85246.061,,grey
Stimulus,canvas.Screen,2_15_0_1,2022-06-03T12:16:02.563Z,,,0,V,100.89999999999418,timeout,,,85331.69999999925,85330.282,85229.389,85231,85246.061,85346.961,,grey
Reaction,canvas.Screen,2_15_0_2,2022-06-03T12:16:02.755Z,,,0,V,174.63899999776913,response,stim_detected,mousedown,85523.29999999702,85521.59999999776,85330.282,85332,85346.961,85547.081,,grey
Trial,flow.Sequence,2_15_0,2022-06-03T12:16:02.755Z,,,0,V,2492.8539999977656,completion,,,85523.69999999925,85521.59999999776,83012.069,83015,83028.746,85547.081,,grey
Frame,canvas.Frame,2_15,2022-06-03T12:16:02.756Z,,,0,V,2495.0539999970206,,,,85524.09999999776,85523.79999999702,83012.069,83013.79999999702,83028.746,85547.081,,grey
Fixation,canvas.Screen,2_16_0_0,2022-06-03T12:16:05.165Z,,,1,A,2401.329999999987,timeout,,,87933,87931.735,85513.727,85525.19999999925,85547.081,87948.411,,black
Stimulus,canvas.Screen,2_16_0_1,2022-06-03T12:16:05.265Z,,,1,A,99.50900000000547,timeout,,,88032.89999999851,88031.248,87931.735,87933.89999999851,87948.411,88047.92,,black
Reaction,canvas.Screen,2_16_0_2,2022-06-03T12:16:05.451Z,,,1,A,170.2799999992567,response,stim_detected,mousedown,88219.69999999925,88218.19999999925,88031.248,88033.09999999776,88047.92,88232.164,,black
Trial,flow.Sequence,2_16_0,2022-06-03T12:16:05.452Z,,,1,A,2671.1189999992494,completion,,,88220.09999999776,88218.19999999925,85513.727,85525.09999999776,85547.081,88232.164,,black
Frame,canvas.Frame,2_16,2022-06-03T12:16:05.452Z,,,1,A,2673.1189999992494,,,,88220.39999999851,88220.19999999925,85513.727,85524.19999999925,85547.081,88232.164,,black
Fixation,canvas.Screen,2_17_0_0,2022-06-03T12:16:07.333Z,,,1,A,1883.8739999999962,timeout,,,90101,90099.366,88215.487,88221.39999999851,88232.164,90116.038,,black
Stimulus,canvas.Screen,2_17_0_1,2022-06-03T12:16:07.433Z,,,1,A,100.78200000000652,timeout,,,90201.09999999776,90200.142,90099.366,90101.19999999925,90116.038,90216.82,,black
Reaction,canvas.Screen,2_17_0_2,2022-06-03T12:16:07.617Z,,,1,A,166.37999999924796,response,stim_detected,mousedown,90385.39999999851,90383.19999999925,90200.142,90201.29999999702,90216.82,90400.275,,black
Trial,flow.Sequence,2_17_0,2022-06-03T12:16:07.618Z,,,1,A,2151.0359999992506,completion,,,90385.79999999702,90383.19999999925,88215.487,88221.29999999702,88232.164,90400.275,,black
Frame,canvas.Frame,2_17,2022-06-03T12:16:07.618Z,,,1,A,2153.7359999985056,,,,90386.09999999776,90385.89999999851,88215.487,88220.59999999776,88232.164,90400.275,,black
Fixation,canvas.Screen,2_18_0_0,2022-06-03T12:16:09.384Z,,,1,AV,1766.794000000009,timeout,,,92152.09999999776,92150.4,90383.598,90387.19999999925,90400.275,92167.069,,grey
Stimulus,canvas.Screen,2_18_0_1,2022-06-03T12:16:09.485Z,,,1,AV,101.15600000000268,timeout,,,92253.09999999776,92251.546,92150.4,92152.29999999702,92167.069,92268.225,,grey
Reaction,canvas.Screen,2_18_0_2,2022-06-03T12:16:09.629Z,,,1,AV,127.97499999924912,response,stim_detected,mousedown,92397.69999999925,92396.19999999925,92251.546,92253.19999999925,92268.225,92401.535,,grey
Trial,flow.Sequence,2_18_0,2022-06-03T12:16:09.630Z,,,1,AV,1995.9249999992608,completion,,,92398.09999999776,92396.19999999925,90383.598,90387,90400.275,92401.535,,grey
Frame,canvas.Frame,2_18,2022-06-03T12:16:09.630Z,,,1,AV,1997.9249999992608,,,,92398.39999999851,92398.19999999925,90383.598,90386.19999999925,90400.275,92401.535,,grey
Fixation,canvas.Screen,2_19_0_0,2022-06-03T12:16:11.637Z,,,1,A,2018.5880000000034,timeout,,,94405.19999999925,94403.441,92384.858,92399.39999999851,92401.535,94420.123,,black
Stimulus,canvas.Screen,2_19_0_1,2022-06-03T12:16:11.736Z,,,1,A,99.3979999999865,timeout,,,94504.09999999776,94502.845,94403.441,94405.5,94420.123,94519.521,,black
Reaction,canvas.Screen,2_19_0_2,2022-06-03T12:16:11.923Z,,,1,A,170.67899999926158,response,stim_detected,mousedown,94691.69999999925,94690.19999999925,94502.845,94504.39999999851,94519.521,94703.081,,black
Trial,flow.Sequence,2_19_0,2022-06-03T12:16:11.924Z,,,1,A,2288.6649999992514,completion,,,94692,94690.19999999925,92384.858,92399.29999999702,92401.535,94703.081,,black
Frame,canvas.Frame,2_19,2022-06-03T12:16:11.924Z,,,1,A,2290.6649999992514,,,,94692.39999999851,94692.19999999925,92384.858,92398.5,92401.535,94703.081,,black
Fixation,canvas.Screen,2_20_0_0,2022-06-03T12:16:13.904Z,,,1,AV,1984.702999999994,timeout,,,96672.29999999702,96671.106,94686.404,94693.19999999925,94703.081,96687.784,,grey
Stimulus,canvas.Screen,2_20_0_1,2022-06-03T12:16:14.004Z,,,1,AV,99.50100000000384,timeout,,,96772.09999999776,96770.612,96671.106,96672.59999999776,96687.784,96787.285,,grey
Reaction,canvas.Screen,2_20_0_2,2022-06-03T12:16:14.147Z,,,1,AV,126.81499999776133,response,stim_detected,mousedown,96915.69999999925,96914.09999999776,96770.612,96772.29999999702,96787.285,96921.196,,grey
Trial,flow.Sequence,2_20_0,2022-06-03T12:16:14.148Z,,,1,AV,2211.0189999977592,completion,,,96916.09999999776,96914.09999999776,94686.404,94693.19999999925,94703.081,96921.196,,grey
Frame,canvas.Frame,2_20,2022-06-03T12:16:14.148Z,,,1,AV,2213.218999997014,,,,96916.5,96916.29999999702,94686.404,94692.5,94703.081,96921.196,,grey
Fixation,canvas.Screen,2_21_0_0,2022-06-03T12:16:15.788Z,,,1,AV,1650.593000000008,timeout,,,98556.29999999702,98555.116,96904.519,96917.69999999925,96921.196,98571.789,,grey
Stimulus,canvas.Screen,2_21_0_1,2022-06-03T12:16:15.889Z,,,1,AV,100.55999999999767,timeout,,,98657.29999999702,98655.671,98555.116,98556.5,98571.789,98672.349,,grey
Reaction,canvas.Screen,2_21_0_2,2022-06-03T12:16:16.057Z,,,1,AV,151.65099999999802,response,stim_detected,mousedown,98825.5,98824,98655.671,98657.5,98672.349,98839.146,,grey
Trial,flow.Sequence,2_21_0,2022-06-03T12:16:16.058Z,,,1,AV,1902.8040000000037,completion,,,98825.79999999702,98824,96904.519,96917.59999999776,96921.196,98839.146,,grey
Frame,canvas.Frame,2_21,2022-06-03T12:16:16.058Z,,,1,AV,1904.8040000000037,,,,98826.19999999925,98826,96904.519,96916.79999999702,96921.196,98839.146,,grey
Fixation,canvas.Screen,2_22_0_0,2022-06-03T12:16:18.540Z,,,0,V,2484.5560000000114,timeout,,,101308.39999999851,101307.027,98822.469,98827.19999999925,98839.146,101323.702,,grey
Stimulus,canvas.Screen,2_22_0_1,2022-06-03T12:16:18.640Z,,,0,V,100.21099999999569,timeout,,,101408.5,101407.237,101307.027,101308.79999999702,101323.702,101423.913,,grey
Reaction,canvas.Screen,2_22_0_2,2022-06-03T12:16:18.847Z,,,0,V,189.98699999850942,response,stim_detected,mousedown,101615.39999999851,101613.89999999851,101407.237,101408.59999999776,101423.913,101624.274,,grey
Trial,flow.Sequence,2_22_0,2022-06-03T12:16:18.848Z,,,0,V,2774.7539999985165,completion,,,101615.79999999702,101613.89999999851,98822.469,98827.09999999776,98839.146,101624.274,,grey
Frame,canvas.Frame,2_22,2022-06-03T12:16:18.848Z,,,0,V,2776.8540000000066,,,,101616.09999999776,101616,98822.469,98826.29999999702,98839.146,101624.274,,grey
Fixation,canvas.Screen,2_23_0_0,2022-06-03T12:16:21.026Z,,,1,A,2185.607999999993,timeout,,,103794.59999999776,103793.198,101607.597,101617.19999999925,101624.274,103809.882,,black
Stimulus,canvas.Screen,2_23_0_1,2022-06-03T12:16:21.125Z,,,1,A,98.83699999999953,timeout,,,103893.39999999851,103892.045,103793.198,103794.79999999702,103809.882,103908.719,,black
Reaction,canvas.Screen,2_23_0_2,2022-06-03T12:16:21.272Z,,,1,A,130.18099999851256,response,stim_detected,mousedown,104040.39999999851,104038.89999999851,103892.045,103893.59999999776,103908.719,104042.549,,black
Trial,flow.Sequence,2_23_0,2022-06-03T12:16:21.272Z,,,1,A,2414.625999998505,completion,,,104040.79999999702,104038.89999999851,101607.597,101617.09999999776,101624.274,104042.549,,black
Frame,canvas.Frame,2_23,2022-06-03T12:16:21.273Z,,,1,A,2416.525999997015,,,,104041,104040.79999999702,101607.597,101616.29999999702,101624.274,104042.549,,black
Fixation,canvas.Screen,2_24_0_0,2022-06-03T12:16:23.076Z,,,0,V,1817.3110000000015,timeout,,,105844.69999999925,105843.187,104025.872,104042.09999999776,104042.549,105859.86,,grey
Stimulus,canvas.Screen,2_24_0_1,2022-06-03T12:16:23.177Z,,,0,V,100.61299999999756,timeout,,,105945.5,105943.796,105843.187,105844.89999999851,105859.86,105960.473,,grey
Reaction,canvas.Screen,2_24_0_2,2022-06-03T12:16:23.377Z,,,0,V,183.32699999702163,response,stim_detected,mousedown,106145.5,106143.79999999702,105943.796,105945.69999999925,105960.473,106160.588,,grey
Trial,flow.Sequence,2_24_0,2022-06-03T12:16:23.378Z,,,0,V,2101.2509999970207,completion,,,106145.89999999851,106143.79999999702,104025.872,104042,104042.549,106160.588,,grey
Frame,canvas.Frame,2_24,2022-06-03T12:16:23.378Z,,,0,V,2103.451000000001,,,,106146.19999999925,106146,104025.872,104041.19999999925,104042.549,106160.588,,grey
Fixation,canvas.Screen,2_25_0_0,2022-06-03T12:16:25.695Z,,,0,V,2318.535999999993,timeout,,,108463.59999999776,108462.444,106143.911,106147.09999999776,106160.588,108479.124,,grey
Stimulus,canvas.Screen,2_25_0_1,2022-06-03T12:16:25.794Z,,,0,V,99.09300000000803,timeout,,,108562.59999999776,108561.544,108462.444,108463.89999999851,108479.124,108578.217,,grey
Reaction,canvas.Screen,2_25_0_2,2022-06-03T12:16:25.937Z,,,0,V,125.78299999999581,response,stim_detected,mousedown,108705.69999999925,108704,108561.544,108562.89999999851,108578.217,108728.916,,grey
Trial,flow.Sequence,2_25_0,2022-06-03T12:16:25.938Z,,,0,V,2543.4119999999966,completion,,,108706.09999999776,108704,106143.911,106147.09999999776,106160.588,108728.916,,grey
Frame,canvas.Frame,2_25,2022-06-03T12:16:25.938Z,,,0,V,2545.7119999970164,,,,108706.39999999851,108706.29999999702,106143.911,106146.39999999851,106160.588,108728.916,,grey
Fixation,canvas.Screen,2_26_0_0,2022-06-03T12:16:27.514Z,,,1,AV,1568.6000000000058,timeout,,,110281.79999999702,110280.829,108695.562,108707.5,108728.916,110297.516,,grey
Stimulus,canvas.Screen,2_26_0_1,2022-06-03T12:16:27.612Z,,,1,AV,98.47999999999593,timeout,,,110380.69999999925,110379.326,110280.829,110282.09999999776,110297.516,110395.996,,grey
Reaction,canvas.Screen,2_26_0_2,2022-06-03T12:16:27.747Z,,,1,AV,117.9039999985107,response,stim_detected,mousedown,110515.39999999851,110513.89999999851,110379.326,110381,110395.996,110530.14,,grey
Trial,flow.Sequence,2_26_0,2022-06-03T12:16:27.748Z,,,1,AV,1784.9839999985124,completion,,,110515.79999999702,110513.89999999851,108695.562,108707.29999999702,108728.916,110530.14,,grey
Frame,canvas.Frame,2_26,2022-06-03T12:16:27.748Z,,,1,AV,1787.0840000000026,,,,110516.09999999776,110516,108695.562,108706.5,108728.916,110530.14,,grey
Fixation,canvas.Screen,2_27_0_0,2022-06-03T12:16:29.847Z,,,0,V,2101.024999999994,timeout,,,112615.69999999925,112614.49,110513.462,110517.19999999925,110530.14,112631.165,,grey
Stimulus,canvas.Screen,2_27_0_1,2022-06-03T12:16:29.948Z,,,0,V,100.36600000000908,timeout,,,112715.79999999702,112714.854,112614.49,112616,112631.165,112731.531,,grey
Reaction,canvas.Screen,2_27_0_2,2022-06-03T12:16:30.128Z,,,0,V,163.2689999970171,response,stim_detected,mousedown,112896.19999999925,112894.79999999702,112714.854,112716.09999999776,112731.531,112898.351,,grey
Trial,flow.Sequence,2_27_0,2022-06-03T12:16:30.128Z,,,0,V,2364.6599999970203,completion,,,112896.59999999776,112894.79999999702,110513.462,110517.09999999776,110530.14,112898.351,,grey
Frame,canvas.Frame,2_27,2022-06-03T12:16:30.129Z,,,0,V,2366.5599999992555,,,,112896.89999999851,112896.69999999925,110513.462,110516.29999999702,110530.14,112898.351,,grey
Fixation,canvas.Screen,2_28_0_0,2022-06-03T12:16:32.250Z,,,1,AV,2134.952000000005,timeout,,,115017.79999999702,115016.624,112881.674,112897.89999999851,112898.351,115033.303,,grey
Stimulus,canvas.Screen,2_28_0_1,2022-06-03T12:16:32.350Z,,,1,AV,99.51600000000326,timeout,,,115117.79999999702,115116.144,115016.624,115018,115033.303,115132.819,,grey
Reaction,canvas.Screen,2_28_0_2,2022-06-03T12:16:32.486Z,,,1,AV,119.8809999992518,response,stim_detected,mousedown,115254.39999999851,115252.69999999925,115116.144,115118.19999999925,115132.819,115266.545,,grey
Trial,flow.Sequence,2_28_0,2022-06-03T12:16:32.486Z,,,1,AV,2354.34899999926,completion,,,115254.79999999702,115252.69999999925,112881.674,112897.79999999702,112898.351,115266.545,,grey
Frame,canvas.Frame,2_28,2022-06-03T12:16:32.487Z,,,1,AV,2356.548999998515,,,,115255.09999999776,115254.89999999851,112881.674,112897,112898.351,115266.545,,grey
Fixation,canvas.Screen,2_29_0_0,2022-06-03T12:16:34.636Z,,,0,V,2152.603000000003,timeout,,,117404,117402.462,115249.868,115256.19999999925,115266.545,117419.148,,grey
Stimulus,canvas.Screen,2_29_0_1,2022-06-03T12:16:34.735Z,,,0,V,98.9719999999943,timeout,,,117502.89999999851,117501.442,117402.462,117404.29999999702,117419.148,117518.12,,grey
Reaction,canvas.Screen,2_29_0_2,2022-06-03T12:16:34.896Z,,,0,V,144.47999999776948,response,stim_detected,mousedown,117664.29999999702,117662.59999999776,117501.442,117503.09999999776,117518.12,117668.149,,grey
Trial,flow.Sequence,2_29_0,2022-06-03T12:16:34.897Z,,,0,V,2396.0549999977666,completion,,,117664.79999999702,117662.59999999776,115249.868,115256.19999999925,115266.545,117668.149,,grey
Frame,canvas.Frame,2_29,2022-06-03T12:16:34.897Z,,,0,V,2398.3549999985116,,,,117665.09999999776,117664.89999999851,115249.868,115255.29999999702,115266.545,117668.149,,grey
Fixation,canvas.Screen,2_30_0_0,2022-06-03T12:16:36.386Z,,,0,V,1500.726999999999,timeout,,,119154.09999999776,119152.201,117651.472,117666.09999999776,117668.149,119168.876,,grey
Stimulus,canvas.Screen,2_30_0_1,2022-06-03T12:16:36.486Z,,,0,V,100.4149999999936,timeout,,,119254.09999999776,119252.612,119152.201,119154.59999999776,119168.876,119269.291,,grey
Reaction,canvas.Screen,2_30_0_2,2022-06-03T12:16:36.636Z,,,0,V,133.3089999977674,response,stim_detected,mousedown,119404.39999999851,119402.59999999776,119252.612,119254.39999999851,119269.291,119419.267,,grey
Trial,flow.Sequence,2_30_0,2022-06-03T12:16:36.636Z,,,0,V,1734.45099999776,completion,,,119404.69999999925,119402.59999999776,117651.472,117666,117668.149,119419.267,,grey
Frame,canvas.Frame,2_30,2022-06-03T12:16:36.637Z,,,0,V,1736.750999998505,,,,119405,119404.89999999851,117651.472,117665.29999999702,117668.149,119419.267,,grey
Fixation,canvas.Screen,2_31_0_0,2022-06-03T12:16:38.638Z,,,0,V,2002.1619999999966,timeout,,,121406,121404.745,119402.591,119406.19999999925,119419.267,121421.429,,grey
Stimulus,canvas.Screen,2_31_0_1,2022-06-03T12:16:38.737Z,,,0,V,98.875,timeout,,,121505,121503.63,121404.745,121406.19999999925,121421.429,121520.304,,grey
Reaction,canvas.Screen,2_31_0_2,2022-06-03T12:16:38.939Z,,,0,V,185.19599999999627,response,stim_detected,mousedown,121707,121705.5,121503.63,121505.19999999925,121520.304,121720.814,,grey
Trial,flow.Sequence,2_31_0,2022-06-03T12:16:38.939Z,,,0,V,2286.232999999993,completion,,,121707.39999999851,121705.5,119402.591,119406,119419.267,121720.814,,grey
Frame,canvas.Frame,2_31,2022-06-03T12:16:38.939Z,,,0,V,2288.232999999993,,,,121707.59999999776,121707.5,119402.591,119405.29999999702,119419.267,121720.814,,grey
Fixation,canvas.Screen,2_32_0_0,2022-06-03T12:16:40.557Z,,,1,A,1617.2320000000036,timeout,,,123323.09999999776,123321.373,121704.137,121708.59999999776,121720.814,123338.046,,black
Stimulus,canvas.Screen,2_32_0_1,2022-06-03T12:16:40.657Z,,,1,A,100.22599999999511,timeout,,,123423.09999999776,123421.598,123321.373,123323.39999999851,123338.046,123438.272,,black
Reaction,canvas.Screen,2_32_0_2,2022-06-03T12:16:40.873Z,,,1,A,199.2280000000028,response,stim_detected,mousedown,123639,123637.5,123421.598,123423.39999999851,123438.272,123655.376,,black
Trial,flow.Sequence,2_32_0,2022-06-03T12:16:40.873Z,,,1,A,1916.6860000000015,completion,,,123639.39999999851,123637.5,121704.137,121708.59999999776,121720.814,123655.376,,black
Frame,canvas.Frame,2_32,2022-06-03T12:16:40.874Z,,,1,A,1918.7859999977663,,,,123639.79999999702,123639.59999999776,121704.137,121707.89999999851,121720.814,123655.376,,black
Fixation,canvas.Screen,2_33_0_0,2022-06-03T12:16:42.493Z,,,1,A,1619.076000000001,timeout,,,125259.29999999702,125257.761,123638.699,123640.79999999702,123655.376,125274.452,,black
Stimulus,canvas.Screen,2_33_0_1,2022-06-03T12:16:42.591Z,,,1,A,98.54699999999139,timeout,,,125357.29999999702,125356.324,125257.761,125259.59999999776,125274.452,125372.999,,black
Reaction,canvas.Screen,2_33_0_2,2022-06-03T12:16:42.893Z,,,1,A,284.4009999985137,response,stim_detected,mousedown,125658.89999999851,125657.39999999851,125356.324,125357.39999999851,125372.999,125673.396,,black
Trial,flow.Sequence,2_33_0,2022-06-03T12:16:42.893Z,,,1,A,2002.023999998506,completion,,,125659.19999999925,125657.39999999851,123638.699,123640.69999999925,123655.376,125673.396,,black
Frame,canvas.Frame,2_33,2022-06-03T12:16:42.894Z,,,1,A,2004.023999998506,,,,125659.5,125659.39999999851,123638.699,123640,123655.376,125673.396,,black
Fixation,canvas.Screen,2_34_0_0,2022-06-03T12:16:44.543Z,,,1,AV,1651.0300000000134,timeout,,,127309.29999999702,127307.749,125656.719,125660.5,125673.396,127324.426,,grey
Stimulus,canvas.Screen,2_34_0_1,2022-06-03T12:16:44.643Z,,,1,AV,99.94199999999546,timeout,,,127409.19999999925,127407.692,127307.749,127309.39999999851,127324.426,127424.368,,grey
Reaction,canvas.Screen,2_34_0_2,2022-06-03T12:16:44.791Z,,,1,AV,131.1319999999978,response,stim_detected,mousedown,127557.09999999776,127555.5,127407.692,127409.39999999851,127424.368,127574.639,,grey
Trial,flow.Sequence,2_34_0,2022-06-03T12:16:44.791Z,,,1,AV,1882.1040000000066,completion,,,127557.5,127555.5,125656.719,125660.5,125673.396,127574.639,,grey
Frame,canvas.Frame,2_34,2022-06-03T12:16:44.792Z,,,1,AV,1884.2039999977715,,,,127557.79999999702,127557.59999999776,125656.719,125659.69999999925,125673.396,127574.639,,grey
Fixation,canvas.Screen,2_35_0_0,2022-06-03T12:16:47.179Z,,,1,A,2385.4310000000114,timeout,,,129944.69999999925,129943.389,127557.962,127558.89999999851,127574.639,129960.07,,black
Stimulus,canvas.Screen,2_35_0_1,2022-06-03T12:16:47.278Z,,,1,A,99.30599999999686,timeout,,,130044.39999999851,130042.7,129943.389,129944.89999999851,129960.07,130059.376,,black
Reaction,canvas.Screen,2_35_0_2,2022-06-03T12:16:47.508Z,,,1,A,213.02399999850604,response,stim_detected,mousedown,130274.19999999925,130272.39999999851,130042.7,130044.59999999776,130059.376,130276.4,,black
Trial,flow.Sequence,2_35_0,2022-06-03T12:16:47.508Z,,,1,A,2697.7609999985143,completion,,,130274.5,130272.39999999851,127557.962,127558.69999999925,127574.639,130276.4,,black
Frame,canvas.Frame,2_35,2022-06-03T12:16:47.509Z,,,1,A,2699.9609999977692,,,,130274.79999999702,130274.59999999776,127557.962,127558,127574.639,130276.4,,black
Fixation,canvas.Screen,2_36_0_0,2022-06-03T12:16:49.113Z,,,0,V,1618.5950000000012,timeout,,,131879.5,131878.309,130259.723,130275.79999999702,130276.4,131894.995,,grey
Stimulus,canvas.Screen,2_36_0_1,2022-06-03T12:16:49.212Z,,,0,V,99.11000000001513,timeout,,,131977.8999999985,131977.429,131878.309,131879.69999999925,131894.995,131994.105,,grey
Reaction,canvas.Screen,2_36_0_2,2022-06-03T12:16:49.405Z,,,0,V,175.2949999984994,response,stim_detected,mousedown,132170.79999999702,132169.3999999985,131977.429,131978,131994.105,132177.591,,grey
Trial,flow.Sequence,2_36_0,2022-06-03T12:16:49.405Z,,,0,V,1892.9999999985157,completion,,,132171.19999999925,132169.3999999985,130259.723,130275.69999999925,130276.4,132177.591,,grey
Frame,canvas.Frame,2_36,2022-06-03T12:16:49.406Z,,,0,V,1894.9999999985157,,,,132171.59999999776,132171.3999999985,130259.723,130275,130276.4,132177.591,,grey
Fixation,canvas.Screen,2_37_0_0,2022-06-03T12:16:50.899Z,,,0,V,1503.1840000000084,timeout,,,133665.3999999985,133664.074,132160.915,132172.5,132177.591,133680.775,,grey
Stimulus,canvas.Screen,2_37_0_1,2022-06-03T12:16:50.998Z,,,0,V,97.83600000001024,timeout,,,133763.59999999776,133761.935,133664.074,133665.69999999925,133680.775,133778.611,,grey
Reaction,canvas.Screen,2_37_0_2,2022-06-03T12:16:51.238Z,,,0,V,223.68899999701534,response,stim_detected,mousedown,134004.29999999702,134002.29999999702,133761.935,133763.8999999985,133778.611,134012.176,,grey
Trial,flow.Sequence,2_37_0,2022-06-03T12:16:51.239Z,,,0,V,1824.708999997034,completion,,,134004.69999999925,134002.29999999702,132160.915,132172.5,132177.591,134012.176,,grey
Frame,canvas.Frame,2_37,2022-06-03T12:16:51.239Z,,,0,V,1827.308999998524,,,,134005,134004.8999999985,132160.915,132171.79999999702,132177.591,134012.176,,grey
Fixation,canvas.Screen,2_38_0_0,2022-06-03T12:16:53.149Z,,,1,AV,1919.0939999999828,timeout,,,135915.5,135914.583,133995.499,134006,134012.176,135931.27,,grey
Stimulus,canvas.Screen,2_38_0_1,2022-06-03T12:16:53.248Z,,,1,AV,98.73300000000745,timeout,,,136014.19999999925,136013.327,135914.583,135915.69999999925,135931.27,136030.003,,grey
Reaction,canvas.Screen,2_38_0_2,2022-06-03T12:16:53.390Z,,,1,AV,124.99700000000303,response,stim_detected,mousedown,136155.79999999702,136155,136013.327,136014.19999999925,136030.003,136163.548,,grey
Trial,flow.Sequence,2_38_0,2022-06-03T12:16:53.390Z,,,1,AV,2142.8239999999932,completion,,,136156.09999999776,136155,133995.499,134005.8999999985,134012.176,136163.548,,grey
Frame,canvas.Frame,2_38,2022-06-03T12:16:53.390Z,,,1,AV,2143.923999997758,,,,136156.19999999925,136156.09999999776,133995.499,134005.19999999925,134012.176,136163.548,,grey
Fixation,canvas.Screen,2_39_0_0,2022-06-03T12:16:55.167Z,,,1,AV,1784.3409999999858,timeout,,,137932.5,137931.213,136146.872,136156.69999999925,136163.548,137947.889,,grey
Stimulus,canvas.Screen,2_39_0_1,2022-06-03T12:16:55.267Z,,,1,AV,100.20600000000559,timeout,,,138032.5,138031.418,137931.213,137932.8999999985,137947.889,138048.095,,grey
Reaction,canvas.Screen,2_39_0_2,2022-06-03T12:16:55.271Z,,,1,AV,2.7819999992498197,response,stim_detected,mousedown,138036.69999999925,138034.19999999925,138031.418,138032.69999999925,,138064.872,,grey
Trial,flow.Sequence,2_39_0,2022-06-03T12:16:55.271Z,,,1,AV,1870.6519999992452,completion,,,138037.29999999702,138034.19999999925,136146.872,136156.69999999925,136163.548,138064.872,,grey
Frame,canvas.Frame,2_39,2022-06-03T12:16:55.272Z,,,1,AV,1873.8519999985,,,,138037.69999999925,138037.3999999985,136146.872,136156.19999999925,136163.548,138064.872,,grey
Fixation,canvas.Screen,2_40_0_0,2022-06-03T12:16:57.351Z,,,1,AV,2066.9139999999898,timeout,,,140116.69999999925,140115.117,138048.095,138039.79999999702,138064.872,140131.786,,grey
Stimulus,canvas.Screen,2_40_0_1,2022-06-03T12:16:57.452Z,,,1,AV,101.30600000001141,timeout,,,140217.69999999925,140216.4,140115.117,140117,140131.786,140233.092,,grey
Reaction,canvas.Screen,2_40_0_2,2022-06-03T12:16:57.607Z,,,1,AV,138.3079999985057,response,stim_detected,mousedown,140372.79999999702,140371.3999999985,140216.4,140217.8999999985,140233.092,140383.012,,grey
Trial,flow.Sequence,2_40_0,2022-06-03T12:16:57.607Z,,,1,AV,2306.527999998507,completion,,,140373.29999999702,140371.3999999985,138048.095,138039.59999999776,138064.872,140383.012,,grey
Frame,canvas.Frame,2_40,2022-06-03T12:16:57.608Z,,,1,AV,2308.627999999997,,,,140373.69999999925,140373.5,138048.095,138038,138064.872,140383.012,,grey
Fixation,canvas.Screen,2_41_0_0,2022-06-03T12:16:59.204Z,,,1,A,1601.8559999999998,timeout,,,141969.69999999925,141968.183,140366.335,140374.8999999985,140383.012,141984.868,,black
Stimulus,canvas.Screen,2_41_0_1,2022-06-03T12:16:59.302Z,,,1,A,98.85100000002421,timeout,,,142068.5,142067.046,141968.183,141969.8999999985,141984.868,142083.719,,black
Reaction,canvas.Screen,2_41_0_2,2022-06-03T12:16:59.592Z,,,1,A,272.88099999775295,response,stim_detected,mousedown,142358.09999999776,142356.59999999776,142067.046,142068.59999999776,142083.719,142367.67,,black
Trial,flow.Sequence,2_41_0,2022-06-03T12:16:59.592Z,,,1,A,1973.587999997777,completion,,,142358.3999999985,142356.59999999776,140366.335,140374.79999999702,140383.012,142367.67,,black
Frame,canvas.Frame,2_41,2022-06-03T12:16:59.593Z,,,1,A,1975.587999997777,,,,142358.79999999702,142358.59999999776,140366.335,140374,140383.012,142367.67,,black
Fixation,canvas.Screen,2_42_0_0,2022-06-03T12:17:01.155Z,,,1,AV,1568.4309999999823,timeout,,,143920.79999999702,143919.416,142350.993,142360,142367.67,143936.101,,grey
Stimulus,canvas.Screen,2_42_0_1,2022-06-03T12:17:01.254Z,,,1,AV,99.14500000001863,timeout,,,144019.69999999925,144018.571,143919.416,143921.09999999776,143936.101,144035.246,,grey
Reaction,canvas.Screen,2_42_0_2,2022-06-03T12:17:01.423Z,,,1,AV,151.75399999998626,response,stim_detected,mousedown,144188.59999999776,144187,144018.571,144019.8999999985,144035.246,144202.162,,grey
Trial,flow.Sequence,2_42_0,2022-06-03T12:17:01.423Z,,,1,AV,1819.3299999999872,completion,,,144188.8999999985,144187,142350.993,142359.79999999702,142367.67,144202.162,,grey
Frame,canvas.Frame,2_42,2022-06-03T12:17:01.423Z,,,1,AV,1821.3299999999872,,,,144189.19999999925,144189,142350.993,142359,142367.67,144202.162,,grey
Fixation,canvas.Screen,2_43_0_0,2022-06-03T12:17:03.541Z,,,0,V,2119.8579999999783,timeout,,,146306.8999999985,146305.329,144185.486,144190.19999999925,144202.162,146322.02,,grey
Stimulus,canvas.Screen,2_43_0_1,2022-06-03T12:17:03.639Z,,,0,V,98.35599999999977,timeout,,,146404.8999999985,146403.699,146305.329,146307.09999999776,146322.02,146420.376,,grey
Reaction,canvas.Screen,2_43_0_2,2022-06-03T12:17:03.807Z,,,0,V,151.5239999985206,response,stim_detected,mousedown,146573.29999999702,146571.8999999985,146403.699,146405.09999999776,146420.376,146587.124,,grey
Trial,flow.Sequence,2_43_0,2022-06-03T12:17:03.808Z,,,0,V,2369.7379999984987,completion,,,146573.69999999925,146571.8999999985,144185.486,144190.09999999776,144202.162,146587.124,,grey
Frame,canvas.Frame,2_43,2022-06-03T12:17:03.808Z,,,0,V,2371.6379999970086,,,,146574,146573.79999999702,144185.486,144189.3999999985,144202.162,146587.124,,grey
Fixation,canvas.Screen,2_44_0_0,2022-06-03T12:17:06.124Z,,,1,AV,2318.720000000001,timeout,,,148890,148889.163,146570.447,146575.19999999925,146587.124,148905.844,,grey
Stimulus,canvas.Screen,2_44_0_1,2022-06-03T12:17:06.224Z,,,1,AV,99.1140000000014,timeout,,,148990,148988.284,148889.163,148890.19999999925,148905.844,149004.958,,grey
Reaction,canvas.Screen,2_44_0_2,2022-06-03T12:17:06.383Z,,,1,AV,143.04199999998673,response,stim_detected,mousedown,149149.3999999985,149148,148988.284,148990.19999999925,149004.958,149155.436,,grey
Trial,flow.Sequence,2_44_0,2022-06-03T12:17:06.384Z,,,1,AV,2560.8759999999893,completion,,,149149.79999999702,149148,146570.447,146575.09999999776,146587.124,149155.436,,grey
Frame,canvas.Frame,2_44,2022-06-03T12:17:06.384Z,,,1,AV,2562.775999998499,,,,149150.09999999776,149149.8999999985,146570.447,146574.19999999925,146587.124,149155.436,,grey
Fixation,canvas.Screen,2_45_0_0,2022-06-03T12:17:08.510Z,,,1,AV,2136.287000000011,timeout,,,151276,151275.034,149138.759,149151.19999999925,149155.436,151291.723,,grey
Stimulus,canvas.Screen,2_45_0_1,2022-06-03T12:17:08.609Z,,,1,AV,98.27799999999115,timeout,,,151375,151373.326,151275.034,151276.29999999702,151291.723,151390.001,,grey
Reaction,canvas.Screen,2_45_0_2,2022-06-03T12:17:08.767Z,,,1,AV,141.8989999985206,response,stim_detected,mousedown,151533.5,151531.8999999985,151373.326,151375.29999999702,151390.001,151540.37,,grey
Trial,flow.Sequence,2_45_0,2022-06-03T12:17:08.768Z,,,1,AV,2376.463999998523,completion,,,151533.8999999985,151531.8999999985,149138.759,149151,149155.436,151540.37,,grey
Frame,canvas.Frame,2_45,2022-06-03T12:17:08.768Z,,,1,AV,2378.564000000013,,,,151534.09999999776,151534,149138.759,149150.29999999702,149155.436,151540.37,,grey
Fixation,canvas.Screen,2_46_0_0,2022-06-03T12:17:10.543Z,,,0,V,1784.5590000000084,timeout,,,153309.19999999925,153308.251,151523.693,151535.19999999925,151540.37,153324.929,,grey
Stimulus,canvas.Screen,2_46_0_1,2022-06-03T12:17:10.643Z,,,0,V,100.03299999999581,timeout,,,153409.09999999776,153408.284,153308.251,153309.59999999776,153324.929,153424.962,,grey
Reaction,canvas.Screen,2_46_0_2,2022-06-03T12:17:11.075Z,,,0,V,413.83799999702023,response,stim_detected,mousedown,153840.79999999702,153838.79999999702,153408.284,153409.5,153424.962,153858.623,,grey
Trial,flow.Sequence,2_46_0,2022-06-03T12:17:11.075Z,,,0,V,2298.4299999970244,completion,,,153841.19999999925,153838.79999999702,151523.693,151535.09999999776,151540.37,153858.623,,grey
Frame,canvas.Frame,2_46,2022-06-03T12:17:11.076Z,,,0,V,2300.9299999970244,,,,153841.5,153841.29999999702,151523.693,151534.3999999985,151540.37,153858.623,,grey
Fixation,canvas.Screen,2_47_0_0,2022-06-03T12:17:12.994Z,,,0,V,1917.2490000000107,timeout,,,155760.29999999702,155759.199,153841.944,153843.59999999776,153858.623,155775.872,,grey
Stimulus,canvas.Screen,2_47_0_1,2022-06-03T12:17:13.095Z,,,0,V,100.52400000000489,timeout,,,155861.19999999925,155859.72,155759.199,155760.5,155775.872,155876.396,,grey
Reaction,canvas.Screen,2_47_0_2,2022-06-03T12:17:13.271Z,,,0,V,159.40399999701185,response,stim_detected,mousedown,156037.19999999925,156035.79999999702,155859.72,155861.3999999985,155876.396,156043.275,,grey
Trial,flow.Sequence,2_47_0,2022-06-03T12:17:13.272Z,,,0,V,2177.1769999970275,completion,,,156037.59999999776,156035.79999999702,153841.944,153843.5,153858.623,156043.275,,grey
Frame,canvas.Frame,2_47,2022-06-03T12:17:13.272Z,,,0,V,2179.0769999992626,,,,156037.8999999985,156037.69999999925,153841.944,153841.69999999925,153858.623,156043.275,,grey
Fixation,canvas.Screen,2_48_0_0,2022-06-03T12:17:15.415Z,,,1,AV,2152.9770000000135,timeout,,,158181.29999999702,158179.563,156026.598,156039,156043.275,158196.252,,grey
Stimulus,canvas.Screen,2_48_0_1,2022-06-03T12:17:15.513Z,,,1,AV,98.64999999999418,timeout,,,158279.29999999702,158278.224,158179.563,158181.5,158196.252,158294.902,,grey
Reaction,canvas.Screen,2_48_0_2,2022-06-03T12:17:15.680Z,,,1,AV,149.8979999970179,response,stim_detected,mousedown,158446.19999999925,158444.79999999702,158278.224,158279.79999999702,158294.902,158461.575,,grey
Trial,flow.Sequence,2_48_0,2022-06-03T12:17:15.681Z,,,1,AV,2401.5249999970256,completion,,,158446.69999999925,158444.79999999702,156026.598,156038.79999999702,156043.275,158461.575,,grey
Frame,canvas.Frame,2_48,2022-06-03T12:17:15.681Z,,,1,AV,2403.4249999992608,,,,158446.8999999985,158446.69999999925,156026.598,156038,156043.275,158461.575,,grey
Fixation,canvas.Screen,2_49_0_0,2022-06-03T12:17:17.950Z,,,1,A,2269.3609999999753,timeout,,,160715.59999999776,160714.25,158444.898,158447.8999999985,158461.575,160730.936,,black
Stimulus,canvas.Screen,2_49_0_1,2022-06-03T12:17:18.048Z,,,1,A,98.012000000017,timeout,,,160814,160812.277,160714.25,160715.8999999985,160730.936,160828.948,,black
Reaction,canvas.Screen,2_49_0_2,2022-06-03T12:17:18.333Z,,,1,A,268.751999999251,response,stim_detected,mousedown,161099.19999999925,161097.69999999925,160812.277,160814.19999999925,160828.948,161113.278,,black
Trial,flow.Sequence,2_49_0,2022-06-03T12:17:18.334Z,,,1,A,2636.1249999992433,completion,,,161099.59999999776,161097.69999999925,158444.898,158447.79999999702,158461.575,161113.278,,black
Frame,canvas.Frame,2_49,2022-06-03T12:17:18.334Z,,,1,A,2638.1249999992433,,,,161099.8999999985,161099.69999999925,158444.898,158447.09999999776,158461.575,161113.278,,black
Fixation,canvas.Screen,2_50_0_0,2022-06-03T12:17:20.702Z,,,0,V,2370.037000000011,timeout,,,163467.69999999925,163466.625,161096.601,161100.8999999985,161113.278,163483.315,,grey
Stimulus,canvas.Screen,2_50_0_1,2022-06-03T12:17:20.800Z,,,0,V,97.7729999999865,timeout,,,163565.69999999925,163564.414,163466.625,163467.8999999985,163483.315,163581.088,,grey
Reaction,canvas.Screen,2_50_0_2,2022-06-03T12:17:21.009Z,,,0,V,192.511999997776,response,stim_detected,mousedown,163775.09999999776,163773.59999999776,163564.414,163565.8999999985,163581.088,163781.741,,grey
Trial,flow.Sequence,2_50_0,2022-06-03T12:17:21.009Z,,,0,V,2660.3219999977737,completion,,,163775.5,163773.59999999776,161096.601,161100.79999999702,161113.278,163781.741,,grey
Frame,canvas.Frame,2_50,2022-06-03T12:17:21.010Z,,,0,V,2662.3219999977737,,,,163775.79999999702,163775.59999999776,161096.601,161100,161113.278,163781.741,,grey
Fixation,canvas.Screen,2_51_0_0,2022-06-03T12:17:22.968Z,,,1,A,1967.4899999999907,timeout,,,165733.79999999702,165732.557,163765.064,163776.79999999702,163781.741,165749.231,,black
Stimulus,canvas.Screen,2_51_0_1,2022-06-03T12:17:23.068Z,,,1,A,100.08600000001024,timeout,,,165833.69999999925,165832.643,165732.557,165734.09999999776,165749.231,165849.317,,black
Reaction,canvas.Screen,2_51_0_2,2022-06-03T12:17:23.270Z,,,1,A,185.2829999977548,response,stim_detected,mousedown,166036.09999999776,166034.59999999776,165832.643,165834,165849.317,166049.894,,black
Trial,flow.Sequence,2_51_0,2022-06-03T12:17:23.271Z,,,1,A,2252.8589999977557,completion,,,166036.59999999776,166034.59999999776,163765.064,163776.59999999776,163781.741,166049.894,,black
Frame,canvas.Frame,2_51,2022-06-03T12:17:23.271Z,,,1,A,2254.958999999246,,,,166036.8999999985,166036.69999999925,163765.064,163775.8999999985,163781.741,166049.894,,black
Fixation,canvas.Screen,2_52_0_0,2022-06-03T12:17:24.820Z,,,1,AV,1551.296000000002,timeout,,,167585.59999999776,167584.51,166033.217,166038.09999999776,166049.894,167601.19,,grey
Stimulus,canvas.Screen,2_52_0_1,2022-06-03T12:17:24.920Z,,,1,AV,99.54000000000815,timeout,,,167685.59999999776,167684.055,167584.51,167585.79999999702,167601.19,167700.73,,grey
Reaction,canvas.Screen,2_52_0_2,2022-06-03T12:17:25.123Z,,,1,AV,186.86999999775435,response,stim_detected,mousedown,167889.19999999925,167887.59999999776,167684.055,167685.8999999985,167700.73,167901.032,,grey
Trial,flow.Sequence,2_52_0,2022-06-03T12:17:25.124Z,,,1,AV,1837.7059999977646,completion,,,167889.5,167887.59999999776,166033.217,166037.8999999985,166049.894,167901.032,,grey
Frame,canvas.Frame,2_52,2022-06-03T12:17:25.124Z,,,1,AV,1839.8059999992547,,,,167889.8999999985,167889.69999999925,166033.217,166037.09999999776,166049.894,167901.032,,grey
Fixation,canvas.Screen,2_53_0_0,2022-06-03T12:17:27.124Z,,,1,A,2003.6469999999972,timeout,,,169889.69999999925,169887.983,167884.356,167890.8999999985,167901.032,169904.679,,black
Stimulus,canvas.Screen,2_53_0_1,2022-06-03T12:17:27.220Z,,,1,A,97.76900000000023,timeout,,,169986.29999999702,169985.5,169887.983,169889.8999999985,169904.679,170002.448,,black
Reaction,canvas.Screen,2_53_0_2,2022-06-03T12:17:27.455Z,,,1,A,216.95199999850593,response,stim_detected,mousedown,170221,170219.3999999985,169985.5,169986.3999999985,170002.448,170235.926,,black
Trial,flow.Sequence,2_53_0,2022-06-03T12:17:27.455Z,,,1,A,2318.3679999985034,completion,,,170221.29999999702,170219.3999999985,167884.356,167890.79999999702,167901.032,170235.926,,black
Frame,canvas.Frame,2_53,2022-06-03T12:17:27.456Z,,,1,A,2320.3679999985034,,,,170221.59999999776,170221.3999999985,167884.356,167890,167901.032,170235.926,,black
Fixation,canvas.Screen,2_54_0_0,2022-06-03T12:17:29.824Z,,,0,V,2369.369000000006,timeout,,,172590.19999999925,172588.61,170219.249,170223.09999999776,170235.926,172605.295,,grey
Stimulus,canvas.Screen,2_54_0_1,2022-06-03T12:17:29.923Z,,,0,V,98.57099999999627,timeout,,,172688.79999999702,172687.191,172588.61,172590.3999999985,172605.295,172703.866,,grey
Reaction,canvas.Screen,2_54_0_2,2022-06-03T12:17:30.110Z,,,0,V,170.5339999985008,response,stim_detected,mousedown,172875.79999999702,172874.3999999985,172687.191,172689.09999999776,172703.866,172887.671,,grey
Trial,flow.Sequence,2_54_0,2022-06-03T12:17:30.110Z,,,0,V,2638.473999998503,completion,,,172876.19999999925,172874.3999999985,170219.249,170223,170235.926,172887.671,,grey
Frame,canvas.Frame,2_54,2022-06-03T12:17:30.111Z,,,0,V,2640.373999997013,,,,172876.59999999776,172876.29999999702,170219.249,170221.79999999702,170235.926,172887.671,,grey
Fixation,canvas.Screen,2_55_0_0,2022-06-03T12:17:31.692Z,,,0,V,1586.0689999999886,timeout,,,174457.8999999985,174457.045,172870.994,172877.59999999776,172887.671,174473.74,,grey
Stimulus,canvas.Screen,2_55_0_1,2022-06-03T12:17:31.791Z,,,0,V,98.17699999999604,timeout,,,174556.8999999985,174555.242,174457.045,174458,174473.74,174571.917,,grey
Reaction,canvas.Screen,2_55_0_2,2022-06-03T12:17:31.994Z,,,0,V,186.58300000001327,response,stim_detected,mousedown,174760,174758.5,174555.242,174557.29999999702,174571.917,174772.22,,grey
Trial,flow.Sequence,2_55_0,2022-06-03T12:17:31.994Z,,,0,V,1870.828999999998,completion,,,174760.5,174758.5,172870.994,172877.5,172887.671,174772.22,,grey
Frame,canvas.Frame,2_55,2022-06-03T12:17:31.995Z,,,0,V,1872.9289999977627,,,,174760.79999999702,174760.59999999776,172870.994,172876.69999999925,172887.671,174772.22,,grey
Fixation,canvas.Screen,2_56_0_0,2022-06-03T12:17:34.094Z,,,1,A,2103.4169999999867,timeout,,,176860,176858.944,174755.544,174762,174772.22,176875.637,,black
Stimulus,canvas.Screen,2_56_0_1,2022-06-03T12:17:34.192Z,,,1,A,97.87000000002445,timeout,,,176958,176956.831,176858.944,176860.19999999925,176875.637,176973.507,,black
Reaction,canvas.Screen,2_56_0_2,2022-06-03T12:17:34.329Z,,,1,A,119.89299999849754,response,stim_detected,mousedown,177094.79999999702,177093.3999999985,176956.831,176958.19999999925,176973.507,177107.161,,black
Trial,flow.Sequence,2_56_0,2022-06-03T12:17:34.329Z,,,1,A,2321.1799999985087,completion,,,177095.19999999925,177093.3999999985,174755.544,174761.79999999702,174772.22,177107.161,,black
Frame,canvas.Frame,2_56,2022-06-03T12:17:34.329Z,,,1,A,2323.0799999970186,,,,177095.5,177095.29999999702,174755.544,174761,174772.22,177107.161,,black
Fixation,canvas.Screen,2_57_0_0,2022-06-03T12:17:36.310Z,,,1,AV,1984.5650000000023,timeout,,,179076,179075.049,177090.484,177096.59999999776,177107.161,179091.726,,grey
Stimulus,canvas.Screen,2_57_0_1,2022-06-03T12:17:36.410Z,,,1,AV,99.4780000000028,timeout,,,179176,179174.532,179075.049,179076.19999999925,179091.726,179191.204,,grey
Reaction,canvas.Screen,2_57_0_2,2022-06-03T12:17:36.566Z,,,1,AV,139.09599999702186,response,stim_detected,mousedown,179331.79999999702,179330.29999999702,179174.532,179176.29999999702,179191.204,179341.918,,grey
Trial,flow.Sequence,2_57_0,2022-06-03T12:17:36.566Z,,,1,AV,2223.138999997027,completion,,,179332.19999999925,179330.29999999702,177090.484,177096.5,177107.161,179341.918,,grey
Frame,canvas.Frame,2_57,2022-06-03T12:17:36.566Z,,,1,AV,2225.138999997027,,,,179332.5,179332.29999999702,177090.484,177095.69999999925,177107.161,179341.918,,grey
Fixation,canvas.Screen,2_58_0_0,2022-06-03T12:17:38.095Z,,,1,AV,1534.502999999997,timeout,,,180861.09999999776,180859.742,179325.241,179333.5,179341.918,180876.421,,grey
Stimulus,canvas.Screen,2_58_0_1,2022-06-03T12:17:38.195Z,,,1,AV,99.7049999999872,timeout,,,180961.09999999776,180959.451,180859.742,180861.29999999702,180876.421,180976.126,,grey
Reaction,canvas.Screen,2_58_0_2,2022-06-03T12:17:38.346Z,,,1,AV,134.17399999703048,response,stim_detected,mousedown,181111.79999999702,181110.29999999702,180959.451,180961.29999999702,180976.126,181126.417,,grey
Trial,flow.Sequence,2_58_0,2022-06-03T12:17:38.346Z,,,1,AV,1768.3819999970146,completion,,,181112.09999999776,181110.29999999702,179325.241,179333.3999999985,179341.918,181126.417,,grey
Frame,canvas.Frame,2_58,2022-06-03T12:17:38.346Z,,,1,AV,1770.2819999992498,,,,181112.3999999985,181112.19999999925,179325.241,179332.59999999776,179341.918,181126.417,,grey
Fixation,canvas.Screen,2_59_0_0,2022-06-03T12:17:40.550Z,,,0,V,2202.8970000000263,timeout,,,183314.19999999925,183312.626,181109.74,181113.3999999985,181126.417,183329.314,,grey
Stimulus,canvas.Screen,2_59_0_1,2022-06-03T12:17:40.649Z,,,0,V,98.43299999998999,timeout,,,183413.09999999776,183411.071,183312.626,183314.3999999985,183329.314,183427.747,,grey
Reaction,canvas.Screen,2_59_0_2,2022-06-03T12:17:40.849Z,,,0,V,183.45299999925192,response,stim_detected,mousedown,183613.19999999925,183611.19999999925,183411.071,183413.5,183427.747,183628.045,,grey
Trial,flow.Sequence,2_59_0,2022-06-03T12:17:40.849Z,,,0,V,2484.782999999268,completion,,,183613.59999999776,183611.19999999925,181109.74,181113.29999999702,181126.417,183628.045,,grey
Frame,canvas.Frame,2_59,2022-06-03T12:17:40.849Z,,,0,V,2487.382999997033,,,,183613.8999999985,183613.79999999702,181109.74,181112.5,181126.417,183628.045,,grey
Fixation,canvas.Screen,2_60_0_0,2022-06-03T12:17:42.468Z,,,1,A,1619.4779999999737,timeout,,,185232.29999999702,185230.828,183611.368,183615.09999999776,183628.045,185247.523,,black
Stimulus,canvas.Screen,2_60_0_1,2022-06-03T12:17:42.566Z,,,1,A,98.29400000002352,timeout,,,185330.19999999925,185329.141,185230.828,185232.5,185247.523,185345.817,,black
Reaction,canvas.Screen,2_60_0_2,2022-06-03T12:17:42.745Z,,,1,A,162.38299999924493,response,stim_detected,mousedown,185509.59999999776,185508.19999999925,185329.141,185330.3999999985,185345.817,185512.651,,black
Trial,flow.Sequence,2_60_0,2022-06-03T12:17:42.745Z,,,1,A,1880.1549999992421,completion,,,185509.8999999985,185508.19999999925,183611.368,183615.09999999776,183628.045,185512.651,,black
Frame,canvas.Frame,2_60,2022-06-03T12:17:42.746Z,,,1,A,1882.054999997752,,,,185510.19999999925,185510.09999999776,183611.368,183614.09999999776,183628.045,185512.651,,black
Fixation,canvas.Screen,2_61_0_0,2022-06-03T12:17:45.084Z,,,1,AV,2351.3159999999916,timeout,,,187848.59999999776,187847.291,185495.974,185511.29999999702,185512.651,187863.967,,grey
Stimulus,canvas.Screen,2_61_0_1,2022-06-03T12:17:45.185Z,,,1,AV,100.31500000000233,timeout,,,187949.5,187947.605,187847.291,187848.79999999702,187863.967,187964.282,,grey
Reaction,canvas.Screen,2_61_0_2,2022-06-03T12:17:45.358Z,,,1,AV,156.8179999977583,response,stim_detected,mousedown,188122.69999999925,188121.09999999776,187947.605,187949.69999999925,187964.282,188131.051,,grey
Trial,flow.Sequence,2_61_0,2022-06-03T12:17:45.358Z,,,1,AV,2608.4489999977523,completion,,,188123,188121.09999999776,185495.974,185511.19999999925,185512.651,188131.051,,grey
Frame,canvas.Frame,2_61,2022-06-03T12:17:45.359Z,,,1,AV,2610.4489999977523,,,,188123.3999999985,188123.09999999776,185495.974,185510.5,185512.651,188131.051,,grey
Fixation,canvas.Screen,2_62_0_0,2022-06-03T12:17:47.786Z,,,0,V,2435.0109999999986,timeout,,,190550.5,190549.384,188114.374,188124.3999999985,188131.051,190566.062,,grey
Stimulus,canvas.Screen,2_62_0_1,2022-06-03T12:17:47.886Z,,,0,V,99.80900000000838,timeout,,,190650.5,190649.195,190549.384,190550.69999999925,190566.062,190665.871,,grey
Reaction,canvas.Screen,2_62_0_2,2022-06-03T12:17:48.078Z,,,0,V,175.12899999998626,response,stim_detected,mousedown,190842.79999999702,190841,190649.195,190650.79999999702,190665.871,190849.489,,grey
Trial,flow.Sequence,2_62_0,2022-06-03T12:17:48.079Z,,,0,V,2709.9489999999932,completion,,,190843.19999999925,190841,188114.374,188124.29999999702,188131.051,190849.489,,grey
Frame,canvas.Frame,2_62,2022-06-03T12:17:48.079Z,,,0,V,2712.248999997013,,,,190843.5,190843.29999999702,188114.374,188123.5,188131.051,190849.489,,grey
Fixation,canvas.Screen,2_63_0_0,2022-06-03T12:17:49.804Z,,,1,A,1733.9489999999932,timeout,,,192568.69999999925,192566.765,190832.812,190844.5,190849.489,192583.438,,black
Stimulus,canvas.Screen,2_63_0_1,2022-06-03T12:17:49.903Z,,,1,A,100.61600000000908,timeout,,,192668.09999999776,192667.375,192566.765,192568.8999999985,192583.438,192684.054,,black
Reaction,canvas.Screen,2_63_0_2,2022-06-03T12:17:50.097Z,,,1,A,176.0459999977611,response,stim_detected,mousedown,192861.59999999776,192860.09999999776,192667.375,192668.19999999925,192684.054,192867.423,,black
Trial,flow.Sequence,2_63_0,2022-06-03T12:17:50.098Z,,,1,A,2010.6109999977634,completion,,,192862.09999999776,192860.09999999776,190832.812,190844.3999999985,190849.489,192867.423,,black
Frame,canvas.Frame,2_63,2022-06-03T12:17:50.098Z,,,1,A,2012.8109999970184,,,,192862.5,192862.29999999702,190832.812,190843.59999999776,190849.489,192867.423,,black
Fixation,canvas.Screen,2_64_0_0,2022-06-03T12:17:52.407Z,,,1,AV,2320.030999999988,timeout,,,195171.69999999925,195170.764,192850.747,192863.5,192867.423,195187.454,,grey
Stimulus,canvas.Screen,2_64_0_1,2022-06-03T12:17:52.506Z,,,1,AV,98.25,timeout,,,195270.79999999702,195269.027,195170.764,195171.8999999985,195187.454,195285.704,,grey
Reaction,canvas.Screen,2_64_0_2,2022-06-03T12:17:52.645Z,,,1,AV,122.69599999851198,response,stim_detected,mousedown,195409.79999999702,195408.3999999985,195269.027,195271,195285.704,195419.169,,grey
Trial,flow.Sequence,2_64_0,2022-06-03T12:17:52.646Z,,,1,AV,2540.9769999985,completion,,,195410.19999999925,195408.3999999985,192850.747,192863.3999999985,192867.423,195419.169,,grey
Frame,canvas.Frame,2_64,2022-06-03T12:17:52.646Z,,,1,AV,2542.87699999701,,,,195410.5,195410.29999999702,192850.747,192862.69999999925,192867.423,195419.169,,grey
Fixation,canvas.Screen,2_65_0_0,2022-06-03T12:17:54.823Z,,,1,AV,2183.69200000001,timeout,,,197587.69999999925,197586.191,195402.492,195411.5,195419.169,197602.861,,grey
Stimulus,canvas.Screen,2_65_0_1,2022-06-03T12:17:54.924Z,,,1,AV,101.14400000000023,timeout,,,197688.8999999985,197687.325,197586.191,197587.8999999985,197602.861,197704.005,,grey
Reaction,canvas.Screen,2_65_0_2,2022-06-03T12:17:55.073Z,,,1,AV,131.89499999850523,response,stim_detected,mousedown,197837.29999999702,197835.8999999985,197687.325,197689.19999999925,197704.005,197854.069,,grey
Trial,flow.Sequence,2_65_0,2022-06-03T12:17:55.073Z,,,1,AV,2416.7309999985155,completion,,,197837.79999999702,197835.8999999985,195402.492,195411.3999999985,195419.169,197854.069,,grey
Frame,canvas.Frame,2_65,2022-06-03T12:17:55.073Z,,,1,AV,2418.7309999985155,,,,197838.09999999776,197837.8999999985,195402.492,195410.59999999776,195419.169,197854.069,,grey
Fixation,canvas.Screen,2_66_0_0,2022-06-03T12:17:56.959Z,,,1,A,1885.4870000000228,timeout,,,199723.69999999925,199722.871,197837.392,197839.09999999776,197854.069,199739.556,,black
Stimulus,canvas.Screen,2_66_0_1,2022-06-03T12:17:57.058Z,,,1,A,98.98399999999674,timeout,,,199823,199821.864,199722.871,199724,199739.556,199838.54,,black
Reaction,canvas.Screen,2_66_0_2,2022-06-03T12:17:57.275Z,,,1,A,199.35999999850173,response,stim_detected,mousedown,200039.3999999985,200037.8999999985,199821.864,199823.19999999925,199838.54,200055.537,,black
Trial,flow.Sequence,2_66_0,2022-06-03T12:17:57.275Z,,,1,A,2183.8309999985213,completion,,,200039.79999999702,200037.8999999985,197837.392,197839,197854.069,200055.537,,black
Frame,canvas.Frame,2_66,2022-06-03T12:17:57.275Z,,,1,A,2185.8309999985213,,,,200040.09999999776,200039.8999999985,197837.392,197838.19999999925,197854.069,200055.537,,black
Fixation,canvas.Screen,2_67_0_0,2022-06-03T12:17:59.528Z,,,1,AV,2251.243999999977,timeout,,,202292.69999999925,202290.105,200038.86,200041.09999999776,200055.537,202306.781,,grey
Stimulus,canvas.Screen,2_67_0_1,2022-06-03T12:17:59.628Z,,,1,AV,100.25900000002002,timeout,,,202392.29999999702,202390.363,202290.105,202292.8999999985,202306.781,202407.04,,grey
Reaction,canvas.Screen,2_67_0_2,2022-06-03T12:17:59.809Z,,,1,AV,164.75999999701162,response,stim_detected,mousedown,202573.19999999925,202571.79999999702,202390.363,202392.59999999776,202407.04,202590.51,,grey
Trial,flow.Sequence,2_67_0,2022-06-03T12:17:59.809Z,,,1,AV,2516.2629999970086,completion,,,202573.59999999776,202571.79999999702,200038.86,200041,200055.537,202590.51,,grey
Frame,canvas.Frame,2_67,2022-06-03T12:17:59.809Z,,,1,AV,2518.1629999992438,,,,202573.8999999985,202573.69999999925,200038.86,200040.19999999925,200055.537,202590.51,,grey
Fixation,canvas.Screen,2_68_0_0,2022-06-03T12:18:01.813Z,,,0,V,2002.4079999999958,timeout,,,204577.8999999985,204576.232,202573.833,202574.8999999985,202590.51,204592.918,,grey
Stimulus,canvas.Screen,2_68_0_1,2022-06-03T12:18:01.911Z,,,0,V,98.85899999999674,timeout,,,204676.09999999776,204675.101,204576.232,204578.19999999925,204592.918,204691.777,,grey
Reaction,canvas.Screen,2_68_0_2,2022-06-03T12:18:02.120Z,,,0,V,190.92299999925308,response,stim_detected,mousedown,204884.29999999702,204882.69999999925,204675.101,204676.29999999702,204691.777,204908.691,,grey
Trial,flow.Sequence,2_68_0,2022-06-03T12:18:02.120Z,,,0,V,2292.1899999992456,completion,,,204884.69999999925,204882.69999999925,202573.833,202574.79999999702,202590.51,204908.691,,grey
Frame,canvas.Frame,2_68,2022-06-03T12:18:02.121Z,,,0,V,2294.3899999985006,,,,204885.09999999776,204884.8999999985,202573.833,202574.09999999776,202590.51,204908.691,,grey
Fixation,canvas.Screen,2_69_0_0,2022-06-03T12:18:03.697Z,,,1,A,1568.2140000000072,timeout,,,206462.09999999776,206460.222,204875.337,204886.29999999702,204908.691,206476.905,,black
Stimulus,canvas.Screen,2_69_0_1,2022-06-03T12:18:03.796Z,,,1,A,99.50400000001537,timeout,,,206560.8999999985,206559.733,206460.222,206462.3999999985,206476.905,206576.409,,black
Reaction,canvas.Screen,2_69_0_2,2022-06-03T12:18:04.025Z,,,1,A,212.19099999775062,response,stim_detected,mousedown,206790.09999999776,206788.59999999776,206559.733,206561.09999999776,206576.409,206793.279,,black
Trial,flow.Sequence,2_69_0,2022-06-03T12:18:04.026Z,,,1,A,1879.9089999977732,completion,,,206790.3999999985,206788.59999999776,204875.337,204886.19999999925,204908.691,206793.279,,black
Frame,canvas.Frame,2_69,2022-06-03T12:18:04.026Z,,,1,A,1881.9089999977732,,,,206790.79999999702,206790.59999999776,204875.337,204885.29999999702,204908.691,206793.279,,black
Fixation,canvas.Screen,2_70_0_0,2022-06-03T12:18:05.531Z,,,1,A,1518.4749999999767,timeout,,,208296.09999999776,208295.068,206776.602,206791.8999999985,206793.279,208311.754,,black
Stimulus,canvas.Screen,2_70_0_1,2022-06-03T12:18:05.632Z,,,1,A,99.21800000002258,timeout,,,208396.09999999776,208394.296,208295.068,208296.29999999702,208311.754,208410.972,,black
Reaction,canvas.Screen,2_70_0_2,2022-06-03T12:18:05.863Z,,,1,A,214.7279999992461,response,stim_detected,mousedown,208627.09999999776,208625.69999999925,208394.296,208396.29999999702,208410.972,208644.498,,black
Trial,flow.Sequence,2_70_0,2022-06-03T12:18:05.863Z,,,1,A,1832.4209999992454,completion,,,208627.5,208625.69999999925,206776.602,206791.69999999925,206793.279,208644.498,,black
Frame,canvas.Frame,2_70,2022-06-03T12:18:05.863Z,,,1,A,1834.4209999992454,,,,208627.8999999985,208627.69999999925,206776.602,206791,206793.279,208644.498,,black
Fixation,canvas.Screen,2_71_0_0,2022-06-03T12:18:07.533Z,,,0,V,1668.064000000013,timeout,,,210297.19999999925,210295.882,208627.821,208629,208644.498,210312.562,,grey
Stimulus,canvas.Screen,2_71_0_1,2022-06-03T12:18:07.633Z,,,0,V,99.64900000000489,timeout,,,210397.19999999925,210395.535,210295.882,210297.3999999985,210312.562,210412.211,,grey
Reaction,canvas.Screen,2_71_0_2,2022-06-03T12:18:07.861Z,,,0,V,212.38899999775458,response,stim_detected,mousedown,210626.09999999776,210624.59999999776,210395.535,210397.29999999702,210412.211,210629.131,,grey
Trial,flow.Sequence,2_71_0,2022-06-03T12:18:07.862Z,,,0,V,1980.1019999977725,completion,,,210626.5,210624.59999999776,208627.821,208628.8999999985,208644.498,210629.131,,grey
Frame,canvas.Frame,2_71,2022-06-03T12:18:07.862Z,,,0,V,1982.2019999992626,,,,210626.8999999985,210626.69999999925,208627.821,208628.09999999776,208644.498,210629.131,,grey
Fixation,canvas.Screen,2_72_0_0,2022-06-03T12:18:09.651Z,,,1,AV,1801.7190000000119,timeout,,,212415.19999999925,212414.168,210612.454,210628.09999999776,210629.131,212430.85,,grey
Stimulus,canvas.Screen,2_72_0_1,2022-06-03T12:18:09.751Z,,,1,AV,99.41399999998976,timeout,,,212515.19999999925,212513.588,212414.168,212415.59999999776,212430.85,212530.264,,grey
Reaction,canvas.Screen,2_72_0_2,2022-06-03T12:18:09.893Z,,,1,AV,126.43599999925937,response,stim_detected,mousedown,212658,212656.69999999925,212513.588,212515.3999999985,212530.264,212663.826,,grey
Trial,flow.Sequence,2_72_0,2022-06-03T12:18:09.894Z,,,1,AV,2027.568999999261,completion,,,212658.3999999985,212656.69999999925,210612.454,210628.09999999776,210629.131,212663.826,,grey
Frame,canvas.Frame,2_72,2022-06-03T12:18:09.894Z,,,1,AV,2029.4689999977709,,,,212658.69999999925,212658.59999999776,210612.454,210627.09999999776,210629.131,212663.826,,grey
Fixation,canvas.Screen,2_73_0_0,2022-06-03T12:18:11.535Z,,,1,A,1650.701000000001,timeout,,,214299.19999999925,214297.853,212647.149,212659.69999999925,212663.826,214314.527,,black
Stimulus,canvas.Screen,2_73_0_1,2022-06-03T12:18:11.635Z,,,1,A,100.35699999998906,timeout,,,214399.19999999925,214398.208,214297.853,214299.3999999985,214314.527,214414.884,,black
Reaction,canvas.Screen,2_73_0_2,2022-06-03T12:18:11.813Z,,,1,A,161.7159999977739,response,stim_detected,mousedown,214578,214576.59999999776,214398.208,214399.5,214414.884,214598.428,,black
Trial,flow.Sequence,2_73_0,2022-06-03T12:18:11.814Z,,,1,A,1912.773999997764,completion,,,214578.3999999985,214576.59999999776,212647.149,212659.69999999925,212663.826,214598.428,,black
Frame,canvas.Frame,2_73,2022-06-03T12:18:11.814Z,,,1,A,1914.673999999999,,,,214578.59999999776,214578.5,212647.149,212658.8999999985,212663.826,214598.428,,black
Fixation,canvas.Screen,2_74_0_0,2022-06-03T12:18:13.352Z,,,1,AV,1533.435999999987,timeout,,,216116.5,216115.195,214565.074,214579.69999999925,214598.428,216131.864,,grey
Stimulus,canvas.Screen,2_74_0_1,2022-06-03T12:18:13.453Z,,,1,AV,101.01300000000629,timeout,,,216217.3999999985,216216.199,216115.195,216116.79999999702,216131.864,216232.877,,grey
Reaction,canvas.Screen,2_74_0_2,2022-06-03T12:18:13.618Z,,,1,AV,147.62299999999232,response,stim_detected,mousedown,216382.29999999702,216380.5,216216.199,216217.5,216232.877,216399.545,,grey
Trial,flow.Sequence,2_74_0,2022-06-03T12:18:13.618Z,,,1,AV,1782.0719999999856,completion,,,216382.69999999925,216380.5,214565.074,214579.59999999776,214598.428,216399.545,,grey
Frame,canvas.Frame,2_74,2022-06-03T12:18:13.618Z,,,1,AV,1784.3719999970053,,,,216383,216382.79999999702,214565.074,214578.79999999702,214598.428,216399.545,,grey
Fixation,canvas.Screen,2_75_0_0,2022-06-03T12:18:15.139Z,,,1,A,1519.179999999993,timeout,,,217903.29999999702,217902.032,216382.869,216384.09999999776,216399.545,217918.725,,black
Stimulus,canvas.Screen,2_75_0_1,2022-06-03T12:18:15.237Z,,,1,A,98.05499999999302,timeout,,,218001.5,218000.108,217902.032,217903.5,217918.725,218016.78,,black
Reaction,canvas.Screen,2_75_0_2,2022-06-03T12:18:15.445Z,,,1,A,191.72000000000116,response,stim_detected,mousedown,218209.79999999702,218208.5,218000.108,218001.79999999702,218016.78,218217.453,,black
Trial,flow.Sequence,2_75_0,2022-06-03T12:18:15.446Z,,,1,A,1808.9549999999872,completion,,,218210.19999999925,218208.5,216382.869,216383.8999999985,216399.545,218217.453,,black
Frame,canvas.Frame,2_75,2022-06-03T12:18:15.446Z,,,1,A,1810.754999997007,,,,218210.59999999776,218210.29999999702,216382.869,216383.19999999925,216399.545,218217.453,,black
Fixation,canvas.Screen,2_76_0_0,2022-06-03T12:18:17.104Z,,,1,AV,1666.7880000000005,timeout,,,219868.3999999985,219867.572,218200.776,218211.5,218217.453,219884.241,,grey
Stimulus,canvas.Screen,2_76_0_1,2022-06-03T12:18:17.206Z,,,1,AV,101.112999999983,timeout,,,219970.3999999985,219968.673,219867.572,219868.8999999985,219884.241,219985.354,,grey
Reaction,canvas.Screen,2_76_0_2,2022-06-03T12:18:17.365Z,,,1,AV,143.0459999985178,response,stim_detected,mousedown,220129.79999999702,220128.3999999985,219968.673,219970.59999999776,219985.354,220135.352,,grey
Trial,flow.Sequence,2_76_0,2022-06-03T12:18:17.366Z,,,1,AV,1910.9469999985013,completion,,,220130.19999999925,220128.3999999985,218200.776,218211.3999999985,218217.453,220135.352,,grey
Frame,canvas.Frame,2_76,2022-06-03T12:18:17.366Z,,,1,AV,1912.8469999970112,,,,220130.5,220130.29999999702,218200.776,218210.69999999925,218217.453,220135.352,,grey
Fixation,canvas.Screen,2_77_0_0,2022-06-03T12:18:19.341Z,,,1,AV,1985.304999999993,timeout,,,222105.5,222103.974,220118.676,220131.5,220135.352,222120.657,,grey
Stimulus,canvas.Screen,2_77_0_1,2022-06-03T12:18:19.440Z,,,1,AV,99.28500000000349,timeout,,,222204.5,222203.266,222103.974,222105.69999999925,222120.657,222219.942,,grey
Reaction,canvas.Screen,2_77_0_2,2022-06-03T12:18:19.598Z,,,1,AV,140.45799999849987,response,stim_detected,mousedown,222362.19999999925,222360.3999999985,222203.266,222204.69999999925,222219.942,222370.175,,grey
Trial,flow.Sequence,2_77_0,2022-06-03T12:18:19.598Z,,,1,AV,2225.0479999984964,completion,,,222362.5,222360.3999999985,220118.676,220131.3999999985,220135.352,222370.175,,grey
Frame,canvas.Frame,2_77,2022-06-03T12:18:19.598Z,,,1,AV,2227.3479999992414,,,,222362.8999999985,222362.69999999925,220118.676,220130.59999999776,220135.352,222370.175,,grey
Fixation,canvas.Screen,2_78_0_0,2022-06-03T12:18:21.191Z,,,1,AV,1600.890000000014,timeout,,,223955.5,223954.389,222353.498,222364.09999999776,222370.175,223971.065,,grey
Stimulus,canvas.Screen,2_78_0_1,2022-06-03T12:18:21.291Z,,,1,AV,100.14400000000023,timeout,,,224055.59999999776,224054.533,223954.389,223955.79999999702,223971.065,224071.209,,grey
Reaction,canvas.Screen,2_78_0_2,2022-06-03T12:18:21.420Z,,,1,AV,112.0909999970172,response,stim_detected,mousedown,224184.69999999925,224183.29999999702,224054.533,224055.8999999985,224071.209,224204.734,,grey
Trial,flow.Sequence,2_78_0,2022-06-03T12:18:21.421Z,,,1,AV,1813.1249999970314,completion,,,224185.19999999925,224183.29999999702,222353.498,222363.8999999985,222370.175,224204.734,,grey
Frame,canvas.Frame,2_78,2022-06-03T12:18:21.421Z,,,1,AV,1815.2249999985215,,,,224185.5,224185.3999999985,222353.498,222363,222370.175,224204.734,,grey
Fixation,canvas.Screen,2_79_0_0,2022-06-03T12:18:23.692Z,,,1,AV,2267.3369999999995,timeout,,,226457,226455.399,224171.38,224186.59999999776,224204.734,226472.071,,grey
Stimulus,canvas.Screen,2_79_0_1,2022-06-03T12:18:23.792Z,,,1,AV,100.05600000001141,timeout,,,226556.8999999985,226555.455,226455.399,226457.29999999702,226472.071,226572.127,,grey
Reaction,canvas.Screen,2_79_0_2,2022-06-03T12:18:23.968Z,,,1,AV,159.17299999701208,response,stim_detected,mousedown,226732.69999999925,226731.29999999702,226555.455,226557.09999999776,226572.127,226739.677,,grey
Trial,flow.Sequence,2_79_0,2022-06-03T12:18:23.969Z,,,1,AV,2526.565999997023,completion,,,226733.19999999925,226731.29999999702,224171.38,224186.5,224204.734,226739.677,,grey
Frame,canvas.Frame,2_79,2022-06-03T12:18:23.969Z,,,1,AV,2528.565999997023,,,,226733.5,226733.29999999702,224171.38,224185.69999999925,224204.734,226739.677,,grey
Fixation,canvas.Screen,2_80_0_0,2022-06-03T12:18:26.361Z,,,0,V,2401.963000000018,timeout,,,229125.79999999702,229124.96,226723,226734.5,226739.677,229141.64,,grey
Stimulus,canvas.Screen,2_80_0_1,2022-06-03T12:18:26.461Z,,,0,V,99.88799999997718,timeout,,,229225.69999999925,229224.848,229124.96,229126.09999999776,229141.64,229241.528,,grey
Reaction,canvas.Screen,2_80_0_2,2022-06-03T12:18:26.624Z,,,0,V,145.6719999992638,response,stim_detected,mousedown,229388.69999999925,229387.19999999925,229224.848,229226.09999999776,229241.528,229391.404,,grey
Trial,flow.Sequence,2_80_0,2022-06-03T12:18:26.625Z,,,0,V,2647.522999999259,completion,,,229389.09999999776,229387.19999999925,226723,226734.3999999985,226739.677,229391.404,,grey
Frame,canvas.Frame,2_80,2022-06-03T12:18:26.625Z,,,0,V,2649.522999999259,,,,229389.3999999985,229389.19999999925,226723,226733.59999999776,226739.677,229391.404,,grey
Fixation,canvas.Screen,2_81_0_0,2022-06-03T12:18:29.046Z,,,0,V,2435.1820000000007,timeout,,,231810.79999999702,231809.907,229374.728,229390.3999999985,229391.404,231826.586,,grey
Stimulus,canvas.Screen,2_81_0_1,2022-06-03T12:18:29.146Z,,,0,V,99.94899999999325,timeout,,,231911,231909.856,231809.907,231811.09999999776,231826.586,231926.535,,grey
Reaction,canvas.Screen,2_81_0_2,2022-06-03T12:18:29.394Z,,,0,V,230.56499999776133,response,stim_detected,mousedown,232158.59999999776,232157.09999999776,231909.856,231911.19999999925,231926.535,232159.932,,grey
Trial,flow.Sequence,2_81_0,2022-06-03T12:18:29.394Z,,,0,V,2765.6959999977553,completion,,,232159,232157.09999999776,229374.728,229390.29999999702,229391.404,232159.932,,grey
Frame,canvas.Frame,2_81,2022-06-03T12:18:29.395Z,,,0,V,2767.6959999977553,,,,232159.29999999702,232159.09999999776,229374.728,229389.5,229391.404,232159.932,,grey
Fixation,canvas.Screen,2_82_0_0,2022-06-03T12:18:30.981Z,,,0,V,1600.8949999999895,timeout,,,233745.8999999985,233744.151,232143.255,232160.3999999985,232159.932,233760.827,,grey
Stimulus,canvas.Screen,2_82_0_1,2022-06-03T12:18:31.081Z,,,0,V,100.24199999999837,timeout,,,233846,233844.392,233744.151,233746.09999999776,233760.827,233861.069,,grey
Reaction,canvas.Screen,2_82_0_2,2022-06-03T12:18:31.260Z,,,0,V,162.13099999926635,response,stim_detected,mousedown,234024.59999999776,234023.19999999925,233844.392,233846.09999999776,233861.069,234027.826,,grey
Trial,flow.Sequence,2_82_0,2022-06-03T12:18:31.260Z,,,0,V,1863.2679999992542,completion,,,234024.8999999985,234023.19999999925,232143.255,232160.29999999702,232159.932,234027.826,,grey
Frame,canvas.Frame,2_82,2022-06-03T12:18:31.261Z,,,0,V,1865.1679999977641,,,,234025.29999999702,234025.09999999776,232143.255,232159.3999999985,232159.932,234027.826,,grey
Fixation,canvas.Screen,2_83_0_0,2022-06-03T12:18:33.382Z,,,1,AV,2134.889999999985,timeout,,,236147,236146.037,234011.149,234026.3999999985,234027.826,236162.716,,grey
Stimulus,canvas.Screen,2_83_0_1,2022-06-03T12:18:33.481Z,,,1,AV,99.14600000000792,timeout,,,236246.09999999776,236245.19,236146.037,236147.29999999702,236162.716,236261.862,,grey
Reaction,canvas.Screen,2_83_0_2,2022-06-03T12:18:33.621Z,,,1,AV,122.13800000000629,response,stim_detected,mousedown,236385.5,236384,236245.19,236246.19999999925,236261.862,236396.039,,grey
Trial,flow.Sequence,2_83_0,2022-06-03T12:18:33.621Z,,,1,AV,2356.173999999999,completion,,,236385.8999999985,236384,234011.149,234026.29999999702,234027.826,236396.039,,grey
Frame,canvas.Frame,2_83,2022-06-03T12:18:33.622Z,,,1,AV,2358.173999999999,,,,236386.19999999925,236386,234011.149,234025.5,234027.826,236396.039,,grey
Fixation,canvas.Screen,2_84_0_0,2022-06-03T12:18:35.435Z,,,1,A,1818.274000000005,timeout,,,238199.19999999925,238197.632,236379.362,236387.19999999925,236396.039,238214.313,,black
Stimulus,canvas.Screen,2_84_0_1,2022-06-03T12:18:35.534Z,,,1,A,99.53100000001723,timeout,,,238298.19999999925,238297.168,238197.632,238199.5,238214.313,238313.844,,black
Reaction,canvas.Screen,2_84_0_2,2022-06-03T12:18:35.761Z,,,1,A,210.15599999998813,response,stim_detected,mousedown,238525.5,238524,238297.168,238298.3999999985,238313.844,238530.773,,black
Trial,flow.Sequence,2_84_0,2022-06-03T12:18:35.761Z,,,1,A,2127.9610000000102,completion,,,238525.8999999985,238524,236379.362,236387,236396.039,238530.773,,black
Frame,canvas.Frame,2_84,2022-06-03T12:18:35.762Z,,,1,A,2129.9610000000102,,,,238526.19999999925,238526,236379.362,236386.29999999702,236396.039,238530.773,,black
Fixation,canvas.Screen,2_85_0_0,2022-06-03T12:18:38.119Z,,,1,AV,2367.667000000016,timeout,,,240883.5,240881.766,238514.096,238527.19999999925,238530.773,240898.44,,grey
Stimulus,canvas.Screen,2_85_0_1,2022-06-03T12:18:38.220Z,,,1,AV,100.63899999999558,timeout,,,240984.29999999702,240982.402,240881.766,240883.79999999702,240898.44,240999.079,,grey
Reaction,canvas.Screen,2_85_0_2,2022-06-03T12:18:38.404Z,,,1,AV,167.82099999851198,response,stim_detected,mousedown,241168.3999999985,241166.8999999985,240982.402,240984.59999999776,240999.079,241182.515,,grey
Trial,flow.Sequence,2_85_0,2022-06-03T12:18:38.404Z,,,1,AV,2636.1269999985234,completion,,,241168.69999999925,241166.8999999985,238514.096,238527.09999999776,238530.773,241182.515,,grey
Frame,canvas.Frame,2_85,2022-06-03T12:18:38.404Z,,,1,AV,2638.1269999985234,,,,241169,241168.8999999985,238514.096,238526.3999999985,238530.773,241182.515,,grey
Fixation,canvas.Screen,2_86_0_0,2022-06-03T12:18:40.706Z,,,0,V,2301.9839999999967,timeout,,,243469.19999999925,243467.818,241165.838,241170.09999999776,241182.515,243484.499,,grey
Stimulus,canvas.Screen,2_86_0_1,2022-06-03T12:18:40.805Z,,,0,V,98.77999999999884,timeout,,,243568.3999999985,243566.607,243467.818,243469.59999999776,243484.499,243583.279,,grey
Reaction,canvas.Screen,2_86_0_2,2022-06-03T12:18:40.987Z,,,0,V,165.62099999850034,response,stim_detected,mousedown,243750.29999999702,243748.8999999985,243566.607,243568.5,243583.279,243767.533,,grey
Trial,flow.Sequence,2_86_0,2022-06-03T12:18:40.987Z,,,0,V,2566.384999998496,completion,,,243750.69999999925,243748.8999999985,241165.838,241169.8999999985,241182.515,243767.533,,grey
Frame,canvas.Frame,2_86,2022-06-03T12:18:40.988Z,,,0,V,2568.284999997006,,,,243751.09999999776,243750.79999999702,241165.838,241169.19999999925,241182.515,243767.533,,grey
Fixation,canvas.Screen,2_87_0_0,2022-06-03T12:18:43.057Z,,,1,AV,2067.9580000000133,timeout,,,245820.29999999702,245818.814,243750.856,243752.19999999925,243767.533,245835.491,,grey
Stimulus,canvas.Screen,2_87_0_1,2022-06-03T12:18:43.157Z,,,1,AV,100.09599999999045,timeout,,,245920.29999999702,245918.91,245818.814,245820.59999999776,245835.491,245935.587,,grey
Reaction,canvas.Screen,2_87_0_2,2022-06-03T12:18:43.377Z,,,1,AV,203.31299999851035,response,stim_detected,mousedown,246140.19999999925,246138.8999999985,245918.91,245920.5,245935.587,246152.415,,grey
Trial,flow.Sequence,2_87_0,2022-06-03T12:18:43.377Z,,,1,AV,2371.366999998514,completion,,,246140.59999999776,246138.8999999985,243750.856,243752,243767.533,246152.415,,grey
Frame,canvas.Frame,2_87,2022-06-03T12:18:43.377Z,,,1,AV,2373.166999999259,,,,246140.8999999985,246140.69999999925,243750.856,243751.19999999925,243767.533,246152.415,,grey
Fixation,canvas.Screen,2_88_0_0,2022-06-03T12:18:44.959Z,,,1,A,1585.2179999999935,timeout,,,247722.3999999985,247720.948,246135.738,246141.8999999985,246152.415,247737.633,,black
Stimulus,canvas.Screen,2_88_0_1,2022-06-03T12:18:45.058Z,,,1,A,99.31099999998696,timeout,,,247821.3999999985,247820.266,247720.948,247722.59999999776,247737.633,247836.944,,black
Reaction,canvas.Screen,2_88_0_2,2022-06-03T12:18:45.298Z,,,1,A,222.85599999703118,response,stim_detected,mousedown,248061.29999999702,248059.79999999702,247820.266,247821.69999999925,247836.944,248070.361,,black
Trial,flow.Sequence,2_88_0,2022-06-03T12:18:45.298Z,,,1,A,1907.3849999970116,completion,,,248061.69999999925,248059.79999999702,246135.738,246141.79999999702,246152.415,248070.361,,black
Frame,canvas.Frame,2_88,2022-06-03T12:18:45.299Z,,,1,A,1909.3849999970116,,,,248062.09999999776,248061.79999999702,246135.738,246141.09999999776,246152.415,248070.361,,black
Fixation,canvas.Screen,2_89_0_0,2022-06-03T12:18:47.311Z,,,1,A,2019.130999999994,timeout,,,250074.5,250072.805,248053.684,248063.19999999925,248070.361,250089.492,,black
Stimulus,canvas.Screen,2_89_0_1,2022-06-03T12:18:47.409Z,,,1,A,98.69399999998859,timeout,,,250172,250171.511,250072.805,250074.69999999925,250089.492,250188.186,,black
Reaction,canvas.Screen,2_89_0_2,2022-06-03T12:18:47.626Z,,,1,A,199.6139999970328,response,stim_detected,mousedown,250389.19999999925,250387.79999999702,250171.511,250172.09999999776,250188.186,250405.179,,black
Trial,flow.Sequence,2_89_0,2022-06-03T12:18:47.626Z,,,1,A,2317.4389999970153,completion,,,250389.59999999776,250387.79999999702,248053.684,248063.09999999776,248070.361,250405.179,,black
Frame,canvas.Frame,2_89,2022-06-03T12:18:47.627Z,,,1,A,2319.4389999970153,,,,250390,250389.79999999702,248053.684,248062.19999999925,248070.361,250405.179,,black
Fixation,canvas.Screen,2_90_0_0,2022-06-03T12:18:49.813Z,,,1,A,2187.1509999999835,timeout,,,252576.59999999776,252575.635,250388.503,250391,250405.179,252592.33,,black
Stimulus,canvas.Screen,2_90_0_1,2022-06-03T12:18:49.911Z,,,1,A,97.65000000002328,timeout,,,252674.69999999925,252673.304,252575.635,252576.8999999985,252592.33,252689.98,,black
Reaction,canvas.Screen,2_90_0_2,2022-06-03T12:18:50.121Z,,,1,A,192.71999999924446,response,stim_detected,mousedown,252884.19999999925,252882.69999999925,252673.304,252674.8999999985,252689.98,252906.874,,black
Trial,flow.Sequence,2_90_0,2022-06-03T12:18:50.121Z,,,1,A,2477.520999999251,completion,,,252884.5,252882.69999999925,250388.503,250391,250405.179,252906.874,,black
Frame,canvas.Frame,2_90,2022-06-03T12:18:50.121Z,,,1,A,2479.420999997761,,,,252884.79999999702,252884.59999999776,250388.503,250390.19999999925,250405.179,252906.874,,black
Loop,flow.Loop,2,2022-06-03T12:18:50.122Z,,,,,203677.23599999776,completion,,,252885.19999999925,252884.59999999776,49190.68,49192.5,49207.364,252906.874,,
end,html.Page,3,2022-06-03T12:18:56.129Z,,,,,5984.625999999989,form submission,,,258892.09999999776,258891.5,252890.197,252885.5,252906.874,258892.796,,
root,flow.Sequence,,2022-06-03T12:18:56.130Z,,,,,257432.962,completion,,,258893.09999999776,258891.5,1441.837,1449.8999999985099,1458.538,258892.796,,