sender,sender_type,sender_id,timestamp,meta,,aud,condition,duration,ended_on,response,response_action,time_commit,time_end,time_render,time_run,time_show,time_switch,url,vis
Instructions,html.Page,0,2022-07-15T15:17:57.390Z,"{""labjs_version"":""20.2.4"",""labjs_build"":{""flavor"":""production"",""commit"":""f5b4a49f956347addd546a832a3327688c2c0fef""},""location"":""file:///C:/Users/Proband%207/Desktop/RTE/index.html"",""userAgent"":""Mozilla/5.0 (Windows NT 6.1; Win64; x64) AppleWebKit/537.36 (KHTML, like Gecko) Chrome/103.0.0.0 Safari/537.36"",""platform"":""Win32"",""language"":""de-DE"",""locale"":""de"",""timeZone"":""Europe/Berlin"",""timezoneOffset"":-120,""screen_width"":1366,""screen_height"":768,""scroll_width"":667,""scroll_height"":588,""window_innerWidth"":667,""window_innerHeight"":636,""devicePixelRatio"":1}",,,,451912.7540000001,form submission,,,456194.80000000005,456193.20000000007,4247.084,4257.300000000047,4280.446,456209.253,{},
Change Background,canvas.Screen,1,2022-07-15T15:18:00.390Z,,,,,3001.0389999999898,timeout,,,459195,459193.615,456175.857,456195.5,456209.253,459210.292,,
Fixation,canvas.Screen,2_0_0_0,2022-07-15T15:18:01.958Z,,,1,AV,1567.7099999999627,timeout,,,460762.70000000007,460761.325,459193.615,459196.5,459210.292,460778.002,,grey
Stimulus,canvas.Screen,2_0_0_1,2022-07-15T15:18:02.065Z,,,1,AV,108.09799999999814,timeout,,,460870.1,460869.431,460761.325,460763.1,460778.002,460886.1,,grey
Reaction,canvas.Screen,2_0_0_2,2022-07-15T15:18:02.460Z,,,1,AV,376.5,response,stim_detected,mousedown,461264.6,461262.6,460869.431,460870.30000000005,460886.1,461278.316,,grey
Trial,flow.Sequence,2_0_0,2022-07-15T15:18:02.460Z,,,1,AV,2052.307999999961,completion,,,461265.1,461262.6,459193.615,459196.4,459210.292,461278.316,,grey
Frame,canvas.Frame,2_0,2022-07-15T15:18:02.461Z,,,1,AV,2055.1080000000075,,,,461265.70000000007,461265.4,459193.615,459195.4,459210.292,461278.316,,grey
Fixation,canvas.Screen,2_1_0_0,2022-07-15T15:18:04.376Z,,,0,V,1917.7339999999967,timeout,,,463180.70000000007,463179.374,461261.639,461266.80000000005,461278.316,463196.05,,grey
Stimulus,canvas.Screen,2_1_0_1,2022-07-15T15:18:04.476Z,,,0,V,100.31400000001304,timeout,,,463280.9,463279.685,463179.374,463180.9,463196.05,463296.364,,grey
Reaction,canvas.Screen,2_1_0_2,2022-07-15T15:18:05.002Z,,,0,V,509.1359999999986,response,stim_detected,mousedown,463807.20000000007,463805.5,463279.685,463281.30000000005,463296.364,463813.341,,grey
Trial,flow.Sequence,2_1_0,2022-07-15T15:18:05.003Z,,,0,V,2527.1840000000084,completion,,,463808.1,463805.5,461261.639,461266.70000000007,461278.316,463813.341,,grey
Frame,canvas.Frame,2_1,2022-07-15T15:18:05.004Z,,,0,V,2529.984000000055,,,,463808.6,463808.30000000005,461261.639,461265.9,461278.316,463813.341,,grey
Fixation,canvas.Screen,2_2_0_0,2022-07-15T15:18:06.995Z,,,1,AV,2001.3729999999632,timeout,,,465799.9,465798.036,463796.664,463809.9,463813.341,465814.714,,grey
Stimulus,canvas.Screen,2_2_0_1,2022-07-15T15:18:07.095Z,,,1,AV,99.84600000001956,timeout,,,465899.5,465897.884,465798.036,465800.30000000005,465814.714,465914.56,,grey
Reaction,canvas.Screen,2_2_0_2,2022-07-15T15:18:07.262Z,,,1,AV,150.8400000000256,response,stim_detected,mousedown,466067.1,466065.4,465897.884,465899.70000000007,465914.56,466081.483,,grey
Trial,flow.Sequence,2_2_0,2022-07-15T15:18:07.263Z,,,1,AV,2252.0590000000084,completion,,,466067.70000000007,466065.4,463796.664,463809.80000000005,463813.341,466081.483,,grey
Frame,canvas.Frame,2_2,2022-07-15T15:18:07.263Z,,,1,AV,2254.658999999985,,,,466068.20000000007,466068,463796.664,463808.9,463813.341,466081.483,,grey
Fixation,canvas.Screen,2_3_0_0,2022-07-15T15:18:09.678Z,,,0,V,2416.902000000002,timeout,,,468483,468481.716,466064.806,466069.70000000007,466081.483,468498.385,,grey
Stimulus,canvas.Screen,2_3_0_1,2022-07-15T15:18:09.780Z,,,0,V,101.49099999997998,timeout,,,468584.80000000005,468583.193,468481.716,468483.20000000007,468498.385,468599.876,,grey
Reaction,canvas.Screen,2_3_0_2,2022-07-15T15:18:09.934Z,,,0,V,137.524000000034,response,stim_detected,mousedown,468738.9,468737.4,468583.193,468585,468599.876,468749.883,,grey
Trial,flow.Sequence,2_3_0,2022-07-15T15:18:09.935Z,,,0,V,2655.917000000016,completion,,,468739.4,468737.4,466064.806,466069.5,466081.483,468749.883,,grey
Frame,canvas.Frame,2_3,2022-07-15T15:18:09.935Z,,,0,V,2658.1169999999693,,,,468739.9,468739.6,466064.806,466068.5,466081.483,468749.883,,grey
Fixation,canvas.Screen,2_4_0_0,2022-07-15T15:18:12.382Z,,,1,AV,2451.850000000035,timeout,,,471186.80000000005,471185.054,468733.206,468741.30000000005,468749.883,471201.733,,grey
Stimulus,canvas.Screen,2_4_0_1,2022-07-15T15:18:12.481Z,,,1,AV,99.71000000002095,timeout,,,471285.80000000005,471284.767,471185.054,471187.1,471201.733,471301.443,,grey
Reaction,canvas.Screen,2_4_0_2,2022-07-15T15:18:12.614Z,,,1,AV,115.85700000001816,response,stim_detected,mousedown,471419.30000000005,471417.30000000005,471284.767,471286.20000000007,471301.443,471434.977,,grey
Trial,flow.Sequence,2_4_0,2022-07-15T15:18:12.615Z,,,1,AV,2667.417000000074,completion,,,471419.70000000007,471417.30000000005,468733.206,468741.1,468749.883,471434.977,,grey
Frame,canvas.Frame,2_4,2022-07-15T15:18:12.615Z,,,1,AV,2669.8170000000973,,,,471420,471419.70000000007,468733.206,468740.1,468749.883,471434.977,,grey
Fixation,canvas.Screen,2_5_0_0,2022-07-15T15:18:14.783Z,,,0,V,2168.158999999985,timeout,,,473587.9,473586.458,471418.3,471421.30000000005,471434.977,473603.136,,grey
Stimulus,canvas.Screen,2_5_0_1,2022-07-15T15:18:14.883Z,,,0,V,99.95400000002701,timeout,,,473687.9,473686.413,473586.458,473588.20000000007,473603.136,473703.09,,grey
Reaction,canvas.Screen,2_5_0_2,2022-07-15T15:18:15.119Z,,,0,V,219.11000000004424,response,stim_detected,mousedown,473923.80000000005,473922.20000000007,473686.413,473688.20000000007,473703.09,473936.617,,grey
Trial,flow.Sequence,2_5_0,2022-07-15T15:18:15.119Z,,,0,V,2487.2230000000563,completion,,,473924.20000000007,473922.20000000007,471418.3,471421.20000000007,471434.977,473936.617,,grey
Frame,canvas.Frame,2_5,2022-07-15T15:18:15.120Z,,,0,V,2489.323000000033,,,,473924.5,473924.30000000005,471418.3,471420.1,471434.977,473936.617,,grey
Fixation,canvas.Screen,2_6_0_0,2022-07-15T15:18:16.718Z,,,1,AV,1601.2329999999492,timeout,,,475523.20000000007,475521.171,473919.94,473925.70000000007,473936.617,475537.85,,grey
Stimulus,canvas.Screen,2_6_0_1,2022-07-15T15:18:16.817Z,,,1,AV,99.81100000004517,timeout,,,475622.20000000007,475620.985,475521.171,475523.70000000007,475537.85,475637.661,,grey
Reaction,canvas.Screen,2_6_0_2,2022-07-15T15:18:16.930Z,,,1,AV,95.53900000004796,response,stim_detected,mousedown,475734.9,475733.20000000007,475620.985,475622.5,475637.661,475737.745,,grey
Trial,flow.Sequence,2_6_0,2022-07-15T15:18:16.930Z,,,1,AV,1796.5830000000424,completion,,,475735.30000000005,475733.20000000007,473919.94,473925.5,473936.617,475737.745,,grey
Frame,canvas.Frame,2_6,2022-07-15T15:18:16.931Z,,,1,AV,1798.9829999999492,,,,475735.80000000005,475735.6,473919.94,473924.70000000007,473936.617,475737.745,,grey
Fixation,canvas.Screen,2_7_0_0,2022-07-15T15:18:19.253Z,,,0,V,2336.1450000000186,timeout,,,478057.80000000005,478057.204,475721.069,475737,475737.745,478073.89,,grey
Stimulus,canvas.Screen,2_7_0_1,2022-07-15T15:18:19.352Z,,,0,V,98.33499999996275,timeout,,,478157.1,478155.551,478057.204,478057.9,478073.89,478172.225,,grey
Reaction,canvas.Screen,2_7_0_2,2022-07-15T15:18:19.468Z,,,0,V,98.875,response,stim_detected,mousedown,478272.6,478271.1,478155.551,478157.30000000005,478172.225,478289.425,,grey
Trial,flow.Sequence,2_7_0,2022-07-15T15:18:19.468Z,,,0,V,2533.3549999999814,completion,,,478273.1,478271.1,475721.069,475736.9,475737.745,478289.425,,grey
Frame,canvas.Frame,2_7,2022-07-15T15:18:19.469Z,,,0,V,2535.555000000051,,,,478273.4,478273.30000000005,475721.069,475736,475737.745,478289.425,,grey
Fixation,canvas.Screen,2_8_0_0,2022-07-15T15:18:21.254Z,,,0,V,1784.9150000000373,timeout,,,480059,480057.659,478272.748,478274.70000000007,478289.425,480074.34,,grey
Stimulus,canvas.Screen,2_8_0_1,2022-07-15T15:18:21.354Z,,,0,V,99.67099999997299,timeout,,,480159,480157.32,480057.659,480059.4,480074.34,480174.011,,grey
Reaction,canvas.Screen,2_8_0_2,2022-07-15T15:18:21.705Z,,,0,V,333.9890000000014,response,stim_detected,mousedown,480509.80000000005,480508,480157.32,480159.30000000005,480174.011,480524.228,,grey
Trial,flow.Sequence,2_8_0,2022-07-15T15:18:21.705Z,,,0,V,2218.5750000000116,completion,,,480510.20000000007,480508,478272.748,478274.6,478289.425,480524.228,,grey
Frame,canvas.Frame,2_8,2022-07-15T15:18:21.706Z,,,0,V,2220.875000000058,,,,480510.5,480510.30000000005,478272.748,478273.6,478289.425,480524.228,,grey
Fixation,canvas.Screen,2_9_0_0,2022-07-15T15:18:23.838Z,,,0,V,2134.058000000019,timeout,,,482643.1,482641.613,480507.551,480511.9,480524.228,482658.286,,grey
Stimulus,canvas.Screen,2_9_0_1,2022-07-15T15:18:23.938Z,,,0,V,100.55199999996694,timeout,,,482743.30000000005,482742.162,482641.613,482643.4,482658.286,482758.838,,grey
Reaction,canvas.Screen,2_9_0_2,2022-07-15T15:18:24.078Z,,,0,V,122.06200000003446,response,stim_detected,mousedown,482882.4,482880.9,482742.162,482743.6,482758.838,482892.465,,grey
Trial,flow.Sequence,2_9_0,2022-07-15T15:18:24.078Z,,,0,V,2356.6720000000205,completion,,,482882.80000000005,482880.9,480507.551,480511.9,480524.228,482892.465,,grey
Frame,canvas.Frame,2_9,2022-07-15T15:18:24.078Z,,,0,V,2358.6720000000205,,,,482883.20000000007,482882.9,480507.551,480510.70000000007,480524.228,482892.465,,grey
Fixation,canvas.Screen,2_10_0_0,2022-07-15T15:18:26.190Z,,,1,A,2117.8429999999935,timeout,,,484995.20000000007,484993.632,482875.788,482884.30000000005,482892.465,485010.308,,black
Stimulus,canvas.Screen,2_10_0_1,2022-07-15T15:18:26.289Z,,,1,A,99.32600000000093,timeout,,,485094.30000000005,485092.964,484993.632,484995.5,485010.308,485109.634,,black
Reaction,canvas.Screen,2_10_0_2,2022-07-15T15:18:26.780Z,,,1,A,473.26600000000326,response,stim_detected,mousedown,485584.80000000005,485582.9,485092.964,485094.70000000007,485109.634,485594.173,,black
Trial,flow.Sequence,2_10_0,2022-07-15T15:18:26.780Z,,,1,A,2690.4349999999977,completion,,,485585.30000000005,485582.9,482875.788,482884.30000000005,482892.465,485594.173,,black
Frame,canvas.Frame,2_10,2022-07-15T15:18:26.781Z,,,1,A,2693.0349999999744,,,,485585.70000000007,485585.5,482875.788,482883.4,482892.465,485594.173,,black
Fixation,canvas.Screen,2_11_0_0,2022-07-15T15:18:29.111Z,,,0,V,2336.2660000000033,timeout,,,487915.70000000007,487913.753,485577.496,485587.1,485594.173,487930.439,,grey
Stimulus,canvas.Screen,2_11_0_1,2022-07-15T15:18:29.208Z,,,0,V,98.69699999998556,timeout,,,488013.4,488012.196,487913.753,487915.9,487930.439,488029.136,,grey
Reaction,canvas.Screen,2_11_0_2,2022-07-15T15:18:29.413Z,,,0,V,186.76400000002468,response,stim_detected,mousedown,488217.4,488215.9,488012.196,488013.6,488029.136,488229.26,,grey
Trial,flow.Sequence,2_11_0,2022-07-15T15:18:29.413Z,,,0,V,2621.7270000000135,completion,,,488217.80000000005,488215.9,485577.496,485586.9,485594.173,488229.26,,grey
Frame,canvas.Frame,2_11,2022-07-15T15:18:29.413Z,,,0,V,2623.7270000000135,,,,488218.1,488217.9,485577.496,485586,485594.173,488229.26,,grey
Fixation,canvas.Screen,2_12_0_0,2022-07-15T15:18:31.378Z,,,1,AV,1968.1579999999958,timeout,,,490182.4,490180.739,488212.583,488219.1,488229.26,490197.418,,grey
Stimulus,canvas.Screen,2_12_0_1,2022-07-15T15:18:31.477Z,,,1,AV,99.42699999996694,timeout,,,490281.4,490280.171,490180.739,490182.70000000007,490197.418,490296.845,,grey
Reaction,canvas.Screen,2_12_0_2,2022-07-15T15:18:31.615Z,,,1,AV,120.9550000000745,response,stim_detected,mousedown,490419.4,490417.80000000005,490280.171,490282.4,490296.845,490430.708,,grey
Trial,flow.Sequence,2_12_0,2022-07-15T15:18:31.615Z,,,1,AV,2188.5400000000373,completion,,,490419.80000000005,490417.80000000005,488212.583,488219.1,488229.26,490430.708,,grey
Frame,canvas.Frame,2_12,2022-07-15T15:18:31.615Z,,,1,AV,2190.640000000014,,,,490420,490419.9,488212.583,488218.20000000007,488229.26,490430.708,,grey
Fixation,canvas.Screen,2_13_0_0,2022-07-15T15:18:33.878Z,,,1,AV,2267.3360000000102,timeout,,,492682.4,492681.372,490414.031,490421.30000000005,490430.708,492698.044,,grey
Stimulus,canvas.Screen,2_13_0_1,2022-07-15T15:18:33.978Z,,,1,AV,100.2390000000014,timeout,,,492783.1,492781.61,492681.372,492682.80000000005,492698.044,492798.283,,grey
Reaction,canvas.Screen,2_13_0_2,2022-07-15T15:18:34.100Z,,,1,AV,105.51700000005076,response,stim_detected,mousedown,492905.20000000007,492903.80000000005,492781.61,492783.30000000005,492798.283,492915.625,,grey
Trial,flow.Sequence,2_13_0,2022-07-15T15:18:34.101Z,,,1,AV,2473.0920000000624,completion,,,492905.70000000007,492903.80000000005,490414.031,490421.1,490430.708,492915.625,,grey
Frame,canvas.Frame,2_13,2022-07-15T15:18:34.101Z,,,1,AV,2475.0920000000624,,,,492906,492905.80000000005,490414.031,490420.20000000007,490430.708,492915.625,,grey
Fixation,canvas.Screen,2_14_0_0,2022-07-15T15:18:36.399Z,,,1,A,2303.0169999999925,timeout,,,495203.6,495201.954,492898.948,492907,492915.625,495218.642,,black
Stimulus,canvas.Screen,2_14_0_1,2022-07-15T15:18:36.497Z,,,1,A,98.0350000000326,timeout,,,495301.70000000007,495300.004,495201.954,495203.9,495218.642,495316.677,,black
Reaction,canvas.Screen,2_14_0_2,2022-07-15T15:18:36.622Z,,,1,A,109.0230000000447,response,stim_detected,mousedown,495427.20000000007,495425.70000000007,495300.004,495301.9,495316.677,495433.929,,black
Trial,flow.Sequence,2_14_0,2022-07-15T15:18:36.623Z,,,1,A,2510.07500000007,completion,,,495427.6,495425.70000000007,492898.948,492906.9,492915.625,495433.929,,black
Frame,canvas.Frame,2_14,2022-07-15T15:18:36.623Z,,,1,A,2512.1750000000466,,,,495427.9,495427.80000000005,492898.948,492906.20000000007,492915.625,495433.929,,black
Fixation,canvas.Screen,2_15_0_0,2022-07-15T15:18:38.165Z,,,1,A,1551.4859999999753,timeout,,,496969.6,496968.733,495417.252,495429,495433.929,496985.415,,black
Stimulus,canvas.Screen,2_15_0_1,2022-07-15T15:18:38.265Z,,,1,A,99.62700000003679,timeout,,,497069.70000000007,497068.365,496968.733,496969.80000000005,496985.415,497085.042,,black
Reaction,canvas.Screen,2_15_0_2,2022-07-15T15:18:38.435Z,,,1,A,153.55799999996088,response,stim_detected,mousedown,497240.20000000007,497238.6,497068.365,497070,497085.042,497251.816,,black
Trial,flow.Sequence,2_15_0,2022-07-15T15:18:38.436Z,,,1,A,1804.670999999973,completion,,,497240.6,497238.6,495417.252,495428.9,495433.929,497251.816,,black
Frame,canvas.Frame,2_15,2022-07-15T15:18:38.436Z,,,1,A,1806.7710000000661,,,,497241,497240.70000000007,495417.252,495428.20000000007,495433.929,497251.816,,black
Fixation,canvas.Screen,2_16_0_0,2022-07-15T15:18:40.216Z,,,1,A,1784.5400000000373,timeout,,,499020.80000000005,499019.678,497235.139,497242,497251.816,499036.356,,black
Stimulus,canvas.Screen,2_16_0_1,2022-07-15T15:18:40.316Z,,,1,A,100.04599999997299,timeout,,,499120.70000000007,499119.725,499019.678,499021.20000000007,499036.356,499136.402,,black
Reaction,canvas.Screen,2_16_0_2,2022-07-15T15:18:40.462Z,,,1,A,129.19799999997485,response,stim_detected,mousedown,499267.20000000007,499265.6,499119.725,499120.9,499136.402,499269.754,,black
Trial,flow.Sequence,2_16_0,2022-07-15T15:18:40.463Z,,,1,A,2013.783999999985,completion,,,499267.5,499265.6,497235.139,497241.9,497251.816,499269.754,,black
Frame,canvas.Frame,2_16,2022-07-15T15:18:40.463Z,,,1,A,2015.783999999985,,,,499267.9,499267.6,497235.139,497241.20000000007,497251.816,499269.754,,black
Fixation,canvas.Screen,2_17_0_0,2022-07-15T15:18:42.768Z,,,1,AV,2318.5709999999963,timeout,,,501572.80000000005,501571.645,499253.078,499269,499269.754,501588.325,,grey
Stimulus,canvas.Screen,2_17_0_1,2022-07-15T15:18:42.868Z,,,1,AV,99.78899999998976,timeout,,,501672.70000000007,501671.436,501571.645,501573,501588.325,501688.114,,grey
Reaction,canvas.Screen,2_17_0_2,2022-07-15T15:18:42.983Z,,,1,AV,98.48599999997532,response,stim_detected,mousedown,501788,501786.6,501671.436,501673,501688.114,501804.763,,grey
Trial,flow.Sequence,2_17_0,2022-07-15T15:18:42.984Z,,,1,AV,2516.8459999999614,completion,,,501788.5,501786.6,499253.078,499268.9,499269.754,501804.763,,grey
Frame,canvas.Frame,2_17,2022-07-15T15:18:42.984Z,,,1,AV,2518.9460000000545,,,,501788.80000000005,501788.70000000007,499253.078,499268.1,499269.754,501804.763,,grey
Fixation,canvas.Screen,2_18_0_0,2022-07-15T15:18:45.070Z,,,1,A,2085.5750000000116,timeout,,,503874.80000000005,503873.654,501788.086,501790.30000000005,501804.763,503890.338,,black
Stimulus,canvas.Screen,2_18_0_1,2022-07-15T15:18:45.169Z,,,1,A,99.05499999999302,timeout,,,503973.80000000005,503972.717,503873.654,503875.1,503890.338,503989.393,,black
Reaction,canvas.Screen,2_18_0_2,2022-07-15T15:18:45.316Z,,,1,A,130.00700000004144,response,stim_detected,mousedown,504121.30000000005,504119.4,503972.717,503974.1,503989.393,504122.965,,black
Trial,flow.Sequence,2_18_0,2022-07-15T15:18:45.317Z,,,1,A,2314.637000000046,completion,,,504121.70000000007,504119.4,501788.086,501790.1,501804.763,504122.965,,black
Frame,canvas.Frame,2_18,2022-07-15T15:18:45.317Z,,,1,A,2317.0370000000694,,,,504122.1,504121.80000000005,501788.086,501789.1,501804.763,504122.965,,black
Fixation,canvas.Screen,2_19_0_0,2022-07-15T15:18:47.054Z,,,1,AV,1751.0939999999828,timeout,,,505858.4,505857.382,504106.288,504123.4,504122.965,505874.059,,grey
Stimulus,canvas.Screen,2_19_0_1,2022-07-15T15:18:47.154Z,,,1,AV,99.98099999997066,timeout,,,505958.9,505957.364,505857.382,505858.6,505874.059,505974.04,,grey
Reaction,canvas.Screen,2_19_0_2,2022-07-15T15:18:47.270Z,,,1,AV,99.36000000004424,response,stim_detected,mousedown,506074.9,506073.4,505957.364,505959.20000000007,505974.04,506090.898,,grey
Trial,flow.Sequence,2_19_0,2022-07-15T15:18:47.270Z,,,1,AV,1950.4349999999977,completion,,,506075.30000000005,506073.4,504106.288,504123.20000000007,504122.965,506090.898,,grey
Frame,canvas.Frame,2_19,2022-07-15T15:18:47.271Z,,,1,AV,1952.4349999999977,,,,506075.6,506075.4,504106.288,504122.30000000005,504122.965,506090.898,,grey
Fixation,canvas.Screen,2_20_0_0,2022-07-15T15:18:49.741Z,,,1,A,2468.837999999989,timeout,,,508544.1,508543.055,506074.221,506076.70000000007,506090.898,508559.736,,black
Stimulus,canvas.Screen,2_20_0_1,2022-07-15T15:18:49.841Z,,,1,A,98.79000000003725,timeout,,,508643.4,508641.854,508543.055,508544.20000000007,508559.736,508658.526,,black
Reaction,canvas.Screen,2_20_0_2,2022-07-15T15:18:50.085Z,,,1,A,228.57399999996414,response,stim_detected,mousedown,508888,508887.1,508641.854,508643.70000000007,508658.526,508892.711,,black
Trial,flow.Sequence,2_20_0,2022-07-15T15:18:50.085Z,,,1,A,2796.20199999999,completion,,,508888.30000000005,508887.1,506074.221,506076.6,506090.898,508892.711,,black
Frame,canvas.Frame,2_20,2022-07-15T15:18:50.086Z,,,1,A,2797.40200000006,,,,508888.4,508888.30000000005,506074.221,506075.80000000005,506090.898,508892.711,,black
Fixation,canvas.Screen,2_21_0_0,2022-07-15T15:18:51.975Z,,,0,V,1901.0629999999655,timeout,,,510778.1,510777.098,508876.034,508888.9,508892.711,510793.774,,grey
Stimulus,canvas.Screen,2_21_0_1,2022-07-15T15:18:52.077Z,,,0,V,100.29300000000512,timeout,,,510879.30000000005,510877.389,510777.098,510778.5,510793.774,510894.067,,grey
Reaction,canvas.Screen,2_21_0_2,2022-07-15T15:18:52.243Z,,,0,V,150.23300000006566,response,stim_detected,mousedown,511046,511044.30000000005,510877.389,510879.6,510894.067,511060.819,,grey
Trial,flow.Sequence,2_21_0,2022-07-15T15:18:52.244Z,,,0,V,2151.5890000000363,completion,,,511046.5,511044.30000000005,508876.034,508888.9,508892.711,511060.819,,grey
Frame,canvas.Frame,2_21,2022-07-15T15:18:52.244Z,,,0,V,2153.9890000000596,,,,511046.9,511046.70000000007,508876.034,508888.4,508892.711,511060.819,,grey
Fixation,canvas.Screen,2_22_0_0,2022-07-15T15:18:53.826Z,,,0,V,1583.994000000006,timeout,,,512629.1,512628.139,511044.142,511048.1,511060.819,512644.813,,grey
Stimulus,canvas.Screen,2_22_0_1,2022-07-15T15:18:53.927Z,,,0,V,100.49399999994785,timeout,,,512730.1,512728.629,512628.139,512629.30000000005,512644.813,512745.307,,grey
Reaction,canvas.Screen,2_22_0_2,2022-07-15T15:18:54.077Z,,,0,V,132.99300000007497,response,stim_detected,mousedown,512879.9,512878.30000000005,512728.629,512730.4,512745.307,512895.367,,grey
Trial,flow.Sequence,2_22_0,2022-07-15T15:18:54.078Z,,,0,V,1817.4810000000289,completion,,,512880.4,512878.30000000005,511044.142,511048,511060.819,512895.367,,grey
Frame,canvas.Frame,2_22,2022-07-15T15:18:54.078Z,,,0,V,1819.780999999959,,,,512880.80000000005,512880.6,511044.142,511047.1,511060.819,512895.367,,grey
Fixation,canvas.Screen,2_23_0_0,2022-07-15T15:18:55.861Z,,,1,A,1784.0839999999735,timeout,,,514664.1,514662.777,512878.69,512882,512895.367,514679.451,,black
Stimulus,canvas.Screen,2_23_0_1,2022-07-15T15:18:55.961Z,,,1,A,100.12099999998463,timeout,,,514763.6,514762.898,514662.777,514664.4,514679.451,514779.572,,black
Reaction,canvas.Screen,2_23_0_2,2022-07-15T15:18:56.138Z,,,1,A,159.52799999999115,response,stim_detected,mousedown,514941.20000000007,514939.1,514762.898,514763.80000000005,514779.572,514946.638,,black
Trial,flow.Sequence,2_23_0,2022-07-15T15:18:56.139Z,,,1,A,2043.7329999999492,completion,,,514941.6,514939.1,512878.69,512881.80000000005,512895.367,514946.638,,black
Frame,canvas.Frame,2_23,2022-07-15T15:18:56.139Z,,,1,A,2046.433000000019,,,,514942,514941.80000000005,512878.69,512881,512895.367,514946.638,,black
Fixation,canvas.Screen,2_24_0_0,2022-07-15T15:18:57.979Z,,,1,A,1850.664000000048,timeout,,,516782.20000000007,516780.629,514929.961,514943.20000000007,514946.638,516797.302,,black
Stimulus,canvas.Screen,2_24_0_1,2022-07-15T15:18:58.079Z,,,1,A,100.72399999998743,timeout,,,516882,516881.348,516780.629,516782.4,516797.302,516898.026,,black
Reaction,canvas.Screen,2_24_0_2,2022-07-15T15:18:58.209Z,,,1,A,112.07399999996414,response,stim_detected,mousedown,517011.5,517010.1,516881.348,516882.30000000005,516898.026,517014.653,,black
Trial,flow.Sequence,2_24_0,2022-07-15T15:18:58.209Z,,,1,A,2063.4619999999995,completion,,,517012,517010.1,514929.961,514943.1,514946.638,517014.653,,black
Frame,canvas.Frame,2_24,2022-07-15T15:18:58.209Z,,,1,A,2065.362000000023,,,,517012.30000000005,517012,514929.961,514942.20000000007,514946.638,517014.653,,black
Fixation,canvas.Screen,2_25_0_0,2022-07-15T15:19:00.333Z,,,0,V,2136.011999999988,timeout,,,519135.30000000005,519133.978,516997.976,517013.30000000005,517014.653,519150.665,,grey
Stimulus,canvas.Screen,2_25_0_1,2022-07-15T15:19:00.431Z,,,0,V,98.8300000000163,timeout,,,519234.30000000005,519232.818,519133.978,519135.6,519150.665,519249.495,,grey
Reaction,canvas.Screen,2_25_0_2,2022-07-15T15:19:00.578Z,,,0,V,129.60499999998137,response,stim_detected,mousedown,519380.70000000007,519379.1,519232.818,519234.5,519249.495,519399.542,,grey
Trial,flow.Sequence,2_25_0,2022-07-15T15:19:00.578Z,,,0,V,2364.4469999999856,completion,,,519381.1,519379.1,516997.976,517013.20000000007,517014.653,519399.542,,grey
Frame,canvas.Frame,2_25,2022-07-15T15:19:00.579Z,,,0,V,2366.6470000000554,,,,519381.4,519381.30000000005,516997.976,517012.4,517014.653,519399.542,,grey
Fixation,canvas.Screen,2_26_0_0,2022-07-15T15:19:02.182Z,,,0,V,1601.478999999992,timeout,,,520985.1,520984.34,519366.194,519405.80000000005,519399.542,521001.021,,grey
Stimulus,canvas.Screen,2_26_0_1,2022-07-15T15:19:02.282Z,,,0,V,99.66200000001118,timeout,,,521085.20000000007,521084.006,520984.34,520985.20000000007,521001.021,521100.683,,grey
Reaction,canvas.Screen,2_26_0_2,2022-07-15T15:19:02.429Z,,,0,V,129.3169999999809,response,stim_detected,mousedown,521231.6,521230,521084.006,521085.5,521100.683,521234.057,,grey
Trial,flow.Sequence,2_26_0,2022-07-15T15:19:02.429Z,,,0,V,1830.4579999999842,completion,,,521232,521230,519366.194,519405.6,519399.542,521234.057,,grey
Frame,canvas.Frame,2_26,2022-07-15T15:19:02.430Z,,,0,V,1832.5579999999609,,,,521232.30000000005,521232.1,519366.194,519381.6,519399.542,521234.057,,grey
Fixation,canvas.Screen,2_27_0_0,2022-07-15T15:19:03.918Z,,,0,V,1501.878000000026,timeout,,,522720.4,522719.249,521217.381,521233.30000000005,521234.057,522735.935,,grey
Stimulus,canvas.Screen,2_27_0_1,2022-07-15T15:19:04.017Z,,,0,V,99.03000000002794,timeout,,,522819.4,522818.29,522719.249,522720.70000000007,522735.935,522834.965,,grey
Reaction,canvas.Screen,2_27_0_2,2022-07-15T15:19:04.206Z,,,0,V,172.0349999999744,response,stim_detected,mousedown,523008.4,523007,522818.29,522819.6,522834.965,523018.606,,grey
Trial,flow.Sequence,2_27_0,2022-07-15T15:19:04.206Z,,,0,V,1772.9430000000284,completion,,,523008.80000000005,523007,521217.381,521233.20000000007,521234.057,523018.606,,grey
Frame,canvas.Frame,2_27,2022-07-15T15:19:04.206Z,,,0,V,1774.9430000000284,,,,523009.20000000007,523009,521217.381,521232.5,521234.057,523018.606,,grey
Fixation,canvas.Screen,2_28_0_0,2022-07-15T15:19:06.419Z,,,1,AV,2218.201999999932,timeout,,,525221.4,525220.13,523001.929,523010.30000000005,523018.606,525236.808,,grey
Stimulus,canvas.Screen,2_28_0_1,2022-07-15T15:19:06.519Z,,,1,AV,99.5,timeout,,,525321.5,525319.634,525220.13,525221.6,525236.808,525336.308,,grey
Reaction,canvas.Screen,2_28_0_2,2022-07-15T15:19:06.646Z,,,1,AV,110.69200000003912,response,stim_detected,mousedown,525448.4,525447,525319.634,525321.7000000001,525336.308,525453.509,,grey
Trial,flow.Sequence,2_28_0,2022-07-15T15:19:06.646Z,,,1,AV,2428.393999999971,completion,,,525448.8,525447,523001.929,523010.20000000007,523018.606,525453.509,,grey
Frame,canvas.Frame,2_28,2022-07-15T15:19:06.646Z,,,1,AV,2430.393999999971,,,,525449.1,525449,523001.929,523009.4,523018.606,525453.509,,grey
Fixation,canvas.Screen,2_29_0_0,2022-07-15T15:19:08.854Z,,,0,V,2218.7660000000615,timeout,,,527656.6,527655.593,525436.832,525450.5,525453.509,527672.275,,grey
Stimulus,canvas.Screen,2_29_0_1,2022-07-15T15:19:08.954Z,,,0,V,99.50699999998324,timeout,,,527756.5,527755.104,527655.593,527656.7000000001,527672.275,527771.782,,grey
Reaction,canvas.Screen,2_29_0_2,2022-07-15T15:19:09.110Z,,,0,V,139.11800000001676,response,stim_detected,mousedown,527912.3,527910.9,527755.104,527756.9,527771.782,527921.813,,grey
Trial,flow.Sequence,2_29_0,2022-07-15T15:19:09.110Z,,,0,V,2457.3910000000615,completion,,,527912.7000000001,527910.9,525436.832,525450.4,525453.509,527921.813,,grey
Frame,canvas.Frame,2_29,2022-07-15T15:19:09.110Z,,,0,V,2459.3910000000615,,,,527913,527912.9,525436.832,525449.3,525453.509,527921.813,,grey
Fixation,canvas.Screen,2_30_0_0,2022-07-15T15:19:11.122Z,,,1,A,2017.8880000000354,timeout,,,529924.6,529923.024,527905.136,527935,527921.813,529939.701,,black
Stimulus,canvas.Screen,2_30_0_1,2022-07-15T15:19:11.221Z,,,1,A,99.54399999999441,timeout,,,530023.7000000001,530022.573,529923.024,529925,529939.701,530039.245,,black
Reaction,canvas.Screen,2_30_0_2,2022-07-15T15:19:11.419Z,,,1,A,180.55500000005122,response,stim_detected,mousedown,530221.4,530219.8,530022.573,530023.9,530039.245,530223.269,,black
Trial,flow.Sequence,2_30_0,2022-07-15T15:19:11.419Z,,,1,A,2297.987000000081,completion,,,530221.8,530219.8,527905.136,527934.9,527921.813,530223.269,,black
Frame,canvas.Frame,2_30,2022-07-15T15:19:11.419Z,,,1,A,2300.1870000000345,,,,530222.2000000001,530222,527905.136,527913.2000000001,527921.813,530223.269,,black
Fixation,canvas.Screen,2_31_0_0,2022-07-15T15:19:13.625Z,,,1,A,2219.840000000084,timeout,,,532427.6,532426.419,530206.592,530223.3,530223.269,532443.109,,black
Stimulus,canvas.Screen,2_31_0_1,2022-07-15T15:19:13.723Z,,,1,A,98.38699999998789,timeout,,,532525.7000000001,532524.402,532426.419,532427.9,532443.109,532541.496,,black
Reaction,canvas.Screen,2_31_0_2,2022-07-15T15:19:13.848Z,,,1,A,107.10399999993388,response,stim_detected,mousedown,532650.5,532648.6,532524.402,532526,532541.496,532658.235,,black
Trial,flow.Sequence,2_31_0,2022-07-15T15:19:13.848Z,,,1,A,2425.3310000000056,completion,,,532650.9,532648.6,530206.592,530223.2000000001,530223.269,532658.235,,black
Frame,canvas.Frame,2_31,2022-07-15T15:19:13.848Z,,,1,A,2427.8310000000056,,,,532651.2000000001,532651.1,530206.592,530222.4,530223.269,532658.235,,black
Fixation,canvas.Screen,2_32_0_0,2022-07-15T15:19:16.291Z,,,1,AV,2451.216000000015,timeout,,,535094.1,535092.776,532641.558,532652.3,532658.235,535109.451,,grey
Stimulus,canvas.Screen,2_32_0_1,2022-07-15T15:19:16.392Z,,,1,AV,100.42799999995623,timeout,,,535194.9,535193.1,535092.776,535094.3,535109.451,535209.879,,grey
Reaction,canvas.Screen,2_32_0_2,2022-07-15T15:19:16.508Z,,,1,AV,98.82100000011269,response,stim_detected,mousedown,535310.3,535308.7000000001,535193.1,535195.1,535209.879,535326.618,,grey
Trial,flow.Sequence,2_32_0,2022-07-15T15:19:16.508Z,,,1,AV,2650.465000000084,completion,,,535310.7000000001,535308.7000000001,532641.558,532652.2000000001,532658.235,535326.618,,grey
Frame,canvas.Frame,2_32,2022-07-15T15:19:16.508Z,,,1,AV,2652.5650000000605,,,,535311,535310.8,532641.558,532651.4,532658.235,535326.618,,grey
Fixation,canvas.Screen,2_33_0_0,2022-07-15T15:19:18.910Z,,,1,A,2402.1110000000335,timeout,,,537713,537712.048,535309.941,535312.3,535326.618,537728.729,,black
Stimulus,canvas.Screen,2_33_0_1,2022-07-15T15:19:19.010Z,,,1,A,99.60899999993853,timeout,,,537812.9,537811.66,537712.048,537713.4,537728.729,537828.338,,black
Reaction,canvas.Screen,2_33_0_2,2022-07-15T15:19:19.138Z,,,1,A,110.86200000008103,response,stim_detected,mousedown,537940.9,537939.2000000001,537811.66,537813.1,537828.338,537945.001,,black
Trial,flow.Sequence,2_33_0,2022-07-15T15:19:19.139Z,,,1,A,2612.582000000053,completion,,,537941.3,537939.2000000001,535309.941,535312.2000000001,535326.618,537945.001,,black
Frame,canvas.Frame,2_33,2022-07-15T15:19:19.139Z,,,1,A,2614.8819999999832,,,,537941.6,537941.5,535309.941,535311.2000000001,535326.618,537945.001,,black
Fixation,canvas.Screen,2_34_0_0,2022-07-15T15:19:20.978Z,,,0,V,1851.6359999999404,timeout,,,539780.8,539779.956,537928.324,537942.7000000001,537945.001,539796.637,,grey
Stimulus,canvas.Screen,2_34_0_1,2022-07-15T15:19:21.078Z,,,0,V,99.51300000003539,timeout,,,539880.9,539879.474,539779.956,539781,539796.637,539896.15,,grey
Reaction,canvas.Screen,2_34_0_2,2022-07-15T15:19:21.350Z,,,0,V,255.34999999997672,response,stim_detected,mousedown,540153,540151.5,539879.474,539881.1,539896.15,540163.103,,grey
Trial,flow.Sequence,2_34_0,2022-07-15T15:19:21.351Z,,,0,V,2206.4989999999525,completion,,,540153.8,540151.5,537928.324,537942.6,537945.001,540163.103,,grey
Frame,canvas.Frame,2_34,2022-07-15T15:19:21.351Z,,,0,V,2208.898999999976,,,,540154.1,540153.9,537928.324,537941.8,537945.001,540163.103,,grey
Fixation,canvas.Screen,2_35_0_0,2022-07-15T15:19:23.130Z,,,1,AV,1785.0219999999972,timeout,,,541932.9,541931.443,540146.426,540155.3,540163.103,541948.125,,grey
Stimulus,canvas.Screen,2_35_0_1,2022-07-15T15:19:23.229Z,,,1,AV,99.55099999997765,timeout,,,542031.9,542030.656,541931.443,541933.2000000001,541948.125,542047.676,,grey
Reaction,canvas.Screen,2_35_0_2,2022-07-15T15:19:23.338Z,,,1,AV,91.82400000002235,response,stim_detected,mousedown,542141.1,542139.5,542030.656,542032.2000000001,542047.676,542147.738,,grey
Trial,flow.Sequence,2_35_0,2022-07-15T15:19:23.339Z,,,1,AV,1976.3969999999972,completion,,,542141.5,542139.5,540146.426,540155.2000000001,540163.103,542147.738,,grey
Frame,canvas.Frame,2_35,2022-07-15T15:19:23.339Z,,,1,AV,1978.597000000067,,,,542141.8,542141.7000000001,540146.426,540154.3,540163.103,542147.738,,grey
Fixation,canvas.Screen,2_36_0_0,2022-07-15T15:19:25.765Z,,,1,AV,2435.621000000043,timeout,,,544568.1,544566.677,542131.061,542142.8,542147.738,544583.359,,grey
Stimulus,canvas.Screen,2_36_0_1,2022-07-15T15:19:25.865Z,,,1,AV,99.00599999993574,timeout,,,544667.3,544665.69,544566.677,544568.3,544583.359,544682.365,,grey
Reaction,canvas.Screen,2_36_0_2,2022-07-15T15:19:25.990Z,,,1,AV,109.93500000005588,response,stim_detected,mousedown,544793.2000000001,544792.3,544665.69,544667.6,544682.365,544799.475,,grey
Trial,flow.Sequence,2_36_0,2022-07-15T15:19:25.991Z,,,1,AV,2644.5620000000345,completion,,,544793.5,544792.3,542131.061,542142.8,542147.738,544799.475,,grey
Frame,canvas.Frame,2_36,2022-07-15T15:19:25.991Z,,,1,AV,2645.8619999999646,,,,544793.7000000001,544793.6,542131.061,542142,542147.738,544799.475,,grey
Fixation,canvas.Screen,2_37_0_0,2022-07-15T15:19:28.366Z,,,1,AV,2384.204000000027,timeout,,,547168.3,547167.006,544782.798,544794.4,544799.475,547183.679,,grey
Stimulus,canvas.Screen,2_37_0_1,2022-07-15T15:19:28.466Z,,,1,AV,100.15700000000652,timeout,,,547268.4,547267.163,547167.006,547168.8,547183.679,547283.836,,grey
Reaction,canvas.Screen,2_37_0_2,2022-07-15T15:19:28.583Z,,,1,AV,100.56400000001304,response,stim_detected,mousedown,547386.1,547384.4,547267.163,547268.7000000001,547283.836,547401.161,,grey
Trial,flow.Sequence,2_37_0,2022-07-15T15:19:28.584Z,,,1,AV,2584.9250000000466,completion,,,547386.6,547384.4,544782.798,544794.3,544799.475,547401.161,,grey
Frame,canvas.Frame,2_37,2022-07-15T15:19:28.584Z,,,1,AV,2587.32500000007,,,,547387,547386.8,544782.798,544793.8,544799.475,547401.161,,grey
Fixation,canvas.Screen,2_38_0_0,2022-07-15T15:19:30.801Z,,,1,A,2218.624000000069,timeout,,,549604.2000000001,549603.104,547384.484,547388.2000000001,547401.161,549619.785,,black
Stimulus,canvas.Screen,2_38_0_1,2022-07-15T15:19:30.901Z,,,1,A,99.34199999994598,timeout,,,549704.2000000001,549702.452,549603.104,549604.4,549619.785,549719.127,,black
Reaction,canvas.Screen,2_38_0_2,2022-07-15T15:19:31.024Z,,,1,A,106.17300000006799,response,stim_detected,mousedown,549826.8,549825.3,549702.452,549704.4,549719.127,549836.074,,black
Trial,flow.Sequence,2_38_0,2022-07-15T15:19:31.024Z,,,1,A,2424.139000000083,completion,,,549827.1,549825.3,547384.484,547388.1,547401.161,549836.074,,black
Frame,canvas.Frame,2_38,2022-07-15T15:19:31.025Z,,,1,A,2426.139000000083,,,,549827.7000000001,549827.3,547384.484,547387.2000000001,547401.161,549836.074,,black
Fixation,canvas.Screen,2_39_0_0,2022-07-15T15:19:32.652Z,,,1,A,1634.9830000000075,timeout,,,551455.2000000001,551454.374,549819.397,549828.9,549836.074,551471.057,,black
Stimulus,canvas.Screen,2_39_0_1,2022-07-15T15:19:32.752Z,,,1,A,99.47600000002421,timeout,,,551555.2000000001,551553.856,551454.374,551455.5,551471.057,551570.533,,black
Reaction,canvas.Screen,2_39_0_2,2022-07-15T15:19:32.858Z,,,1,A,88.76699999999255,response,stim_detected,mousedown,551660.7000000001,551659.3,551553.856,551555.5,551570.533,551687.254,,black
Trial,flow.Sequence,2_39_0,2022-07-15T15:19:32.858Z,,,1,A,1823.2260000000242,completion,,,551661.1,551659.3,549819.397,549828.7000000001,549836.074,551687.254,,black
Frame,canvas.Frame,2_39,2022-07-15T15:19:32.859Z,,,1,A,1825.1260000000475,,,,551661.4,551661.2000000001,549819.397,549827.9,549836.074,551687.254,,black
Fixation,canvas.Screen,2_40_0_0,2022-07-15T15:19:34.488Z,,,1,A,1635.5920000000624,timeout,,,553290.3,553289.468,551670.578,551662.5,551687.254,553322.846,,black
Stimulus,canvas.Screen,2_40_0_1,2022-07-15T15:19:34.602Z,,,1,A,98.24399999994785,timeout,,,553404.9,553404.419,553289.468,553290.5,553322.846,553421.09,,black
Reaction,canvas.Screen,2_40_0_2,2022-07-15T15:19:34.706Z,,,1,A,86.11000000010245,response,stim_detected,mousedown,553508.7000000001,553507.2000000001,553404.419,553405.1,553421.09,553521.824,,black
Trial,flow.Sequence,2_40_0,2022-07-15T15:19:34.706Z,,,1,A,1819.9460000001127,completion,,,553509,553507.2000000001,551670.578,551662.3,551687.254,553521.824,,black
Frame,canvas.Frame,2_40,2022-07-15T15:19:34.707Z,,,1,A,1821.8460000000196,,,,553509.4,553509.1,551670.578,551661.6,551687.254,553521.824,,black
Fixation,canvas.Screen,2_41_0_0,2022-07-15T15:19:37.056Z,,,1,AV,2351.7609999999404,timeout,,,555858.6,555856.906,553505.147,553510.4,553521.824,555873.585,,grey
Stimulus,canvas.Screen,2_41_0_1,2022-07-15T15:19:37.156Z,,,1,AV,99.67000000004191,timeout,,,555958.4,555956.579,555856.906,555859,555873.585,555973.255,,grey
Reaction,canvas.Screen,2_41_0_2,2022-07-15T15:19:37.260Z,,,1,AV,87.74499999999534,response,stim_detected,mousedown,556062.8,556061,555956.579,555958.8,555973.255,556073.449,,grey
Trial,flow.Sequence,2_41_0,2022-07-15T15:19:37.260Z,,,1,AV,2539.1759999999776,completion,,,556063.1,556061,553505.147,553510.3,553521.824,556073.449,,grey
Frame,canvas.Frame,2_41,2022-07-15T15:19:37.261Z,,,1,AV,2541.3760000000475,,,,556063.4,556063.2000000001,553505.147,553509.5,553521.824,556073.449,,grey
Fixation,canvas.Screen,2_42_0_0,2022-07-15T15:19:39.125Z,,,0,V,1869.0659999999916,timeout,,,557927.6,557925.827,556056.772,556064.5,556073.449,557942.515,,grey
Stimulus,canvas.Screen,2_42_0_1,2022-07-15T15:19:39.223Z,,,0,V,98.93299999996088,timeout,,,558025.4,558024.107,557925.827,557927.9,557942.515,558041.448,,grey
Reaction,canvas.Screen,2_42_0_2,2022-07-15T15:19:39.370Z,,,0,V,129.55200000002515,response,stim_detected,mousedown,558172.5,558171,558024.107,558025.7000000001,558041.448,558174.864,,grey
Trial,flow.Sequence,2_42_0,2022-07-15T15:19:39.370Z,,,0,V,2097.5509999999776,completion,,,558173,558171,556056.772,556064.4,556073.449,558174.864,,grey
Frame,canvas.Frame,2_42,2022-07-15T15:19:39.371Z,,,0,V,2099.6509999999544,,,,558173.3,558173.1,556056.772,556063.6,556073.449,558174.864,,grey
Fixation,canvas.Screen,2_43_0_0,2022-07-15T15:19:41.492Z,,,1,AV,2134.945000000065,timeout,,,560294.5,560293.13,558158.187,558174.4,558174.864,560309.809,,grey
Stimulus,canvas.Screen,2_43_0_1,2022-07-15T15:19:41.592Z,,,1,AV,99.8519999999553,timeout,,,560394.6,560392.888,560293.13,560294.8,560309.809,560409.661,,grey
Reaction,canvas.Screen,2_43_0_2,2022-07-15T15:19:41.717Z,,,1,AV,108.53900000010617,response,stim_detected,mousedown,560519.8,560518.2000000001,560392.888,560394.8,560409.661,560526.4,,grey
Trial,flow.Sequence,2_43_0,2022-07-15T15:19:41.717Z,,,1,AV,2343.3360000001267,completion,,,560520.2000000001,560518.2000000001,558158.187,558174.3,558174.864,560526.4,,grey
Frame,canvas.Frame,2_43,2022-07-15T15:19:41.718Z,,,1,AV,2345.4360000001034,,,,560520.5,560520.3,558158.187,558173.5,558174.864,560526.4,,grey
Fixation,canvas.Screen,2_44_0_0,2022-07-15T15:19:43.743Z,,,0,V,2034.6030000000028,timeout,,,562545.7000000001,562544.326,560509.723,560521.7000000001,560526.4,562561.003,,grey
Stimulus,canvas.Screen,2_44_0_1,2022-07-15T15:19:43.843Z,,,0,V,99.97199999995064,timeout,,,562645.6,562644.299,562544.326,562545.9,562561.003,562660.975,,grey
Reaction,canvas.Screen,2_44_0_2,2022-07-15T15:19:44.012Z,,,0,V,152.82500000006985,response,stim_detected,mousedown,562814.6,562813.8,562644.299,562645.8,562660.975,562827.891,,grey
Trial,flow.Sequence,2_44_0,2022-07-15T15:19:44.012Z,,,0,V,2287.4000000000233,completion,,,562814.8,562813.8,560509.723,560521.5,560526.4,562827.891,,grey
Frame,canvas.Frame,2_44,2022-07-15T15:19:44.012Z,,,0,V,2288.5,,,,562815,562814.9,560509.723,560520.7000000001,560526.4,562827.891,,grey
Fixation,canvas.Screen,2_45_0_0,2022-07-15T15:19:45.929Z,,,1,A,1918.780000000028,timeout,,,564731.7000000001,564729.986,562811.214,562815.5,562827.891,564746.671,,black
Stimulus,canvas.Screen,2_45_0_1,2022-07-15T15:19:46.027Z,,,1,A,98.31000000005588,timeout,,,564829.6,564828.311,564729.986,564732,564746.671,564844.981,,black
Reaction,canvas.Screen,2_45_0_2,2022-07-15T15:19:46.160Z,,,1,A,115.91899999999441,response,stim_detected,mousedown,564962.3,564960.9,564828.311,564829.9,564844.981,564979.306,,black
Trial,flow.Sequence,2_45_0,2022-07-15T15:19:46.160Z,,,1,A,2133.0090000000782,completion,,,564962.8,564960.9,562811.214,562815.5,562827.891,564979.306,,black
Frame,canvas.Frame,2_45,2022-07-15T15:19:46.160Z,,,1,A,2135.0090000000782,,,,564963.1,564962.9,562811.214,562815.1,562827.891,564979.306,,black
Fixation,canvas.Screen,2_46_0_0,2022-07-15T15:19:47.995Z,,,1,A,1833.9949999999953,timeout,,,566797.7000000001,566796.628,564962.629,564964.1,564979.306,566813.301,,black
Stimulus,canvas.Screen,2_46_0_1,2022-07-15T15:19:48.096Z,,,1,A,100.49800000002142,timeout,,,566898.8,566897.123,566796.628,566798.2000000001,566813.301,566913.799,,black
Reaction,canvas.Screen,2_46_0_2,2022-07-15T15:19:48.237Z,,,1,A,124.0010000000475,response,stim_detected,mousedown,567039.4,567037.8,566897.123,566899.1,566913.799,567047.327,,black
Trial,flow.Sequence,2_46_0,2022-07-15T15:19:48.237Z,,,1,A,2058.4940000000643,completion,,,567039.8,567037.8,564962.629,564964,564979.306,567047.327,,black
Frame,canvas.Frame,2_46,2022-07-15T15:19:48.237Z,,,1,A,2060.594000000041,,,,567040.2000000001,567039.9,564962.629,564963.2000000001,564979.306,567047.327,,black
Fixation,canvas.Screen,2_47_0_0,2022-07-15T15:19:50.564Z,,,1,A,2334.1809999999823,timeout,,,569366,569364.835,567030.65,567041.3,567047.327,569381.508,,black
Stimulus,canvas.Screen,2_47_0_1,2022-07-15T15:19:50.665Z,,,1,A,100.61599999992177,timeout,,,569466.8,569465.448,569364.835,569366.2000000001,569381.508,569482.124,,black
Reaction,canvas.Screen,2_47_0_2,2022-07-15T15:19:50.815Z,,,1,A,132.67600000009406,response,stim_detected,mousedown,569616.4,569614.8,569465.448,569467.2000000001,569482.124,569632.282,,black
Trial,flow.Sequence,2_47_0,2022-07-15T15:19:50.815Z,,,1,A,2567.472999999998,completion,,,569616.9,569614.8,567030.65,567041.2000000001,567047.327,569632.282,,black
Frame,canvas.Frame,2_47,2022-07-15T15:19:50.815Z,,,1,A,2569.6729999999516,,,,569617.2000000001,569617,567030.65,567040.4,567047.327,569632.282,,black
Fixation,canvas.Screen,2_48_0_0,2022-07-15T15:19:52.918Z,,,1,A,2102.9640000000363,timeout,,,571719.9,571718.556,569615.605,569618.4,569632.282,571735.246,,black
Stimulus,canvas.Screen,2_48_0_1,2022-07-15T15:19:53.016Z,,,1,A,97.93599999998696,timeout,,,571817.4,571816.509,571718.556,571720.2000000001,571735.246,571833.182,,black
Reaction,canvas.Screen,2_48_0_2,2022-07-15T15:19:53.145Z,,,1,A,112.61800000001676,response,stim_detected,mousedown,571947.1,571945.8,571816.509,571817.6,571833.182,571950.501,,black
Trial,flow.Sequence,2_48_0,2022-07-15T15:19:53.146Z,,,1,A,2313.51800000004,completion,,,571947.6,571945.8,569615.605,569618.3,569632.282,571950.501,,black
Frame,canvas.Frame,2_48,2022-07-15T15:19:53.146Z,,,1,A,2315.4180000000633,,,,571947.9,571947.7000000001,569615.605,569617.4,569632.282,571950.501,,black
Fixation,canvas.Screen,2_49_0_0,2022-07-15T15:19:55.367Z,,,0,V,2233.576999999932,timeout,,,574168.9,574167.409,571933.824,571949.4,571950.501,574184.078,,grey
Stimulus,canvas.Screen,2_49_0_1,2022-07-15T15:19:55.468Z,,,0,V,101.33900000003632,timeout,,,574269.8,574268.739,574167.409,574169.2000000001,574184.078,574285.417,,grey
Reaction,canvas.Screen,2_49_0_2,2022-07-15T15:19:56.969Z,,,0,V,1500.863000000012,timeout,,,575771,575769.603,574268.739,574270.1,574285.417,575786.28,,grey
Trial,flow.Sequence,2_49_0,2022-07-15T15:19:56.970Z,,,0,V,3819.1019999999553,completion,,,575771.3,575769.603,571933.824,571949.2000000001,571950.501,575786.28,,grey
Frame,canvas.Frame,2_49,2022-07-15T15:19:56.970Z,,,0,V,3820.898999999976,,,,575771.6,575771.4,571933.824,571948.1,571950.501,575802.957,,grey
Fixation,canvas.Screen,2_50_0_0,2022-07-15T15:19:58.920Z,,,1,AV,1934.469999999972,timeout,,,577722,577720.751,575786.28,575772.6,575802.957,577737.427,,grey
Stimulus,canvas.Screen,2_50_0_1,2022-07-15T15:19:59.020Z,,,1,AV,100.30099999997765,timeout,,,577821.6,577821.044,577720.751,577722.2000000001,577737.427,577837.728,,grey
Reaction,canvas.Screen,2_50_0_2,2022-07-15T15:19:59.137Z,,,1,AV,99.87199999997392,response,stim_detected,mousedown,577939.2000000001,577937.6,577821.044,577821.6,577837.728,577954.355,,grey
Trial,flow.Sequence,2_50_0,2022-07-15T15:19:59.138Z,,,1,AV,2134.6429999999236,completion,,,577939.5,577937.6,575786.28,575772.5,575802.957,577954.355,,grey
Frame,canvas.Frame,2_50,2022-07-15T15:19:59.138Z,,,1,AV,2136.7430000000168,,,,577939.8,577939.7000000001,575786.28,575771.8,575802.957,577954.355,,grey
Fixation,canvas.Screen,2_51_0_0,2022-07-15T15:20:00.806Z,,,1,AV,1668.6570000000065,timeout,,,579608.2000000001,579606.326,577937.679,577940.9,577954.355,579623.012,,grey
Stimulus,canvas.Screen,2_51_0_1,2022-07-15T15:20:00.905Z,,,1,AV,99.23699999996461,timeout,,,579707,579705.539,579606.326,579608.4,579623.012,579722.249,,grey
Reaction,canvas.Screen,2_51_0_2,2022-07-15T15:20:01.074Z,,,1,AV,152.2510000000475,response,stim_detected,mousedown,579875.9,579874.5,579705.539,579707.4,579722.249,579889.029,,grey
Trial,flow.Sequence,2_51_0,2022-07-15T15:20:01.075Z,,,1,AV,1920.1450000000186,completion,,,579876.4,579874.5,577937.679,577940.8,577954.355,579889.029,,grey
Frame,canvas.Frame,2_51,2022-07-15T15:20:01.075Z,,,1,AV,1922.1450000000186,,,,579876.7000000001,579876.5,577937.679,577940,577954.355,579889.029,,grey
Fixation,canvas.Screen,2_52_0_0,2022-07-15T15:20:03.156Z,,,0,V,2084.7519999999786,timeout,,,581958.2000000001,581957.103,579872.351,579877.8,579889.029,581973.781,,grey
Stimulus,canvas.Screen,2_52_0_1,2022-07-15T15:20:03.256Z,,,0,V,100.05400000000373,timeout,,,582058.2000000001,582057.157,581957.103,581958.5,581973.781,582073.835,,grey
Reaction,canvas.Screen,2_52_0_2,2022-07-15T15:20:03.389Z,,,0,V,115.56500000006054,response,stim_detected,mousedown,582191,582189.4,582057.157,582058.4,582073.835,582207.185,,grey
Trial,flow.Sequence,2_52_0,2022-07-15T15:20:03.390Z,,,0,V,2300.371000000043,completion,,,582191.3,582189.4,579872.351,579877.7000000001,579889.029,582207.185,,grey
Frame,canvas.Frame,2_52,2022-07-15T15:20:03.390Z,,,0,V,2302.371000000043,,,,582191.7000000001,582191.4,579872.351,579876.8,579889.029,582207.185,,grey
Fixation,canvas.Screen,2_53_0_0,2022-07-15T15:20:05.823Z,,,0,V,2433.7419999999693,timeout,,,584625.3,584624.257,582190.508,582192.8,582207.185,584640.927,,grey
Stimulus,canvas.Screen,2_53_0_1,2022-07-15T15:20:05.926Z,,,0,V,101.41099999996368,timeout,,,584727.3,584725.659,584624.257,584625.5,584640.927,584742.338,,grey
Reaction,canvas.Screen,2_53_0_2,2022-07-15T15:20:06.082Z,,,0,V,140.06200000003446,response,stim_detected,mousedown,584884,584882.4,584725.659,584727.5,584742.338,584908.961,,grey
Trial,flow.Sequence,2_53_0,2022-07-15T15:20:06.083Z,,,0,V,2675.2149999999674,completion,,,584884.4,584882.4,582190.508,582192.7000000001,582207.185,584908.961,,grey
Frame,canvas.Frame,2_53,2022-07-15T15:20:06.083Z,,,0,V,2677.314999999944,,,,584884.7000000001,584884.5,582190.508,582191.8,582207.185,584908.961,,grey
Fixation,canvas.Screen,2_54_0_0,2022-07-15T15:20:07.693Z,,,1,AV,1600.89300000004,timeout,,,586494.4,586493.178,584875.607,584885.9,584908.961,586509.854,,grey
Stimulus,canvas.Screen,2_54_0_1,2022-07-15T15:20:07.792Z,,,1,AV,99.75899999996182,timeout,,,586593.9,586592.94,586493.178,586494.8,586509.854,586609.613,,grey
Reaction,canvas.Screen,2_54_0_2,2022-07-15T15:20:07.936Z,,,1,AV,127.58700000005774,response,stim_detected,mousedown,586737.9,586737.2000000001,586592.94,586594,586609.613,586743.444,,grey
Trial,flow.Sequence,2_54_0,2022-07-15T15:20:07.936Z,,,1,AV,1828.2390000000596,completion,,,586738.1,586737.2000000001,584875.607,584885.8,584908.961,586743.444,,grey
Frame,canvas.Frame,2_54,2022-07-15T15:20:07.936Z,,,1,AV,1829.1389999999665,,,,586738.2000000001,586738.1,584875.607,584884.8,584908.961,586743.444,,grey
Fixation,canvas.Screen,2_55_0_0,2022-07-15T15:20:09.528Z,,,1,AV,1601.4309999999823,timeout,,,588329.3,588328.194,586726.767,586738.6,586743.444,588344.875,,grey
Stimulus,canvas.Screen,2_55_0_1,2022-07-15T15:20:09.628Z,,,1,AV,99.73100000002887,timeout,,,588429.3,588427.928,588328.194,588329.6,588344.875,588444.606,,grey
Reaction,canvas.Screen,2_55_0_2,2022-07-15T15:20:09.772Z,,,1,AV,127.6940000000177,response,stim_detected,mousedown,588573.7000000001,588572.3,588427.928,588429.5,588444.606,588578.016,,grey
Trial,flow.Sequence,2_55_0,2022-07-15T15:20:09.772Z,,,1,AV,1828.8560000000289,completion,,,588574.1,588572.3,586726.767,586738.6,586743.444,588578.016,,grey
Frame,canvas.Frame,2_55,2022-07-15T15:20:09.773Z,,,1,AV,1830.7560000000522,,,,588574.5,588574.2000000001,586726.767,586738.3,586743.444,588578.016,,grey
Fixation,canvas.Screen,2_56_0_0,2022-07-15T15:20:11.312Z,,,0,V,1550.9710000000196,timeout,,,590113.3,590112.31,588561.339,588575.6,588578.016,590128.987,,grey
Stimulus,canvas.Screen,2_56_0_1,2022-07-15T15:20:11.404Z,,,0,V,91.98700000008103,timeout,,,590205.4,590204.299,590112.31,590113.7000000001,590128.987,590220.974,,grey
Reaction,canvas.Screen,2_56_0_2,2022-07-15T15:20:11.548Z,,,0,V,127.22600000002421,response,stim_detected,mousedown,590349.6,590348.2000000001,590204.299,590205.6,590220.974,590362.509,,grey
Trial,flow.Sequence,2_56_0,2022-07-15T15:20:11.548Z,,,0,V,1770.1840000001248,completion,,,590350,590348.2000000001,588561.339,588575.5,588578.016,590362.509,,grey
Frame,canvas.Frame,2_56,2022-07-15T15:20:11.549Z,,,0,V,1772.0840000000317,,,,590350.3,590350.1,588561.339,588574.6,588578.016,590362.509,,grey
Fixation,canvas.Screen,2_57_0_0,2022-07-15T15:20:13.596Z,,,1,AV,2050.2110000000102,timeout,,,592397.6,592396.051,590345.832,590351.5,590362.509,592412.72,,grey
Stimulus,canvas.Screen,2_57_0_1,2022-07-15T15:20:13.697Z,,,1,AV,101.20799999998417,timeout,,,592498.6,592497.249,592396.051,592397.9,592412.72,592513.928,,grey
Reaction,canvas.Screen,2_57_0_2,2022-07-15T15:20:13.804Z,,,1,AV,90.17200000002049,response,stim_detected,mousedown,592605.6,592604.1,592497.249,592498.9,592513.928,592613.941,,grey
Trial,flow.Sequence,2_57_0,2022-07-15T15:20:13.804Z,,,1,AV,2241.591000000015,completion,,,592606,592604.1,590345.832,590351.4,590362.509,592613.941,,grey
Frame,canvas.Frame,2_57,2022-07-15T15:20:13.805Z,,,1,AV,2243.591000000015,,,,592606.3,592606.1,590345.832,590350.5,590362.509,592613.941,,grey
Fixation,canvas.Screen,2_58_0_0,2022-07-15T15:20:15.649Z,,,1,AV,1852.3050000000512,timeout,,,594450.6,594449.559,592597.264,592607.3,592613.941,594466.246,,grey
Stimulus,canvas.Screen,2_58_0_1,2022-07-15T15:20:15.748Z,,,1,AV,98.99699999997392,timeout,,,594549.5,594548.337,594449.559,594450.9,594466.246,594565.243,,grey
Reaction,canvas.Screen,2_58_0_2,2022-07-15T15:20:15.893Z,,,1,AV,127.85699999995995,response,stim_detected,mousedown,594694.6,594693.1,594548.337,594549.7000000001,594565.243,594715.336,,grey
Trial,flow.Sequence,2_58_0,2022-07-15T15:20:15.893Z,,,1,AV,2079.158999999985,completion,,,594694.9,594693.1,592597.264,592607.2000000001,592613.941,594715.336,,grey
Frame,canvas.Frame,2_58,2022-07-15T15:20:15.893Z,,,1,AV,2081.158999999985,,,,594695.3,594695.1,592597.264,592606.5,592613.941,594715.336,,grey
Fixation,canvas.Screen,2_59_0_0,2022-07-15T15:20:18.150Z,,,1,AV,2251.5479999999516,timeout,,,596951.7000000001,596950.206,594681.982,594696.3,594715.336,596966.884,,grey
Stimulus,canvas.Screen,2_59_0_1,2022-07-15T15:20:18.250Z,,,1,AV,99.95100000000093,timeout,,,597052.1,597050.158,596950.206,596952,596966.884,597066.835,,grey
Reaction,canvas.Screen,2_59_0_2,2022-07-15T15:20:18.371Z,,,1,AV,104.16500000003725,response,stim_detected,mousedown,597172.6,597171,597050.158,597052.3,597066.835,597183.62,,grey
Trial,flow.Sequence,2_59_0,2022-07-15T15:20:18.371Z,,,1,AV,2455.6639999999898,completion,,,597172.9,597171,594681.982,594696.2000000001,594715.336,597183.62,,grey
Frame,canvas.Frame,2_59,2022-07-15T15:20:18.372Z,,,1,AV,2457.7639999999665,,,,597173.3,597173.1,594681.982,594695.4,594715.336,597183.62,,grey
Fixation,canvas.Screen,2_60_0_0,2022-07-15T15:20:20.418Z,,,1,A,2051.4159999999683,timeout,,,599219.7000000001,599218.358,597166.943,597174.3,597183.62,599235.036,,black
Stimulus,canvas.Screen,2_60_0_1,2022-07-15T15:20:20.518Z,,,1,A,99.89600000006612,timeout,,,599319.6,599318.256,599218.358,599219.9,599235.036,599334.932,,black
Reaction,canvas.Screen,2_60_0_2,2022-07-15T15:20:20.703Z,,,1,A,168.0679999999702,response,stim_detected,mousedown,599504.5,599503,599318.256,599319.9,599334.932,599518.467,,black
Trial,flow.Sequence,2_60_0,2022-07-15T15:20:20.703Z,,,1,A,2319.3800000000047,completion,,,599504.8,599503,597166.943,597174.2000000001,597183.62,599518.467,,black
Frame,canvas.Frame,2_60,2022-07-15T15:20:20.703Z,,,1,A,2321.3800000000047,,,,599505.2000000001,599505,597166.943,597173.4,597183.62,599518.467,,black
Fixation,canvas.Screen,2_61_0_0,2022-07-15T15:20:23.120Z,,,1,AV,2419.106000000029,timeout,,,601921.9,601920.89,599501.79,599506.2000000001,599518.467,601937.573,,grey
Stimulus,canvas.Screen,2_61_0_1,2022-07-15T15:20:23.219Z,,,1,AV,99.11200000008103,timeout,,,602020.9,602020.009,601920.89,601922.1,601937.573,602036.685,,grey
Reaction,canvas.Screen,2_61_0_2,2022-07-15T15:20:23.327Z,,,1,AV,90.31499999994412,response,stim_detected,mousedown,602128.5,602127,602020.009,602021.2000000001,602036.685,602136.831,,grey
Trial,flow.Sequence,2_61_0,2022-07-15T15:20:23.327Z,,,1,AV,2608.533000000054,completion,,,602128.9,602127,599501.79,599506.1,599518.467,602136.831,,grey
Frame,canvas.Frame,2_61,2022-07-15T15:20:23.327Z,,,1,AV,2610.533000000054,,,,602129.1,602129,599501.79,599505.4,599518.467,602136.831,,grey
Fixation,canvas.Screen,2_62_0_0,2022-07-15T15:20:25.188Z,,,1,A,1868.439000000013,timeout,,,603989.8,603988.588,602120.154,602130.4,602136.831,604005.27,,black
Stimulus,canvas.Screen,2_62_0_1,2022-07-15T15:20:25.288Z,,,1,A,99.60999999998603,timeout,,,604089.8,604088.202,603988.588,603990,604005.27,604104.88,,black
Reaction,canvas.Screen,2_62_0_2,2022-07-15T15:20:25.503Z,,,1,A,198.02000000001863,response,stim_detected,mousedown,604304.3,604302.9,604088.202,604090.2000000001,604104.88,604321.601,,black
Trial,flow.Sequence,2_62_0,2022-07-15T15:20:25.503Z,,,1,A,2166.0690000000177,completion,,,604304.7000000001,604302.9,602120.154,602130.3,602136.831,604321.601,,black
Frame,canvas.Frame,2_62,2022-07-15T15:20:25.503Z,,,1,A,2168.0690000000177,,,,604305,604304.9,602120.154,602129.3,602136.831,604321.601,,black
Fixation,canvas.Screen,2_63_0_0,2022-07-15T15:20:27.289Z,,,1,AV,1784.6990000000224,timeout,,,606091,606089.621,604304.924,604306.2000000001,604321.601,606106.3,,grey
Stimulus,canvas.Screen,2_63_0_1,2022-07-15T15:20:27.389Z,,,1,AV,99.84099999989849,timeout,,,606190.6,606189.464,606089.621,606091.3,606106.3,606206.141,,grey
Reaction,canvas.Screen,2_63_0_2,2022-07-15T15:20:27.510Z,,,1,AV,104.65900000010151,response,stim_detected,mousedown,606312.2000000001,606310.8,606189.464,606191,606206.141,606322.866,,grey
Trial,flow.Sequence,2_63_0,2022-07-15T15:20:27.511Z,,,1,AV,1989.1990000000224,completion,,,606312.6,606310.8,604304.924,604306,604321.601,606322.866,,grey
Frame,canvas.Frame,2_63,2022-07-15T15:20:27.511Z,,,1,AV,1991.0990000000456,,,,606313,606312.7000000001,604304.924,604305.2000000001,604321.601,606322.866,,grey
Fixation,canvas.Screen,2_64_0_0,2022-07-15T15:20:29.091Z,,,1,A,1585.548999999999,timeout,,,607892.8,607891.726,606306.19,606314,606322.866,607908.415,,black
Stimulus,canvas.Screen,2_64_0_1,2022-07-15T15:20:29.190Z,,,1,A,98.91599999996834,timeout,,,607992,607990.654,607891.726,607893,607908.415,608007.331,,black
Reaction,canvas.Screen,2_64_0_2,2022-07-15T15:20:29.361Z,,,1,A,154.36900000006426,response,stim_detected,mousedown,608163.2000000001,608161.7000000001,607990.654,607992.2000000001,608007.331,608174.056,,black
Trial,flow.Sequence,2_64_0,2022-07-15T15:20:29.362Z,,,1,A,1838.8340000000317,completion,,,608163.7000000001,608161.7000000001,606306.19,606314,606322.866,608174.056,,black
Frame,canvas.Frame,2_64,2022-07-15T15:20:29.362Z,,,1,A,1840.9340000000084,,,,608163.9,608163.8,606306.19,606313.1,606322.866,608174.056,,black
Fixation,canvas.Screen,2_65_0_0,2022-07-15T15:20:30.976Z,,,1,A,1619.0380000000587,timeout,,,609778,609776.404,608157.38,608164.9,608174.056,609793.094,,black
Stimulus,canvas.Screen,2_65_0_1,2022-07-15T15:20:31.075Z,,,1,A,98.79699999990407,timeout,,,609877,609875.214,609776.404,609778.4,609793.094,609891.891,,black
Reaction,canvas.Screen,2_65_0_2,2022-07-15T15:20:31.224Z,,,1,A,131.8090000001248,response,stim_detected,mousedown,610025.3,610023.7000000001,609875.214,609877.3,609891.891,610041.948,,black
Trial,flow.Sequence,2_65_0,2022-07-15T15:20:31.224Z,,,1,A,1849.6440000000875,completion,,,610025.7000000001,610023.7000000001,608157.38,608164.8,608174.056,610041.948,,black
Frame,canvas.Frame,2_65,2022-07-15T15:20:31.224Z,,,1,A,1851.7440000000643,,,,610026,610025.8,608157.38,608164.1,608174.056,610041.948,,black
Fixation,canvas.Screen,2_66_0_0,2022-07-15T15:20:32.793Z,,,1,AV,1569.045000000042,timeout,,,611595,611594.302,610025.272,610027,610041.948,611610.993,,grey
Stimulus,canvas.Screen,2_66_0_1,2022-07-15T15:20:32.892Z,,,1,AV,98.6589999999851,timeout,,,611693.9,611692.976,611594.302,611595.4,611610.993,611709.652,,grey
Reaction,canvas.Screen,2_66_0_2,2022-07-15T15:20:33.031Z,,,1,AV,121.94799999997485,response,stim_detected,mousedown,611833.1,611831.6,611692.976,611694.3,611709.652,611843.18,,grey
Trial,flow.Sequence,2_66_0,2022-07-15T15:20:33.032Z,,,1,AV,1789.6520000000019,completion,,,611833.5,611831.6,610025.272,610026.9,610041.948,611843.18,,grey
Frame,canvas.Frame,2_66,2022-07-15T15:20:33.032Z,,,1,AV,1791.752000000095,,,,611833.8,611833.7000000001,610025.272,610026.2000000001,610041.948,611843.18,,grey
Fixation,canvas.Screen,2_67_0_0,2022-07-15T15:20:34.927Z,,,0,V,1900.9349999999395,timeout,,,613729.1,613727.44,611826.503,611834.8,611843.18,613744.115,,grey
Stimulus,canvas.Screen,2_67_0_1,2022-07-15T15:20:35.047Z,,,0,V,100.38300000003073,timeout,,,613848.5000000001,613827.821,613727.44,613729.4,613744.115,613844.498,,grey
Reaction,canvas.Screen,2_67_0_2,2022-07-15T15:20:35.195Z,,,0,V,150.90200000000186,response,stim_detected,mousedown,613996.7999999999,613995.4,613827.821,613848.7999999999,613844.498,614011.226,,grey
Trial,flow.Sequence,2_67_0,2022-07-15T15:20:35.195Z,,,0,V,2152.219999999972,completion,,,613997.2000000001,613995.4,611826.503,611834.8,611843.18,614011.226,,grey
Frame,canvas.Frame,2_67,2022-07-15T15:20:35.196Z,,,0,V,2154.119999999879,,,,613997.4,613997.2999999999,611826.503,611834,611843.18,614011.226,,grey
Fixation,canvas.Screen,2_68_0_0,2022-07-15T15:20:37.578Z,,,1,A,2384.3469999999506,timeout,,,616380.1,616378.899,613994.549,613998.2999999999,614011.226,616395.573,,black
Stimulus,canvas.Screen,2_68_0_1,2022-07-15T15:20:37.679Z,,,1,A,100.63699999998789,timeout,,,616481.0000000001,616479.529,616378.899,616380.4,616395.573,616496.21,,black
Reaction,canvas.Screen,2_68_0_2,2022-07-15T15:20:37.818Z,,,1,A,122.39000000001397,response,stim_detected,mousedown,616619.7999999999,616618.6,616479.529,616481.2000000001,616496.21,616629.595,,black
Trial,flow.Sequence,2_68_0,2022-07-15T15:20:37.818Z,,,1,A,2607.3739999999525,completion,,,616620.1,616618.6,613994.549,613998.1,614011.226,616629.595,,black
Frame,canvas.Frame,2_68,2022-07-15T15:20:37.819Z,,,1,A,2608.9740000000456,,,,616620.4,616620.2000000001,613994.549,613997.5000000001,614011.226,616629.595,,black
Fixation,canvas.Screen,2_69_0_0,2022-07-15T15:20:39.648Z,,,0,V,1835.6539999999804,timeout,,,618450.0000000001,618448.562,616612.918,616621.4,616629.595,618465.249,,grey
Stimulus,canvas.Screen,2_69_0_1,2022-07-15T15:20:39.747Z,,,0,V,98.15900000010151,timeout,,,618548.5000000001,618546.738,618448.562,618450.1,618465.249,618563.408,,grey
Reaction,canvas.Screen,2_69_0_2,2022-07-15T15:20:39.965Z,,,0,V,202.0920000000624,response,stim_detected,mousedown,618767.0000000001,618765.5000000001,618546.738,618548.7000000001,618563.408,618780.994,,grey
Trial,flow.Sequence,2_69_0,2022-07-15T15:20:39.966Z,,,0,V,2135.9050000001444,completion,,,618767.4,618765.5000000001,616612.918,616621.2999999999,616629.595,618780.994,,grey
Frame,canvas.Frame,2_69,2022-07-15T15:20:39.966Z,,,0,V,2138.0050000000047,,,,618767.7000000001,618767.6,616612.918,616620.5000000001,616629.595,618780.994,,grey
Fixation,canvas.Screen,2_70_0_0,2022-07-15T15:20:41.949Z,,,1,A,1984.9820000000764,timeout,,,620750.4,620749.296,618764.317,618768.9,618780.994,620765.976,,black
Stimulus,canvas.Screen,2_70_0_1,2022-07-15T15:20:42.049Z,,,1,A,99.84499999997206,timeout,,,620850.5000000001,620849.143,620749.296,620750.6,620765.976,620865.821,,black
Reaction,canvas.Screen,2_70_0_2,2022-07-15T15:20:42.177Z,,,1,A,111.57900000002701,response,stim_detected,mousedown,620979.0000000001,620977.4,620849.143,620850.7000000001,620865.821,620999.138,,black
Trial,flow.Sequence,2_70_0,2022-07-15T15:20:42.178Z,,,1,A,2196.4060000000754,completion,,,620979.4,620977.4,618764.317,618768.7999999999,618780.994,620999.138,,black
Frame,canvas.Frame,2_70,2022-07-15T15:20:42.178Z,,,1,A,2198.5060000001686,,,,620979.6,620979.5000000001,618764.317,618767.9,618780.994,620999.138,,black
Fixation,canvas.Screen,2_71_0_0,2022-07-15T15:20:44.418Z,,,0,V,2235.6990000000224,timeout,,,623219.4,623218.153,620965.784,620980.7000000001,620999.138,623234.837,,grey
Stimulus,canvas.Screen,2_71_0_1,2022-07-15T15:20:44.517Z,,,0,V,98.76499999989755,timeout,,,623318.5000000001,623316.928,623218.153,623219.7999999999,623234.837,623333.602,,grey
Reaction,canvas.Screen,2_71_0_2,2022-07-15T15:20:44.681Z,,,0,V,147.798000000068,response,stim_detected,mousedown,623482.7999999999,623481.4,623316.928,623318.7999999999,623333.602,623500.736,,grey
Trial,flow.Sequence,2_71_0,2022-07-15T15:20:44.681Z,,,0,V,2482.261999999988,completion,,,623483.2999999999,623481.4,620965.784,620980.6,620999.138,623500.736,,grey
Frame,canvas.Frame,2_71,2022-07-15T15:20:44.682Z,,,0,V,2484.261999999988,,,,623483.6,623483.4,620965.784,620979.7999999999,620999.138,623500.736,,grey
Fixation,canvas.Screen,2_72_0_0,2022-07-15T15:20:47.120Z,,,1,AV,2435.954999999958,timeout,,,625921.5000000001,625920.007,623484.059,623485.1,623500.736,625936.691,,grey
Stimulus,canvas.Screen,2_72_0_1,2022-07-15T15:20:47.219Z,,,1,AV,98.94599999999627,timeout,,,626020.6,626018.961,625920.007,625921.9,625936.691,626035.637,,grey
Reaction,canvas.Screen,2_72_0_2,2022-07-15T15:20:47.379Z,,,1,AV,143.86300000012852,response,stim_detected,mousedown,626181.0000000001,626179.5000000001,626018.961,626020.7000000001,626035.637,626185.875,,grey
Trial,flow.Sequence,2_72_0,2022-07-15T15:20:47.380Z,,,1,AV,2678.764000000083,completion,,,626181.2000000001,626179.5000000001,623484.059,623485.0000000001,623500.736,626185.875,,grey
Frame,canvas.Frame,2_72,2022-07-15T15:20:47.380Z,,,1,AV,2680.6639999999898,,,,626181.6,626181.4,623484.059,623483.7000000001,623500.736,626185.875,,grey
Fixation,canvas.Screen,2_73_0_0,2022-07-15T15:20:49.353Z,,,1,A,1984.3149999999441,timeout,,,628154.6,628153.515,626169.198,626182.7000000001,626185.875,628170.19,,black
Stimulus,canvas.Screen,2_73_0_1,2022-07-15T15:20:49.453Z,,,1,A,100.33900000003632,timeout,,,628254.7000000001,628253.79,628153.515,628154.9,628170.19,628270.529,,black
Reaction,canvas.Screen,2_73_0_2,2022-07-15T15:20:49.620Z,,,1,A,149.6710000000894,response,stim_detected,mousedown,628421.7000000001,628420.2000000001,628253.79,628254.9,628270.529,628437.299,,black
Trial,flow.Sequence,2_73_0,2022-07-15T15:20:49.620Z,,,1,A,2234.32500000007,completion,,,628422.1,628420.2000000001,626169.198,626182.6,626185.875,628437.299,,black
Frame,canvas.Frame,2_73,2022-07-15T15:20:49.621Z,,,1,A,2236.32500000007,,,,628422.2999999999,628422.2000000001,626169.198,626181.7999999999,626185.875,628437.299,,black
Fixation,canvas.Screen,2_74_0_0,2022-07-15T15:20:51.306Z,,,0,V,1684.5069999999832,timeout,,,630106.6,630105.128,628420.622,628423.4,628437.299,630121.806,,grey
Stimulus,canvas.Screen,2_74_0_1,2022-07-15T15:20:51.406Z,,,0,V,100.01800000004005,timeout,,,630206.7000000001,630205.147,630105.128,630106.7999999999,630121.806,630221.824,,grey
Reaction,canvas.Screen,2_74_0_2,2022-07-15T15:20:51.736Z,,,0,V,312.3760000000475,response,stim_detected,mousedown,630535.7000000001,630534.2000000001,630205.147,630206.9,630221.824,630555.393,,grey
Trial,flow.Sequence,2_74_0,2022-07-15T15:20:51.736Z,,,0,V,2096.901000000071,completion,,,630536.0000000001,630534.2000000001,628420.622,628423.2999999999,628437.299,630555.393,,grey
Frame,canvas.Frame,2_74,2022-07-15T15:20:51.736Z,,,0,V,2098.901000000071,,,,630536.2999999999,630536.2000000001,628420.622,628422.6,628437.299,630555.393,,grey
Fixation,canvas.Screen,2_75_0_0,2022-07-15T15:20:53.441Z,,,1,A,1700.8040000000037,timeout,,,632240.7000000001,632239.522,630522.039,630537.6,630555.393,632256.197,,black
Stimulus,canvas.Screen,2_75_0_1,2022-07-15T15:20:53.541Z,,,1,A,100.00699999998324,timeout,,,632340.7000000001,632339.53,632239.522,632241.1,632256.197,632356.204,,black
Reaction,canvas.Screen,2_75_0_2,2022-07-15T15:20:53.689Z,,,1,A,131.8959999999497,response,stim_detected,mousedown,632489.7000000001,632488.1,632339.53,632341.0000000001,632356.204,632506.609,,black
Trial,flow.Sequence,2_75_0,2022-07-15T15:20:53.690Z,,,1,A,1932.7069999999367,completion,,,632490.1,632488.1,630522.039,630537.5000000001,630555.393,632506.609,,black
Frame,canvas.Frame,2_75,2022-07-15T15:20:53.690Z,,,1,A,1934.90699999989,,,,632490.4,632490.2999999999,630522.039,630536.6,630555.393,632506.609,,black
Fixation,canvas.Screen,2_76_0_0,2022-07-15T15:20:55.576Z,,,1,A,1884.9899999999907,timeout,,,634375.7999999999,634374.918,632489.932,632491.9,632506.609,634391.599,,black
Stimulus,canvas.Screen,2_76_0_1,2022-07-15T15:20:55.676Z,,,1,A,99.67599999997765,timeout,,,634475.7000000001,634474.598,634374.918,634376.0000000001,634391.599,634491.275,,black
Reaction,canvas.Screen,2_76_0_2,2022-07-15T15:20:55.855Z,,,1,A,162.82499999995343,response,stim_detected,mousedown,634655.5000000001,634654.1,634474.598,634476.1,634491.275,634658.044,,black
Trial,flow.Sequence,2_76_0,2022-07-15T15:20:55.856Z,,,1,A,2147.4909999999218,completion,,,634656.0000000001,634654.1,632489.932,632491.7000000001,632506.609,634658.044,,black
Frame,canvas.Frame,2_76,2022-07-15T15:20:55.856Z,,,1,A,2149.591000000015,,,,634656.4,634656.2000000001,632489.932,632490.6,632506.609,634658.044,,black
Fixation,canvas.Screen,2_77_0_0,2022-07-15T15:20:57.578Z,,,0,V,1734.939000000013,timeout,,,636377.7000000001,636376.301,634641.367,634657.7000000001,634658.044,636392.983,,grey
Stimulus,canvas.Screen,2_77_0_1,2022-07-15T15:20:57.677Z,,,0,V,99.38000000000466,timeout,,,636476.7999999999,636475.688,636376.301,636377.9,636392.983,636492.363,,grey
Reaction,canvas.Screen,2_77_0_2,2022-07-15T15:20:57.816Z,,,0,V,122.63700000010431,response,stim_detected,mousedown,636616.6,636615.0000000001,636475.688,636477.0000000001,636492.363,636626.01,,grey
Trial,flow.Sequence,2_77_0,2022-07-15T15:20:57.817Z,,,0,V,1956.956000000122,completion,,,636617.1,636615.0000000001,634641.367,634657.6,634658.044,636626.01,,grey
Frame,canvas.Frame,2_77,2022-07-15T15:20:57.817Z,,,0,V,1959.2559999999357,,,,636617.5000000001,636617.2999999999,634641.367,634656.7000000001,634658.044,636626.01,,grey
Fixation,canvas.Screen,2_78_0_0,2022-07-15T15:20:59.911Z,,,1,A,2100.628999999957,timeout,,,638711.0000000001,638709.967,636609.333,636618.5000000001,636626.01,638726.639,,black
Stimulus,canvas.Screen,2_78_0_1,2022-07-15T15:21:00.012Z,,,1,A,100.68900000001304,timeout,,,638811.9,638810.652,638709.967,638711.2000000001,638726.639,638827.328,,black
Reaction,canvas.Screen,2_78_0_2,2022-07-15T15:21:00.149Z,,,1,A,120.6720000001369,response,stim_detected,mousedown,638949.4,638948.0000000001,638810.652,638812.1,638827.328,638960.852,,black
Trial,flow.Sequence,2_78_0,2022-07-15T15:21:00.150Z,,,1,A,2321.990000000107,completion,,,638949.7999999999,638948.0000000001,636609.333,636618.4,636626.01,638960.852,,black
Frame,canvas.Frame,2_78,2022-07-15T15:21:00.150Z,,,1,A,2323.890000000014,,,,638950.1,638949.9,636609.333,636617.7000000001,636626.01,638960.852,,black
Fixation,canvas.Screen,2_79_0_0,2022-07-15T15:21:01.897Z,,,1,A,1751.5050000000047,timeout,,,640697.2000000001,640695.676,638944.175,638951.1,638960.852,640712.357,,black
Stimulus,canvas.Screen,2_79_0_1,2022-07-15T15:21:01.997Z,,,1,A,99.88600000005681,timeout,,,640797.0000000001,640795.562,640695.676,640697.5000000001,640712.357,640812.243,,black
Reaction,canvas.Screen,2_79_0_2,2022-07-15T15:21:02.194Z,,,1,A,180.5569999999134,response,stim_detected,mousedown,640994.4,640992.7999999999,640795.562,640797.2000000001,640812.243,641012.201,,black
Trial,flow.Sequence,2_79_0,2022-07-15T15:21:02.195Z,,,1,A,2031.9479999999749,completion,,,640994.7999999999,640992.7999999999,638944.175,638951.0000000001,638960.852,641012.201,,black
Frame,canvas.Frame,2_79,2022-07-15T15:21:02.195Z,,,1,A,2034.048000000068,,,,640995.1,640994.9,638944.175,638950.2999999999,638960.852,641012.201,,black
Fixation,canvas.Screen,2_80_0_0,2022-07-15T15:21:04.031Z,,,0,V,1834.6030000000028,timeout,,,642831.1,642830.126,640995.524,640996.2000000001,641012.201,642846.804,,grey
Stimulus,canvas.Screen,2_80_0_1,2022-07-15T15:21:04.131Z,,,0,V,99.80000000004657,timeout,,,642931.0000000001,642929.929,642830.126,642831.4,642846.804,642946.604,,grey
Reaction,canvas.Screen,2_80_0_2,2022-07-15T15:21:04.278Z,,,0,V,130.19599999987986,response,stim_detected,mousedown,643078.2999999999,643076.7999999999,642929.929,642931.2000000001,642946.604,643080.205,,grey
Trial,flow.Sequence,2_80_0,2022-07-15T15:21:04.279Z,,,0,V,2064.598999999929,completion,,,643078.7000000001,643076.7999999999,640995.524,640996.1,641012.201,643080.205,,grey
Frame,canvas.Frame,2_80,2022-07-15T15:21:04.279Z,,,0,V,2066.6990000000224,,,,643079.0000000001,643078.9,640995.524,640995.2999999999,641012.201,643080.205,,grey
Fixation,canvas.Screen,2_81_0_0,2022-07-15T15:21:06.667Z,,,1,A,2401.908999999985,timeout,,,645467.1,645465.434,643063.528,643080.4,643080.205,645482.114,,black
Stimulus,canvas.Screen,2_81_0_1,2022-07-15T15:21:06.765Z,,,1,A,98.752000000095,timeout,,,645565.1,645564.195,645465.434,645467.4,645482.114,645580.866,,black
Reaction,canvas.Screen,2_81_0_2,2022-07-15T15:21:06.905Z,,,1,A,122.93399999989197,response,stim_detected,mousedown,645705.2000000001,645703.7999999999,645564.195,645565.4,645580.866,645715.258,,black
Trial,flow.Sequence,2_81_0,2022-07-15T15:21:06.905Z,,,1,A,2623.594999999972,completion,,,645705.6,645703.7999999999,643063.528,643080.1,643080.205,645715.258,,black
Frame,canvas.Frame,2_81,2022-07-15T15:21:06.906Z,,,1,A,2625.4950000001118,,,,645705.9,645705.7000000001,643063.528,643079.2999999999,643080.205,645715.258,,black
Fixation,canvas.Screen,2_82_0_0,2022-07-15T15:21:08.567Z,,,1,AV,1667.4769999999553,timeout,,,647367.2000000001,647366.06,645698.581,645707.2999999999,645715.258,647382.735,,grey
Stimulus,canvas.Screen,2_82_0_1,2022-07-15T15:21:08.668Z,,,1,AV,100.34799999999814,timeout,,,647468.2000000001,647466.395,647366.06,647367.5000000001,647382.735,647483.083,,grey
Reaction,canvas.Screen,2_82_0_2,2022-07-15T15:21:08.800Z,,,1,AV,115.71699999994598,response,stim_detected,mousedown,647600.2000000001,647598.7999999999,647466.395,647468.4,647483.083,647616.499,,grey
Trial,flow.Sequence,2_82_0,2022-07-15T15:21:08.800Z,,,1,AV,1883.5419999998994,completion,,,647600.6,647598.7999999999,645698.581,645707.2000000001,645715.258,647616.499,,grey
Frame,canvas.Frame,2_82,2022-07-15T15:21:08.801Z,,,1,AV,1885.4420000000391,,,,647600.9,647600.7000000001,645698.581,645706.1,645715.258,647616.499,,grey
Fixation,canvas.Screen,2_83_0_0,2022-07-15T15:21:10.544Z,,,0,V,1717.051000000094,timeout,,,649343.7999999999,649316.879,647599.822,647601.9,647616.499,649333.55,,grey
Stimulus,canvas.Screen,2_83_0_1,2022-07-15T15:21:10.618Z,,,0,V,100.54799999995157,timeout,,,649418.2000000001,649417.423,649316.879,649344.1,649333.55,649434.098,,grey
Reaction,canvas.Screen,2_83_0_2,2022-07-15T15:21:10.787Z,,,0,V,151.701999999932,response,stim_detected,mousedown,649587.5000000001,649585.7999999999,649417.423,649418.4,649434.098,649601.114,,grey
Trial,flow.Sequence,2_83_0,2022-07-15T15:21:10.788Z,,,0,V,1969.3009999999776,completion,,,649587.9,649585.7999999999,647599.822,647601.7999999999,647616.499,649601.114,,grey
Frame,canvas.Frame,2_83,2022-07-15T15:21:10.788Z,,,0,V,1971.501000000164,,,,649588.2000000001,649588.0000000001,647599.822,647601.1,647616.499,649601.114,,grey
Fixation,canvas.Screen,2_84_0_0,2022-07-15T15:21:12.904Z,,,1,AV,2118.3690000000643,timeout,,,651704.2999999999,651702.803,649584.437,649589.4,649601.114,651719.483,,grey
Stimulus,canvas.Screen,2_84_0_1,2022-07-15T15:21:13.003Z,,,1,AV,99.73499999998603,timeout,,,651803.4,651802.46,651702.803,651704.5000000001,651719.483,651819.218,,grey
Reaction,canvas.Screen,2_84_0_2,2022-07-15T15:21:13.160Z,,,1,AV,139.48200000007637,response,stim_detected,mousedown,651960.4,651958.7000000001,651802.46,651803.6,651819.218,651969.311,,grey
Trial,flow.Sequence,2_84_0,2022-07-15T15:21:13.161Z,,,1,AV,2357.5860000001267,completion,,,651960.7999999999,651958.7000000001,649584.437,649589.2000000001,649601.114,651969.311,,grey
Frame,canvas.Frame,2_84,2022-07-15T15:21:13.161Z,,,1,AV,2359.685999999987,,,,651961.1,651960.7999999999,649584.437,649588.5000000001,649601.114,651969.311,,grey
Fixation,canvas.Screen,2_85_0_0,2022-07-15T15:21:15.322Z,,,0,V,2168.0139999999665,timeout,,,654122.2999999999,654120.648,651952.634,651962.1,651969.311,654137.325,,grey
Stimulus,canvas.Screen,2_85_0_1,2022-07-15T15:21:15.422Z,,,0,V,99.84700000006706,timeout,,,654221.7000000001,654220.497,654120.648,654122.6,654137.325,654237.172,,grey
Reaction,canvas.Screen,2_85_0_2,2022-07-15T15:21:15.613Z,,,0,V,174.42799999995623,response,stim_detected,mousedown,654413.1,654411.6,654220.497,654222.0000000001,654237.172,654420.939,,grey
Trial,flow.Sequence,2_85_0,2022-07-15T15:21:15.613Z,,,0,V,2442.2889999999898,completion,,,654413.4,654411.6,651952.634,651962.1,651969.311,654420.939,,grey
Frame,canvas.Frame,2_85,2022-07-15T15:21:15.614Z,,,0,V,2444.1890000001295,,,,654413.7999999999,654413.5000000001,651952.634,651961.2000000001,651969.311,654420.939,,grey
Fixation,canvas.Screen,2_86_0_0,2022-07-15T15:21:17.607Z,,,1,AV,2001.3349999999627,timeout,,,656407.2999999999,656405.596,654404.262,654414.9,654420.939,656422.274,,grey
Stimulus,canvas.Screen,2_86_0_1,2022-07-15T15:21:17.706Z,,,1,AV,99.48400000005495,timeout,,,656506.5000000001,656505.085,656405.596,656407.6,656422.274,656521.758,,grey
Reaction,canvas.Screen,2_86_0_2,2022-07-15T15:21:17.853Z,,,1,AV,129.74200000008568,response,stim_detected,mousedown,656653.5000000001,656651.5000000001,656505.085,656506.7999999999,656521.758,656655.714,,grey
Trial,flow.Sequence,2_86_0,2022-07-15T15:21:17.854Z,,,1,AV,2230.5610000001034,completion,,,656653.9,656651.5000000001,654404.262,654414.7999999999,654420.939,656655.714,,grey
Frame,canvas.Frame,2_86,2022-07-15T15:21:17.854Z,,,1,AV,2233.0610000001034,,,,656654.1,656654.0000000001,654404.262,654413.9,654420.939,656655.714,,grey
Fixation,canvas.Screen,2_87_0_0,2022-07-15T15:21:19.473Z,,,0,V,1633.591999999946,timeout,,,658273.5000000001,658272.636,656639.037,656655.2999999999,656655.714,658289.306,,grey
Stimulus,canvas.Screen,2_87_0_1,2022-07-15T15:21:19.574Z,,,0,V,100.91200000001118,timeout,,,658374.5000000001,658373.537,658272.636,658273.7000000001,658289.306,658390.218,,grey
Reaction,canvas.Screen,2_87_0_2,2022-07-15T15:21:19.773Z,,,0,V,181.1820000000298,response,stim_detected,mousedown,658572.7999999999,658571.4,658373.537,658374.7000000001,658390.218,658590.317,,grey
Trial,flow.Sequence,2_87_0,2022-07-15T15:21:19.773Z,,,0,V,1915.685999999987,completion,,,658573.2000000001,658571.4,656639.037,656655.1,656655.714,658590.317,,grey
Frame,canvas.Frame,2_87,2022-07-15T15:21:19.773Z,,,0,V,1917.5859999998938,,,,658573.5000000001,658573.2999999999,656639.037,656654.2999999999,656655.714,658590.317,,grey
Fixation,canvas.Screen,2_88_0_0,2022-07-15T15:21:21.625Z,,,1,A,1850.6450000000186,timeout,,,660425.6,660424.289,658573.64,658574.7000000001,658590.317,660440.962,,black
Stimulus,canvas.Screen,2_88_0_1,2022-07-15T15:21:21.726Z,,,1,A,100.63199999998324,timeout,,,660526.6,660524.915,660424.289,660425.9,660440.962,660541.594,,black
Reaction,canvas.Screen,2_88_0_2,2022-07-15T15:21:21.847Z,,,1,A,103.90600000007544,response,stim_detected,mousedown,660647.0000000001,660645.5000000001,660524.915,660526.9,660541.594,660658.324,,black
Trial,flow.Sequence,2_88_0,2022-07-15T15:21:21.847Z,,,1,A,2055.1830000000773,completion,,,660647.5000000001,660645.5000000001,658573.64,658574.7000000001,658590.317,660658.324,,black
Frame,canvas.Frame,2_88,2022-07-15T15:21:21.848Z,,,1,A,2057.2829999999376,,,,660647.9,660647.6,658573.64,658573.7000000001,658590.317,660658.324,,black
Fixation,canvas.Screen,2_89_0_0,2022-07-15T15:21:23.594Z,,,0,V,1751.0929999999935,timeout,,,662393.9,662392.74,660641.647,660649.1,660658.324,662409.417,,grey
Stimulus,canvas.Screen,2_89_0_1,2022-07-15T15:21:23.694Z,,,0,V,100.16799999994691,timeout,,,662494.7000000001,662492.907,662392.74,662394.2000000001,662409.417,662509.585,,grey
Reaction,canvas.Screen,2_89_0_2,2022-07-15T15:21:23.886Z,,,0,V,174.81500000006054,response,stim_detected,mousedown,662685.9,662684.4,662492.907,662495.0000000001,662509.585,662692.985,,grey
Trial,flow.Sequence,2_89_0,2022-07-15T15:21:23.886Z,,,0,V,2026.076000000001,completion,,,662686.2999999999,662684.4,660641.647,660649.1,660658.324,662692.985,,grey
Frame,canvas.Frame,2_89,2022-07-15T15:21:23.886Z,,,0,V,2028.176000000094,,,,662686.6,662686.5000000001,660641.647,660648.2999999999,660658.324,662692.985,,grey
Fixation,canvas.Screen,2_90_0_0,2022-07-15T15:21:25.411Z,,,1,AV,1533.7710000000661,timeout,,,664211.5000000001,664210.084,662676.308,662687.9,662692.985,664226.756,,grey
Stimulus,canvas.Screen,2_90_0_1,2022-07-15T15:21:25.512Z,,,1,AV,100.71099999989383,timeout,,,664311.7000000001,664310.789,664210.084,664211.9,664226.756,664327.467,,grey
Reaction,canvas.Screen,2_90_0_2,2022-07-15T15:21:25.643Z,,,1,AV,113.73300000012387,response,stim_detected,mousedown,664442.7999999999,664441.2000000001,664310.789,664311.9,664327.467,664460.755,,grey
Trial,flow.Sequence,2_90_0,2022-07-15T15:21:25.643Z,,,1,AV,1748.2150000000838,completion,,,664443.1,664441.2000000001,662676.308,662687.7000000001,662692.985,664460.755,,grey
Frame,canvas.Frame,2_90,2022-07-15T15:21:25.643Z,,,1,AV,1750.3149999999441,,,,664443.4,664443.2999999999,662676.308,662686.9,662692.985,664460.755,,grey
Loop,flow.Loop,2,2022-07-15T15:21:25.644Z,,,,,205233.0079999999,completion,,,664443.9,664443.2999999999,459193.615,459195.4,459210.292,664460.755,,
end,html.Page,3,2022-07-15T15:21:30.048Z,,,,,4386.844999999972,form submission,,,668848.2999999999,668847.6,664444.079,664444.1,664460.755,668847.296,,
root,flow.Sequence,,2022-07-15T15:21:30.049Z,,,,,664567.154,completion,,,668849.5000000001,668847.6,4247.084,4257.100000000035,4280.446,668847.296,,