sender,sender_type,sender_id,timestamp,meta,,aud,condition,duration,ended_on,response,response_action,time_commit,time_end,time_render,time_run,time_show,time_switch,url,vis
Instructions,html.Page,0,2022-07-14T16:06:17.891Z,"{""labjs_version"":""20.2.4"",""labjs_build"":{""flavor"":""production"",""commit"":""f5b4a49f956347addd546a832a3327688c2c0fef""},""location"":""file:///C:/Users/Proband%207/Desktop/RTE/index.html"",""userAgent"":""Mozilla/5.0 (Windows NT 6.1; Win64; x64) AppleWebKit/537.36 (KHTML, like Gecko) Chrome/103.0.0.0 Safari/537.36"",""platform"":""Win32"",""language"":""de-DE"",""locale"":""de"",""timeZone"":""Europe/Berlin"",""timezoneOffset"":-120,""screen_width"":1366,""screen_height"":768,""scroll_width"":1366,""scroll_height"":609,""window_innerWidth"":1366,""window_innerHeight"":657,""devicePixelRatio"":1}",,,,223934.747,form submission,,,227720.8999999999,227719.5,3768.075,3784,3784.753,227729.335,{},
Change Background,canvas.Screen,1,2022-07-14T16:06:20.891Z,,,,,3005.7550000000047,timeout,,,230720.19999999972,230718.409,227696.051,227721.6000000001,227729.335,230735.09,,
Fixation,canvas.Screen,2_0_0_0,2022-07-14T16:06:22.884Z,,,1,AV,1992.804999999993,timeout,,,232713.2999999998,232711.251,230718.409,230721.19999999972,230735.09,232727.895,,grey
Stimulus,canvas.Screen,2_0_0_1,2022-07-14T16:06:22.991Z,,,1,AV,108.07099999999627,timeout,,,232820.6000000001,232819.289,232711.251,232713.6000000001,232727.895,232835.966,,grey
Reaction,canvas.Screen,2_0_0_2,2022-07-14T16:06:23.213Z,,,1,AV,204.93399999992107,response,stim_detected,mousedown,233042.7999999998,233040.8999999999,232819.289,232820.7999999998,232835.966,233052.828,,grey
Trial,flow.Sequence,2_0_0,2022-07-14T16:06:23.214Z,,,1,AV,2305.8099999999104,completion,,,233043.3999999999,233040.8999999999,230718.409,230721.1000000001,230735.09,233052.828,,grey
Frame,canvas.Frame,2_0,2022-07-14T16:06:23.215Z,,,1,AV,2308.609999999724,,,,233044.1000000001,233043.69999999972,230718.409,230720.3999999999,230735.09,233052.828,,grey
Fixation,canvas.Screen,2_1_0_0,2022-07-14T16:06:25.660Z,,,0,V,2451.1909999999916,timeout,,,235489.2999999998,235487.344,233036.151,233045.19999999972,233052.828,235504.019,,grey
Stimulus,canvas.Screen,2_1_0_1,2022-07-14T16:06:25.760Z,,,0,V,100.50800000000163,timeout,,,235589.69999999972,235587.85,235487.344,235489.6000000001,235504.019,235604.527,,grey
Reaction,canvas.Screen,2_1_0_2,2022-07-14T16:06:25.974Z,,,0,V,197.372999999905,response,stim_detected,mousedown,235803.5,235801.8999999999,235587.85,235590.19999999972,235604.527,235821.359,,grey
Trial,flow.Sequence,2_1_0,2022-07-14T16:06:25.975Z,,,0,V,2749.0719999998983,completion,,,235804.3999999999,235801.8999999999,233036.151,233045,233052.828,235821.359,,grey
Frame,canvas.Frame,2_1,2022-07-14T16:06:25.975Z,,,0,V,2751.6719999999914,,,,235804.8999999999,235804.5,233036.151,233044.2999999998,233052.828,235821.359,,grey
Fixation,canvas.Screen,2_2_0_0,2022-07-14T16:06:27.578Z,,,0,V,1601.3429999999935,timeout,,,237407.2999999998,237406.022,235804.682,235806.19999999972,235821.359,237422.702,,grey
Stimulus,canvas.Screen,2_2_0_1,2022-07-14T16:06:27.678Z,,,0,V,99.47400000001653,timeout,,,237507.2999999998,237505.502,237406.022,237407.5,237422.702,237522.176,,grey
Reaction,canvas.Screen,2_2_0_2,2022-07-14T16:06:27.848Z,,,0,V,153.72399999990012,response,stim_detected,mousedown,237677.5,237675.8999999999,237505.502,237507.6000000001,237522.176,237689.221,,grey
Trial,flow.Sequence,2_2_0,2022-07-14T16:06:27.849Z,,,0,V,1854.5409999999101,completion,,,237678,237675.8999999999,235804.682,235806,235821.359,237689.221,,grey
Frame,canvas.Frame,2_2,2022-07-14T16:06:27.849Z,,,0,V,1856.8409999997239,,,,237678.3999999999,237678.19999999972,235804.682,235805.19999999972,235821.359,237689.221,,grey
Fixation,canvas.Screen,2_3_0_0,2022-07-14T16:06:30.314Z,,,1,AV,2469.5770000000193,timeout,,,240143.2999999998,240142.112,237672.544,237679.5,237689.221,240158.798,,grey
Stimulus,canvas.Screen,2_3_0_1,2022-07-14T16:06:30.413Z,,,1,AV,98.85399999999208,timeout,,,240242.3999999999,240240.975,240142.112,240143.6000000001,240158.798,240257.652,,grey
Reaction,canvas.Screen,2_3_0_2,2022-07-14T16:06:30.544Z,,,1,AV,114.247999999905,response,stim_detected,mousedown,240373.2999999998,240371.8999999999,240240.975,240242.6000000001,240257.652,240391.048,,grey
Trial,flow.Sequence,2_3_0,2022-07-14T16:06:30.544Z,,,1,AV,2682.6789999999164,completion,,,240373.69999999972,240371.8999999999,237672.544,237679.3999999999,237689.221,240391.048,,grey
Frame,canvas.Frame,2_3,2022-07-14T16:06:30.545Z,,,1,AV,2684.5789999998233,,,,240374,240373.7999999998,237672.544,237678.5,237689.221,240391.048,,grey
Fixation,canvas.Screen,2_4_0_0,2022-07-14T16:06:32.464Z,,,1,AV,1917.8649999999907,timeout,,,242293.5,242292.236,240374.371,240375.1000000001,240391.048,242308.913,,grey
Stimulus,canvas.Screen,2_4_0_1,2022-07-14T16:06:32.564Z,,,1,AV,99.99299999998766,timeout,,,242393.3999999999,242392.23,242292.236,242293.69999999972,242308.913,242408.906,,grey
Reaction,canvas.Screen,2_4_0_2,2022-07-14T16:06:32.697Z,,,1,AV,115.89399999982561,response,stim_detected,mousedown,242526.5,242524.7999999998,242392.23,242393.6000000001,242408.906,242542.46,,grey
Trial,flow.Sequence,2_4_0,2022-07-14T16:06:32.697Z,,,1,AV,2133.751999999804,completion,,,242526.8999999999,242524.7999999998,240374.371,240375,240391.048,242542.46,,grey
Frame,canvas.Frame,2_4,2022-07-14T16:06:32.698Z,,,1,AV,2135.95199999999,,,,242527.19999999972,242527,240374.371,240374.19999999972,240391.048,242542.46,,grey
Fixation,canvas.Screen,2_5_0_0,2022-07-14T16:06:34.898Z,,,0,V,2200.8000000000175,timeout,,,244727.6000000001,244726.587,242525.783,242528.2999999998,242542.46,244743.26,,grey
Stimulus,canvas.Screen,2_5_0_1,2022-07-14T16:06:34.999Z,,,0,V,100.35499999998137,timeout,,,244828.5,244826.94,244726.587,244727.8999999999,244743.26,244843.615,,grey
Reaction,canvas.Screen,2_5_0_2,2022-07-14T16:06:35.138Z,,,0,V,122.08499999972992,response,stim_detected,mousedown,244967.19999999972,244965.69999999972,244826.94,244828.7999999998,244843.615,244977.408,,grey
Trial,flow.Sequence,2_5_0,2022-07-14T16:06:35.138Z,,,0,V,2423.2399999997288,completion,,,244967.6000000001,244965.69999999972,242525.783,242528.2999999998,242542.46,244977.408,,grey
Frame,canvas.Frame,2_5,2022-07-14T16:06:35.138Z,,,0,V,2425.339999999822,,,,244968,244967.7999999998,242525.783,242527.2999999998,242542.46,244977.408,,grey
Fixation,canvas.Screen,2_6_0_0,2022-07-14T16:06:36.701Z,,,1,A,1568.1940000000177,timeout,,,246530.6000000001,246528.919,244960.731,244969.1000000001,244977.408,246545.602,,black
Stimulus,canvas.Screen,2_6_0_1,2022-07-14T16:06:36.800Z,,,1,A,99.43799999999464,timeout,,,246629.6000000001,246628.364,246528.919,246531.1000000001,246545.602,246645.04,,black
Reaction,canvas.Screen,2_6_0_2,2022-07-14T16:06:36.941Z,,,1,A,123.65999999971245,response,stim_detected,mousedown,246770.19999999972,246768.69999999972,246628.364,246629.8999999999,246645.04,246778.6,,black
Trial,flow.Sequence,2_6_0,2022-07-14T16:06:36.941Z,,,1,A,1791.2919999997248,completion,,,246770.5,246768.69999999972,244960.731,244969.1000000001,244977.408,246778.6,,black
Frame,canvas.Frame,2_6,2022-07-14T16:06:36.941Z,,,1,A,1793.2919999997248,,,,246770.8999999999,246770.69999999972,244960.731,244968.1000000001,244977.408,246778.6,,black
Fixation,canvas.Screen,2_7_0_0,2022-07-14T16:06:38.768Z,,,1,AV,1834.3489999999874,timeout,,,248597.6000000001,248596.273,246761.923,246772,246778.6,248612.949,,grey
Stimulus,canvas.Screen,2_7_0_1,2022-07-14T16:06:38.868Z,,,1,AV,100.31700000001001,timeout,,,248697.69999999972,248696.587,248596.273,248597.7999999998,248612.949,248713.266,,grey
Reaction,canvas.Screen,2_7_0_2,2022-07-14T16:06:38.999Z,,,1,AV,113.43399999971734,response,stim_detected,mousedown,248828.19999999972,248826.69999999972,248696.587,248698,248713.266,248829.944,,grey
Trial,flow.Sequence,2_7_0,2022-07-14T16:06:38.999Z,,,1,AV,2048.099999999715,completion,,,248828.5,248826.69999999972,246761.923,246771.8999999999,246778.6,248829.944,,grey
Frame,canvas.Frame,2_7,2022-07-14T16:06:38.999Z,,,1,AV,2050.099999999715,,,,248828.8999999999,248828.69999999972,246761.923,246771.1000000001,246778.6,248829.944,,grey
Fixation,canvas.Screen,2_8_0_0,2022-07-14T16:06:41.437Z,,,1,A,2451.680000000022,timeout,,,251266.69999999972,251264.946,248813.267,248830.1000000001,248829.944,251281.624,,black
Stimulus,canvas.Screen,2_8_0_1,2022-07-14T16:06:41.537Z,,,1,A,99.6929999999993,timeout,,,251366,251364.642,251264.946,251267,251281.624,251381.317,,black
Reaction,canvas.Screen,2_8_0_2,2022-07-14T16:06:41.702Z,,,1,A,148.3829999997106,response,stim_detected,mousedown,251531,251529.69999999972,251364.642,251366.3999999999,251381.317,251548.415,,black
Trial,flow.Sequence,2_8_0,2022-07-14T16:06:41.702Z,,,1,A,2699.755999999732,completion,,,251531.5,251529.69999999972,248813.267,248830,248829.944,251548.415,,black
Frame,canvas.Frame,2_8,2022-07-14T16:06:41.702Z,,,1,A,2701.6560000001045,,,,251531.7999999998,251531.6000000001,248813.267,248829.1000000001,248829.944,251548.415,,black
Fixation,canvas.Screen,2_9_0_0,2022-07-14T16:06:43.671Z,,,1,A,1967.356999999989,timeout,,,253500.7999999998,253499.099,251531.738,251532.8999999999,251548.415,253515.772,,black
Stimulus,canvas.Screen,2_9_0_1,2022-07-14T16:06:43.771Z,,,1,A,100.77100000000792,timeout,,,253600.7999999998,253599.864,253499.099,253501.1000000001,253515.772,253616.543,,black
Reaction,canvas.Screen,2_9_0_2,2022-07-14T16:06:43.931Z,,,1,A,142.057000000088,response,stim_detected,mousedown,253760,253758.6000000001,253599.864,253601.1000000001,253616.543,253783.236,,black
Trial,flow.Sequence,2_9_0,2022-07-14T16:06:43.931Z,,,1,A,2210.185000000085,completion,,,253760.3999999999,253758.6000000001,251531.738,251532.8999999999,251548.415,253783.236,,black
Frame,canvas.Frame,2_9,2022-07-14T16:06:43.931Z,,,1,A,2212.084999999992,,,,253760.69999999972,253760.5,251531.738,251532,251548.415,253783.236,,black
Fixation,canvas.Screen,2_10_0_0,2022-07-14T16:06:45.539Z,,,1,AV,1600.2369999999937,timeout,,,255368,255366.803,253749.882,253786.7999999998,253783.236,255383.473,,grey
Stimulus,canvas.Screen,2_10_0_1,2022-07-14T16:06:45.639Z,,,1,AV,100.87200000000303,timeout,,,255468.8999999999,255467.668,255366.803,255368.2999999998,255383.473,255484.345,,grey
Reaction,canvas.Screen,2_10_0_2,2022-07-14T16:06:45.776Z,,,1,AV,119.15499999999884,response,stim_detected,mousedown,255605.3999999999,255603.5,255467.668,255469.19999999972,255484.345,255617.711,,grey
Trial,flow.Sequence,2_10_0,2022-07-14T16:06:45.776Z,,,1,AV,1820.2639999999956,completion,,,255605.7999999998,255603.5,253749.882,253786.69999999972,253783.236,255617.711,,grey
Frame,canvas.Frame,2_10,2022-07-14T16:06:45.777Z,,,1,AV,1822.7639999999956,,,,255606.19999999972,255606,253749.882,253760.8999999999,253783.236,255617.711,,grey
Fixation,canvas.Screen,2_11_0_0,2022-07-14T16:06:47.692Z,,,1,A,1919.0950000000012,timeout,,,257521.1000000001,257520.119,255601.035,255607.2999999998,255617.711,257536.806,,black
Stimulus,canvas.Screen,2_11_0_1,2022-07-14T16:06:47.790Z,,,1,A,98.87599999998929,timeout,,,257620,257619.006,257520.119,257521.2999999998,257536.806,257635.682,,black
Reaction,canvas.Screen,2_11_0_2,2022-07-14T16:06:47.923Z,,,1,A,115.8179999999993,response,stim_detected,mousedown,257752.8999999999,257751.5,257619.006,257620.19999999972,257635.682,257769.197,,black
Trial,flow.Sequence,2_11_0,2022-07-14T16:06:47.924Z,,,1,A,2133.7889999999898,completion,,,257753.3999999999,257751.5,255601.035,255607.19999999972,255617.711,257769.197,,black
Frame,canvas.Frame,2_11,2022-07-14T16:06:47.924Z,,,1,A,2135.7889999999898,,,,257753.69999999972,257753.5,255601.035,255606.3999999999,255617.711,257769.197,,black
Fixation,canvas.Screen,2_12_0_0,2022-07-14T16:06:49.959Z,,,0,V,2033.9270000000251,timeout,,,259788.1000000001,259786.452,257752.52,257754.8999999999,257769.197,259803.124,,grey
Stimulus,canvas.Screen,2_12_0_1,2022-07-14T16:06:50.059Z,,,0,V,100.82699999999022,timeout,,,259888.19999999972,259887.27,259786.452,259788.2999999998,259803.124,259903.951,,grey
Reaction,canvas.Screen,2_12_0_2,2022-07-14T16:06:50.290Z,,,0,V,214.54899999999907,response,stim_detected,mousedown,260119.8999999999,260118.5,259887.27,259888.5,259903.951,260137.412,,grey
Trial,flow.Sequence,2_12_0,2022-07-14T16:06:50.291Z,,,0,V,2349.3030000000144,completion,,,260120.2999999998,260118.5,257752.52,257754.69999999972,257769.197,260137.412,,grey
Frame,canvas.Frame,2_12,2022-07-14T16:06:50.291Z,,,0,V,2351.3030000000144,,,,260120.6000000001,260120.5,257752.52,257753.8999999999,257769.197,260137.412,,grey
Fixation,canvas.Screen,2_13_0_0,2022-07-14T16:06:51.844Z,,,1,AV,1551.1839999999793,timeout,,,261673.19999999972,261671.917,260120.735,260121.69999999972,260137.412,261688.596,,grey
Stimulus,canvas.Screen,2_13_0_1,2022-07-14T16:06:51.944Z,,,1,AV,99.7950000000128,timeout,,,261773.19999999972,261771.715,261671.917,261673.3999999999,261688.596,261788.391,,grey
Reaction,canvas.Screen,2_13_0_2,2022-07-14T16:06:52.118Z,,,1,AV,157.30899999971734,response,stim_detected,mousedown,261947.2999999998,261945.69999999972,261771.715,261773.5,261788.391,261955.259,,grey
Trial,flow.Sequence,2_13_0,2022-07-14T16:06:52.118Z,,,1,AV,1808.2879999997094,completion,,,261947.69999999972,261945.69999999972,260120.735,260121.6000000001,260137.412,261955.259,,grey
Frame,canvas.Frame,2_13,2022-07-14T16:06:52.119Z,,,1,AV,1810.3879999998026,,,,261948,261947.7999999998,260120.735,260120.7999999998,260137.412,261955.259,,grey
Fixation,canvas.Screen,2_14_0_0,2022-07-14T16:06:53.896Z,,,1,A,1785.3459999999905,timeout,,,263725.1999999997,263723.92,261938.582,261949,261955.259,263740.605,,black
Stimulus,canvas.Screen,2_14_0_1,2022-07-14T16:06:53.995Z,,,1,A,98.81300000002375,timeout,,,263824.2999999998,263822.745,263723.92,263725.3999999999,263740.605,263839.418,,black
Reaction,canvas.Screen,2_14_0_2,2022-07-14T16:06:54.122Z,,,1,A,110.98199999990175,response,stim_detected,mousedown,263952,263950.3999999999,263822.745,263824.5,263839.418,263956.612,,black
Trial,flow.Sequence,2_14_0,2022-07-14T16:06:54.123Z,,,1,A,1995.140999999916,completion,,,263952.3999999999,263950.3999999999,261938.582,261948.8999999999,261955.259,263956.612,,black
Frame,canvas.Frame,2_14,2022-07-14T16:06:54.123Z,,,1,A,1997.3410000001022,,,,263952.7999999998,263952.6000000001,261938.582,261948.19999999972,261955.259,263956.612,,black
Fixation,canvas.Screen,2_15_0_0,2022-07-14T16:06:56.080Z,,,1,A,1967.886999999988,timeout,,,265909.2999999998,265907.822,263939.935,263953.8999999999,263956.612,265924.499,,black
Stimulus,canvas.Screen,2_15_0_1,2022-07-14T16:06:56.180Z,,,1,A,100.17999999999302,timeout,,,266009.2999999998,266008,265907.822,265909.5,265924.499,266024.679,,black
Reaction,canvas.Screen,2_15_0_2,2022-07-14T16:06:56.296Z,,,1,A,99.62099999981001,response,stim_detected,mousedown,266125.8999999999,266124.2999999998,266008,266009.6000000001,266024.679,266141.348,,black
Trial,flow.Sequence,2_15_0,2022-07-14T16:06:56.297Z,,,1,A,2167.687999999791,completion,,,266126.2999999998,266124.2999999998,263939.935,263953.6999999997,263956.612,266141.348,,black
Frame,canvas.Frame,2_15,2022-07-14T16:06:56.297Z,,,1,A,2169.787999999884,,,,266126.7999999998,266126.3999999999,263939.935,263952.8999999999,263956.612,266141.348,,black
Fixation,canvas.Screen,2_16_0_0,2022-07-14T16:06:58.332Z,,,1,AV,2035.5929999999935,timeout,,,268161.5,268160.256,266124.672,266128,266141.348,268176.941,,grey
Stimulus,canvas.Screen,2_16_0_1,2022-07-14T16:06:58.431Z,,,1,AV,99.04200000001583,timeout,,,268260.2999999998,268259.307,268160.256,268161.6999999997,268176.941,268275.983,,grey
Reaction,canvas.Screen,2_16_0_2,2022-07-14T16:06:58.557Z,,,1,AV,109.21699999971315,response,stim_detected,mousedown,268386.7999999998,268385.1999999997,268259.307,268260.6000000001,268275.983,268392.876,,grey
Trial,flow.Sequence,2_16_0,2022-07-14T16:06:58.558Z,,,1,AV,2243.8519999997225,completion,,,268387.2999999998,268385.1999999997,266124.672,266127.8999999999,266141.348,268392.876,,grey
Frame,canvas.Frame,2_16,2022-07-14T16:06:58.558Z,,,1,AV,2246.0519999999087,,,,268387.6000000001,268387.3999999999,266124.672,266127.1000000001,266141.348,268392.876,,grey
Fixation,canvas.Screen,2_17_0_0,2022-07-14T16:07:00.082Z,,,0,V,1534.0829999999842,timeout,,,269911.3999999999,269910.284,268376.199,268388.7999999998,268392.876,269926.959,,grey
Stimulus,canvas.Screen,2_17_0_1,2022-07-14T16:07:00.182Z,,,0,V,100.37400000001071,timeout,,,270011.5,270010.655,269910.284,269911.6999999997,269926.959,270027.333,,grey
Reaction,canvas.Screen,2_17_0_2,2022-07-14T16:07:00.372Z,,,0,V,173.16700000001583,response,stim_detected,mousedown,270201.8999999999,270200.5,270010.655,270011.6999999997,270027.333,270210.732,,grey
Trial,flow.Sequence,2_17_0,2022-07-14T16:07:00.373Z,,,0,V,1807.6240000000107,completion,,,270202.2999999998,270200.5,268376.199,268388.6999999997,268392.876,270210.732,,grey
Frame,canvas.Frame,2_17,2022-07-14T16:07:00.373Z,,,0,V,1809.6240000000107,,,,270202.6000000001,270202.5,268376.199,268387.7999999998,268392.876,270210.732,,grey
Fixation,canvas.Screen,2_18_0_0,2022-07-14T16:07:02.751Z,,,1,A,2385.2859999999637,timeout,,,272580.5,272579.338,270194.055,270203.6999999997,270210.732,272596.018,,black
Stimulus,canvas.Screen,2_18_0_1,2022-07-14T16:07:02.851Z,,,1,A,99.7609999999986,timeout,,,272680.6000000001,272679.096,272579.338,272580.7999999998,272596.018,272695.779,,black
Reaction,canvas.Screen,2_18_0_2,2022-07-14T16:07:02.989Z,,,1,A,120.5209999998333,response,stim_detected,mousedown,272818.1000000001,272816.2999999998,272679.096,272680.7999999998,272695.779,272829.13,,black
Trial,flow.Sequence,2_18_0,2022-07-14T16:07:02.989Z,,,1,A,2605.5679999997956,completion,,,272818.6000000001,272816.2999999998,270194.055,270203.6000000001,270210.732,272829.13,,black
Frame,canvas.Frame,2_18,2022-07-14T16:07:02.989Z,,,1,A,2607.9679999997024,,,,272818.8999999999,272818.6999999997,270194.055,270202.8999999999,270210.732,272829.13,,black
Fixation,canvas.Screen,2_19_0_0,2022-07-14T16:07:05.403Z,,,1,AV,2418.4830000000075,timeout,,,275232.8999999999,275230.934,272812.453,272841.7999999998,272829.13,275247.613,,grey
Stimulus,canvas.Screen,2_19_0_1,2022-07-14T16:07:05.502Z,,,1,AV,99.40599999995902,timeout,,,275331.6999999997,275330.345,275230.934,275233.1999999997,275247.613,275347.019,,grey
Reaction,canvas.Screen,2_19_0_2,2022-07-14T16:07:05.658Z,,,1,AV,139.2809999998426,response,stim_detected,mousedown,275487.7999999998,275486.2999999998,275330.345,275332,275347.019,275497.566,,grey
Trial,flow.Sequence,2_19_0,2022-07-14T16:07:05.659Z,,,1,AV,2657.169999999809,completion,,,275488.1999999997,275486.2999999998,272812.453,272841.6999999997,272829.13,275497.566,,grey
Frame,canvas.Frame,2_19,2022-07-14T16:07:05.659Z,,,1,AV,2659.169999999809,,,,275488.6000000001,275488.2999999998,272812.453,272819.1000000001,272829.13,275497.566,,grey
Fixation,canvas.Screen,2_20_0_0,2022-07-14T16:07:07.620Z,,,0,V,1967.2430000000168,timeout,,,277449.6999999997,277448.137,275480.889,275489.6000000001,275497.566,277464.809,,grey
Stimulus,canvas.Screen,2_20_0_1,2022-07-14T16:07:07.721Z,,,0,V,100.84700000000885,timeout,,,277550.7999999998,277548.978,277448.137,277450,277464.809,277565.656,,grey
Reaction,canvas.Screen,2_20_0_2,2022-07-14T16:07:07.878Z,,,0,V,140.54399999970337,response,stim_detected,mousedown,277707.5,277706.1999999997,277548.978,277551.1000000001,277565.656,277715.672,,grey
Trial,flow.Sequence,2_20_0,2022-07-14T16:07:07.878Z,,,0,V,2208.633999999729,completion,,,277708,277706.1999999997,275480.889,275489.6000000001,275497.566,277715.672,,grey
Frame,canvas.Frame,2_20,2022-07-14T16:07:07.879Z,,,0,V,2210.5340000001015,,,,277708.2999999998,277708.1000000001,275480.889,275488.6999999997,275497.566,277715.672,,grey
Fixation,canvas.Screen,2_21_0_0,2022-07-14T16:07:10.339Z,,,1,A,2469.1300000000047,timeout,,,280168.8999999999,280168.119,277698.995,277709.2999999998,277715.672,280184.802,,black
Stimulus,canvas.Screen,2_21_0_1,2022-07-14T16:07:10.439Z,,,1,A,99.26299999997718,timeout,,,280268.8999999999,280267.337,280168.119,280169.1999999997,280184.802,280284.065,,black
Reaction,canvas.Screen,2_21_0_2,2022-07-14T16:07:10.566Z,,,1,A,110.13499999971827,response,stim_detected,mousedown,280395.6000000001,280394.1999999997,280267.337,280269.1000000001,280284.065,280400.804,,black
Trial,flow.Sequence,2_21_0,2022-07-14T16:07:10.567Z,,,1,A,2678.5279999997,completion,,,280396,280394.1999999997,277698.995,277709.2999999998,277715.672,280400.804,,black
Frame,canvas.Frame,2_21,2022-07-14T16:07:10.567Z,,,1,A,2680.5279999997,,,,280396.3999999999,280396.1999999997,277698.995,277708.5,277715.672,280400.804,,black
Fixation,canvas.Screen,2_22_0_0,2022-07-14T16:07:12.640Z,,,0,V,2084.63400000002,timeout,,,282469.8999999999,282468.761,280384.127,280397.5,280400.804,282485.438,,grey
Stimulus,canvas.Screen,2_22_0_1,2022-07-14T16:07:12.740Z,,,0,V,99.99099999997998,timeout,,,282569.6000000001,282568.753,282468.761,282470.1999999997,282485.438,282585.429,,grey
Reaction,canvas.Screen,2_22_0_2,2022-07-14T16:07:12.877Z,,,0,V,120.37099999981001,response,stim_detected,mousedown,282706.6000000001,282705.7999999998,282568.753,282569.6999999997,282585.429,282718.961,,grey
Trial,flow.Sequence,2_22_0,2022-07-14T16:07:12.877Z,,,0,V,2304.99599999981,completion,,,282706.6999999997,282705.7999999998,280384.127,280397.3999999999,280400.804,282718.961,,grey
Frame,canvas.Frame,2_22,2022-07-14T16:07:12.877Z,,,0,V,2305.99599999981,,,,282706.8999999999,282706.7999999998,280384.127,280396.5,280400.804,282718.961,,grey
Fixation,canvas.Screen,2_23_0_0,2022-07-14T16:07:14.541Z,,,1,AV,1667.7099999999627,timeout,,,284371,284369.994,282702.284,282707.3999999999,282718.961,284386.671,,grey
Stimulus,canvas.Screen,2_23_0_1,2022-07-14T16:07:14.642Z,,,1,AV,99.99900000001071,timeout,,,284471.1000000001,284469.994,284369.994,284371.1999999997,284386.671,284486.67,,grey
Reaction,canvas.Screen,2_23_0_2,2022-07-14T16:07:14.822Z,,,1,AV,163.22999999992317,response,stim_detected,mousedown,284651.3999999999,284649.8999999999,284469.994,284471.1999999997,284486.67,284670.312,,grey
Trial,flow.Sequence,2_23_0,2022-07-14T16:07:14.822Z,,,1,AV,1930.9389999998966,completion,,,284651.8999999999,284649.8999999999,282702.284,282707.2999999998,282718.961,284670.312,,grey
Frame,canvas.Frame,2_23,2022-07-14T16:07:14.823Z,,,1,AV,1933.0389999999898,,,,284652.2999999998,284652,282702.284,282706.8999999999,282718.961,284670.312,,grey
Fixation,canvas.Screen,2_24_0_0,2022-07-14T16:07:16.960Z,,,1,AV,2134.2270000000135,timeout,,,286789.1999999997,286787.865,284636.956,284653.3999999999,284670.312,286804.539,,grey
Stimulus,canvas.Screen,2_24_0_1,2022-07-14T16:07:17.060Z,,,1,AV,100.45900000003166,timeout,,,286889.1999999997,286888.322,286787.865,286789.6000000001,286804.539,286904.998,,grey
Reaction,canvas.Screen,2_24_0_2,2022-07-14T16:07:17.178Z,,,1,AV,101.00199999997858,response,stim_detected,mousedown,287007.3999999999,287006,286888.322,286889.3999999999,286904.998,287021.809,,grey
Trial,flow.Sequence,2_24_0,2022-07-14T16:07:17.179Z,,,1,AV,2335.6880000000237,completion,,,287007.7999999998,287006,284636.956,284653.2999999998,284670.312,287021.809,,grey
Frame,canvas.Frame,2_24,2022-07-14T16:07:17.179Z,,,1,AV,2337.6880000000237,,,,287008.1000000001,287008,284636.956,284652.3999999999,284670.312,287021.809,,grey
Fixation,canvas.Screen,2_25_0_0,2022-07-14T16:07:19.363Z,,,1,A,2185.7820000000065,timeout,,,289192.2999999998,289190.906,287005.132,287009.3999999999,287021.809,289207.591,,black
Stimulus,canvas.Screen,2_25_0_1,2022-07-14T16:07:19.462Z,,,1,A,98.93699999997625,timeout,,,289291.5,289289.852,289190.906,289192.5,289207.591,289306.528,,black
Reaction,canvas.Screen,2_25_0_2,2022-07-14T16:07:19.576Z,,,1,A,97.37199999991572,response,stim_detected,mousedown,289405.3999999999,289403.8999999999,289289.852,289291.6000000001,289306.528,289423.433,,black
Trial,flow.Sequence,2_25_0,2022-07-14T16:07:19.577Z,,,1,A,2382.0909999998985,completion,,,289405.6999999997,289403.8999999999,287005.132,287009.1999999997,287021.809,289423.433,,black
Frame,canvas.Frame,2_25,2022-07-14T16:07:19.577Z,,,1,A,2384.0909999998985,,,,289406.1000000001,289405.8999999999,287005.132,287008.2999999998,287021.809,289423.433,,black
Fixation,canvas.Screen,2_26_0_0,2022-07-14T16:07:21.880Z,,,0,V,2301.435999999987,timeout,,,291709.3999999999,291708.192,289406.756,289407.1000000001,289423.433,291724.869,,grey
Stimulus,canvas.Screen,2_26_0_1,2022-07-14T16:07:21.980Z,,,0,V,100.23800000001211,timeout,,,291809.3999999999,291808.429,291708.192,291709.6000000001,291724.869,291825.107,,grey
Reaction,canvas.Screen,2_26_0_2,2022-07-14T16:07:22.137Z,,,0,V,139.7929999998887,response,stim_detected,mousedown,291966.3999999999,291964.8999999999,291808.429,291809.6000000001,291825.107,291975.103,,grey
Trial,flow.Sequence,2_26_0,2022-07-14T16:07:22.138Z,,,0,V,2541.466999999888,completion,,,291966.8999999999,291964.8999999999,289406.756,289407,289423.433,291975.103,,grey
Frame,canvas.Frame,2_26,2022-07-14T16:07:22.138Z,,,0,V,2543.566999999981,,,,291967.1999999997,291967,289406.756,289406.1999999997,289423.433,291975.103,,grey
Fixation,canvas.Screen,2_27_0_0,2022-07-14T16:07:24.532Z,,,1,A,2401.344999999972,timeout,,,294361.3999999999,294359.772,291958.426,291968.1999999997,291975.103,294376.448,,black
Stimulus,canvas.Screen,2_27_0_1,2022-07-14T16:07:24.632Z,,,1,A,100.12800000002608,timeout,,,294461.3999999999,294459.9,294359.772,294361.6000000001,294376.448,294476.576,,black
Reaction,canvas.Screen,2_27_0_2,2022-07-14T16:07:24.766Z,,,1,A,117.0240000000922,response,stim_detected,mousedown,294595.5,294593.6000000001,294459.9,294461.6999999997,294476.576,294610.173,,black
Trial,flow.Sequence,2_27_0,2022-07-14T16:07:24.767Z,,,1,A,2618.4970000000903,completion,,,294595.8999999999,294593.6000000001,291958.426,291968.1000000001,291975.103,294610.173,,black
Frame,canvas.Frame,2_27,2022-07-14T16:07:24.767Z,,,1,A,2620.896999999997,,,,294596.1999999997,294596,291958.426,291967.2999999998,291975.103,294610.173,,black
Fixation,canvas.Screen,2_28_0_0,2022-07-14T16:07:27.018Z,,,1,A,2252.4199999999837,timeout,,,296847.6000000001,296845.909,294593.496,294597.1999999997,294610.173,296862.593,,black
Stimulus,canvas.Screen,2_28_0_1,2022-07-14T16:07:27.117Z,,,1,A,99.0559999999823,timeout,,,296946.6000000001,296944.973,296845.909,296847.7999999998,296862.593,296961.649,,black
Reaction,canvas.Screen,2_28_0_2,2022-07-14T16:07:27.234Z,,,1,A,100.15099999983795,response,stim_detected,mousedown,297063.2999999998,297061.7999999998,296944.973,296946.7999999998,296961.649,297078.506,,black
Trial,flow.Sequence,2_28_0,2022-07-14T16:07:27.235Z,,,1,A,2451.626999999804,completion,,,297063.7999999998,297061.7999999998,294593.496,294597.1000000001,294610.173,297078.506,,black
Frame,canvas.Frame,2_28,2022-07-14T16:07:27.235Z,,,1,A,2453.726999999897,,,,297064.1000000001,297063.8999999999,294593.496,294596.3999999999,294610.173,297078.506,,black
Fixation,canvas.Screen,2_29_0_0,2022-07-14T16:07:29.368Z,,,0,V,2133.9689999999828,timeout,,,299197.6000000001,299195.803,297061.829,297065.3999999999,297078.506,299212.475,,grey
Stimulus,canvas.Screen,2_29_0_1,2022-07-14T16:07:29.468Z,,,0,V,100.7840000000433,timeout,,,299297.6999999997,299296.582,299195.803,299197.7999999998,299212.475,299313.259,,grey
Reaction,canvas.Screen,2_29_0_2,2022-07-14T16:07:29.625Z,,,0,V,139.5409999997937,response,stim_detected,mousedown,299454.2999999998,299452.7999999998,299296.582,299297.8999999999,299313.259,299463.379,,grey
Trial,flow.Sequence,2_29_0,2022-07-14T16:07:29.625Z,,,0,V,2374.29399999982,completion,,,299454.6000000001,299452.7999999998,297061.829,297065.2999999998,297078.506,299463.379,,grey
Frame,canvas.Frame,2_29,2022-07-14T16:07:29.626Z,,,0,V,2376.29399999982,,,,299455.1000000001,299454.7999999998,297061.829,297064.3999999999,297078.506,299463.379,,grey
Fixation,canvas.Screen,2_30_0_0,2022-07-14T16:07:32.004Z,,,0,V,2385.127999999968,timeout,,,301832.6999999997,301831.828,299446.702,299456.3999999999,299463.379,301848.507,,grey
Stimulus,canvas.Screen,2_30_0_1,2022-07-14T16:07:32.104Z,,,0,V,99.81400000001304,timeout,,,301932.8999999999,301931.644,301831.828,301833,301848.507,301948.321,,grey
Reaction,canvas.Screen,2_30_0_2,2022-07-14T16:07:33.604Z,,,0,V,1500.966000000015,timeout,,,303433.6999999997,303432.61,301931.644,301933.1999999997,301948.321,303449.287,,grey
Trial,flow.Sequence,2_30_0,2022-07-14T16:07:33.605Z,,,0,V,3969.2309999999707,completion,,,303434.1999999997,303432.61,299446.702,299456.3999999999,299463.379,303449.287,,grey
Frame,canvas.Frame,2_30,2022-07-14T16:07:33.605Z,,,0,V,3970.8209999997052,,,,303434.5,303434.1999999997,299446.702,299455.2999999998,299463.379,303465.964,,grey
Fixation,canvas.Screen,2_31_0_0,2022-07-14T16:07:35.873Z,,,1,A,2251.429999999993,timeout,,,305702,305700.717,303449.287,303435.6000000001,303465.964,305717.394,,black
Stimulus,canvas.Screen,2_31_0_1,2022-07-14T16:07:35.972Z,,,1,A,98.74300000001676,timeout,,,305801.1000000001,305799.47,305700.717,305702.1999999997,305717.394,305816.137,,black
Reaction,canvas.Screen,2_31_0_2,2022-07-14T16:07:36.122Z,,,1,A,133.5629999997327,response,stim_detected,mousedown,305951.5,305949.6999999997,305799.47,305801.3999999999,305816.137,305967.678,,black
Trial,flow.Sequence,2_31_0,2022-07-14T16:07:36.123Z,,,1,A,2483.7359999997425,completion,,,305951.8999999999,305949.6999999997,303449.287,303435.3999999999,303465.964,305967.678,,black
Frame,canvas.Frame,2_31,2022-07-14T16:07:36.123Z,,,1,A,2486.136000000115,,,,305952.1999999997,305952.1000000001,303449.287,303434.6000000001,303465.964,305967.678,,black
Fixation,canvas.Screen,2_32_0_0,2022-07-14T16:07:37.774Z,,,1,AV,1651.0270000000019,timeout,,,307603,307602.028,305951.001,305953.2999999998,305967.678,307618.705,,grey
Stimulus,canvas.Screen,2_32_0_1,2022-07-14T16:07:37.875Z,,,1,AV,100.19899999996414,timeout,,,307704,307702.226,307602.028,307603.2999999998,307618.705,307718.904,,grey
Reaction,canvas.Screen,2_32_0_2,2022-07-14T16:07:38.040Z,,,1,AV,148.6960000001127,response,stim_detected,mousedown,307869.1000000001,307867.6000000001,307702.226,307704.2999999998,307718.904,307885.62,,grey
Trial,flow.Sequence,2_32_0,2022-07-14T16:07:38.040Z,,,1,AV,1899.9220000000787,completion,,,307869.3999999999,307867.6000000001,305951.001,305953.2999999998,305967.678,307885.62,,grey
Frame,canvas.Frame,2_32,2022-07-14T16:07:38.040Z,,,1,AV,1901.8219999999856,,,,307869.6999999997,307869.5,305951.001,305952.3999999999,305967.678,307885.62,,grey
Fixation,canvas.Screen,2_33_0_0,2022-07-14T16:07:40.377Z,,,0,V,2334.4830000000075,timeout,,,310205.7999999998,310203.428,307868.943,307870.6999999997,307885.62,310220.103,,grey
Stimulus,canvas.Screen,2_33_0_1,2022-07-14T16:07:40.476Z,,,0,V,100.50500000000466,timeout,,,310305.3999999999,310303.929,310203.428,310206.1000000001,310220.103,310320.608,,grey
Reaction,canvas.Screen,2_33_0_2,2022-07-14T16:07:40.651Z,,,0,V,158.09199999971315,response,stim_detected,mousedown,310480,310478.6999999997,310303.929,310305.6999999997,310320.608,310487.29,,grey
Trial,flow.Sequence,2_33_0,2022-07-14T16:07:40.651Z,,,0,V,2593.0799999997253,completion,,,310480.3999999999,310478.6999999997,307868.943,307870.6999999997,307885.62,310487.29,,grey
Frame,canvas.Frame,2_33,2022-07-14T16:07:40.651Z,,,0,V,2594.8800000000047,,,,310480.6999999997,310480.5,307868.943,307869.7999999998,307885.62,310487.29,,grey
Fixation,canvas.Screen,2_34_0_0,2022-07-14T16:07:42.896Z,,,0,V,2253.728000000003,timeout,,,312725.1000000001,312724.324,310470.614,310481.8999999999,310487.29,312741.018,,grey
Stimulus,canvas.Screen,2_34_0_1,2022-07-14T16:07:42.994Z,,,0,V,97.22500000003492,timeout,,,312823.2999999998,312821.57,312724.324,312725.3999999999,312741.018,312838.243,,grey
Reaction,canvas.Screen,2_34_0_2,2022-07-14T16:07:43.137Z,,,0,V,126.35700000007637,response,stim_detected,mousedown,312966.1000000001,312964.6000000001,312821.57,312823.5,312838.243,312972.304,,grey
Trial,flow.Sequence,2_34_0,2022-07-14T16:07:43.137Z,,,0,V,2477.310000000114,completion,,,312966.6000000001,312964.6000000001,310470.614,310481.7999999998,310487.29,312972.304,,grey
Frame,canvas.Frame,2_34,2022-07-14T16:07:43.138Z,,,0,V,2479.5099999998347,,,,312967,312966.7999999998,310470.614,310481,310487.29,312972.304,,grey
Fixation,canvas.Screen,2_35_0_0,2022-07-14T16:07:44.678Z,,,0,V,1550.4490000000224,timeout,,,314507.1999999997,314506.081,312955.627,312968.1000000001,312972.304,314522.753,,grey
Stimulus,canvas.Screen,2_35_0_1,2022-07-14T16:07:44.779Z,,,0,V,100.36899999994785,timeout,,,314608.1999999997,314606.447,314506.081,314507.5,314522.753,314623.122,,grey
Reaction,canvas.Screen,2_35_0_2,2022-07-14T16:07:44.983Z,,,0,V,187.57799999974668,response,stim_detected,mousedown,314812.1999999997,314810.6999999997,314606.447,314608.3999999999,314623.122,314823.557,,grey
Trial,flow.Sequence,2_35_0,2022-07-14T16:07:44.983Z,,,0,V,1838.3959999997169,completion,,,314812.6000000001,314810.6999999997,312955.627,312968,312972.304,314823.557,,grey
Frame,canvas.Frame,2_35,2022-07-14T16:07:44.984Z,,,0,V,1840.49599999981,,,,314812.8999999999,314812.7999999998,312955.627,312967.1999999997,312972.304,314823.557,,grey
Fixation,canvas.Screen,2_36_0_0,2022-07-14T16:07:46.730Z,,,1,A,1750.835000000021,timeout,,,316559.3999999999,316557.717,314806.879,314814,314823.557,316574.392,,black
Stimulus,canvas.Screen,2_36_0_1,2022-07-14T16:07:46.830Z,,,1,A,100.28100000001723,timeout,,,316659.2999999998,316657.997,316557.717,316559.7999999998,316574.392,316674.673,,black
Reaction,canvas.Screen,2_36_0_2,2022-07-14T16:07:47.002Z,,,1,A,154.82699999999022,response,stim_detected,mousedown,316831,316829.5,316657.997,316659.6000000001,316674.673,316841.497,,black
Trial,flow.Sequence,2_36_0,2022-07-14T16:07:47.002Z,,,1,A,2005.9430000000284,completion,,,316831.3999999999,316829.5,314806.879,314813.8999999999,314823.557,316841.497,,black
Frame,canvas.Frame,2_36,2022-07-14T16:07:47.003Z,,,1,A,2008.0430000001215,,,,316831.7999999998,316831.6000000001,314806.879,314813.1000000001,314823.557,316841.497,,black
Fixation,canvas.Screen,2_37_0_0,2022-07-14T16:07:49.467Z,,,0,V,2470.2630000000354,timeout,,,319296.5,319295.069,316824.82,316833,316841.497,319311.76,,grey
Stimulus,canvas.Screen,2_37_0_1,2022-07-14T16:07:49.565Z,,,0,V,98.03999999997905,timeout,,,319394.7999999998,319393.124,319295.069,319296.7999999998,319311.76,319409.8,,grey
Reaction,canvas.Screen,2_37_0_2,2022-07-14T16:07:49.750Z,,,0,V,167.70000000001164,response,stim_detected,mousedown,319579,319577.5,319393.124,319395.1000000001,319409.8,319593.339,,grey
Trial,flow.Sequence,2_37_0,2022-07-14T16:07:49.750Z,,,0,V,2736.003000000026,completion,,,319579.3999999999,319577.5,316824.82,316832.8999999999,316841.497,319593.339,,grey
Frame,canvas.Frame,2_37,2022-07-14T16:07:49.750Z,,,0,V,2738.003000000026,,,,319579.6999999997,319579.5,316824.82,316832.1000000001,316841.497,319593.339,,grey
Fixation,canvas.Screen,2_38_0_0,2022-07-14T16:07:51.701Z,,,0,V,1952.5280000000494,timeout,,,321530.3999999999,321529.179,319576.662,319580.7999999998,319593.339,321545.867,,grey
Stimulus,canvas.Screen,2_38_0_1,2022-07-14T16:07:51.799Z,,,0,V,98.82499999995343,timeout,,,321628.3999999999,321627.636,321529.179,321530.6999999997,321545.867,321644.692,,grey
Reaction,canvas.Screen,2_38_0_2,2022-07-14T16:07:51.943Z,,,0,V,125.70799999992596,response,stim_detected,mousedown,321771.8999999999,321770.3999999999,321627.636,321628.6999999997,321644.692,321778.108,,grey
Trial,flow.Sequence,2_38_0,2022-07-14T16:07:51.943Z,,,0,V,2177.0609999999288,completion,,,321772.1999999997,321770.3999999999,319576.662,319580.6999999997,319593.339,321778.108,,grey
Frame,canvas.Frame,2_38,2022-07-14T16:07:51.943Z,,,0,V,2179.0609999999288,,,,321772.5,321772.3999999999,319576.662,319579.7999999998,319593.339,321778.108,,grey
Fixation,canvas.Screen,2_39_0_0,2022-07-14T16:07:54.152Z,,,1,AV,2218.7550000000047,timeout,,,323981.6999999997,323980.181,321761.431,321773.6000000001,321778.108,323996.863,,grey
Stimulus,canvas.Screen,2_39_0_1,2022-07-14T16:07:54.251Z,,,1,AV,99.30300000001444,timeout,,,324080.5,324079.49,323980.181,323981.8999999999,323996.863,324096.166,,grey
Reaction,canvas.Screen,2_39_0_2,2022-07-14T16:07:54.402Z,,,1,AV,133.23399999988033,response,stim_detected,mousedown,324230.7999999998,324229.3999999999,324079.49,324080.7999999998,324096.166,324246.428,,grey
Trial,flow.Sequence,2_39_0,2022-07-14T16:07:54.402Z,,,1,AV,2451.2919999998994,completion,,,324231.1999999997,324229.3999999999,321761.431,321773.5,321778.108,324246.428,,grey
Frame,canvas.Frame,2_39,2022-07-14T16:07:54.402Z,,,1,AV,2453.1919999998063,,,,324231.5,324231.2999999998,321761.431,321772.6999999997,321778.108,324246.428,,grey
Fixation,canvas.Screen,2_40_0_0,2022-07-14T16:07:56.870Z,,,1,A,2468.048999999999,timeout,,,326698.8999999999,326697.801,324229.751,324232.6000000001,324246.428,326714.477,,black
Stimulus,canvas.Screen,2_40_0_1,2022-07-14T16:07:56.970Z,,,1,A,100.19899999996414,timeout,,,326799.6999999997,326798,326697.801,326699.1000000001,326714.477,326814.676,,black
Reaction,canvas.Screen,2_40_0_2,2022-07-14T16:07:57.105Z,,,1,A,117.62399999983609,response,stim_detected,mousedown,326933.8999999999,326932.2999999998,326798,326799.8999999999,326814.676,326948.204,,black
Trial,flow.Sequence,2_40_0,2022-07-14T16:07:57.105Z,,,1,A,2685.8719999997993,completion,,,326934.3999999999,326932.2999999998,324229.751,324232.3999999999,324246.428,326948.204,,black
Frame,canvas.Frame,2_40,2022-07-14T16:07:57.106Z,,,1,A,2688.0719999999856,,,,326934.7999999998,326934.5,324229.751,324231.6999999997,324246.428,326948.204,,black
Fixation,canvas.Screen,2_41_0_0,2022-07-14T16:07:58.839Z,,,1,A,1735.0439999999944,timeout,,,328667.7999999998,328666.565,326931.527,326935.8999999999,326948.204,328683.248,,black
Stimulus,canvas.Screen,2_41_0_1,2022-07-14T16:07:58.938Z,,,1,A,99.0909999999567,timeout,,,328766.7999999998,328765.666,328666.565,328668.1000000001,328683.248,328782.339,,black
Reaction,canvas.Screen,2_41_0_2,2022-07-14T16:07:59.105Z,,,1,A,149.8609999997425,response,stim_detected,mousedown,328933.7999999998,328932.1999999997,328765.666,328767.1999999997,328782.339,328949.522,,black
Trial,flow.Sequence,2_41_0,2022-07-14T16:07:59.105Z,,,1,A,1983.9959999996936,completion,,,328934.2999999998,328932.1999999997,326931.527,326935.6999999997,326948.204,328949.522,,black
Frame,canvas.Frame,2_41,2022-07-14T16:07:59.105Z,,,1,A,1986.0959999997867,,,,328934.5,328934.2999999998,326931.527,326935,326948.204,328949.522,,black
Fixation,canvas.Screen,2_42_0_0,2022-07-14T16:08:01.240Z,,,0,V,2135.0869999999995,timeout,,,331068.8999999999,331067.929,328932.845,328935.6000000001,328949.522,331084.609,,grey
Stimulus,canvas.Screen,2_42_0_1,2022-07-14T16:08:01.340Z,,,0,V,99.6940000000177,timeout,,,331168.7999999998,331167.626,331067.929,331069.1000000001,331084.609,331184.303,,grey
Reaction,canvas.Screen,2_42_0_2,2022-07-14T16:08:01.535Z,,,0,V,178.89699999970617,response,stim_detected,mousedown,331364.6999999997,331363.1999999997,331167.626,331169.1000000001,331184.303,331367.774,,grey
Trial,flow.Sequence,2_42_0,2022-07-14T16:08:01.536Z,,,0,V,2413.6779999997234,completion,,,331365.1000000001,331363.1999999997,328932.845,328935.5,328949.522,331367.774,,grey
Frame,canvas.Frame,2_42,2022-07-14T16:08:01.536Z,,,0,V,2415.6779999997234,,,,331365.3999999999,331365.1999999997,328932.845,328934.6999999997,328949.522,331367.774,,grey
Fixation,canvas.Screen,2_43_0_0,2022-07-14T16:08:03.276Z,,,1,AV,1752.375,timeout,,,333105,333103.46,331351.097,331366.3999999999,331367.774,333120.149,,grey
Stimulus,canvas.Screen,2_43_0_1,2022-07-14T16:08:03.374Z,,,1,AV,98.60800000000745,timeout,,,333202.8999999999,333202.082,333103.46,333105.1999999997,333120.149,333218.757,,grey
Reaction,canvas.Screen,2_43_0_2,2022-07-14T16:08:03.530Z,,,1,AV,139.44299999973737,response,stim_detected,mousedown,333359.6000000001,333358.1999999997,333202.082,333203.1999999997,333218.757,333369.13,,grey
Trial,flow.Sequence,2_43_0,2022-07-14T16:08:03.531Z,,,1,AV,1990.4259999997448,completion,,,333360,333358.1999999997,331351.097,331366.3999999999,331367.774,333369.13,,grey
Frame,canvas.Frame,2_43,2022-07-14T16:08:03.531Z,,,1,AV,1992.3260000001173,,,,333360.3999999999,333360.1000000001,331351.097,331365.6000000001,331367.774,333369.13,,grey
Fixation,canvas.Screen,2_44_0_0,2022-07-14T16:08:05.126Z,,,0,V,1600.7829999999958,timeout,,,334955.2999999998,334953.238,333352.453,333361.3999999999,333369.13,334969.913,,grey
Stimulus,canvas.Screen,2_44_0_1,2022-07-14T16:08:05.226Z,,,0,V,100.25799999997253,timeout,,,335055.2999999998,335053.495,334953.238,334955.5,334969.913,335070.171,,grey
Reaction,canvas.Screen,2_44_0_2,2022-07-14T16:08:05.465Z,,,0,V,223.0289999997476,response,stim_detected,mousedown,335294.6000000001,335293.1999999997,335053.495,335055.5,335070.171,335303.733,,grey
Trial,flow.Sequence,2_44_0,2022-07-14T16:08:05.466Z,,,0,V,1924.069999999716,completion,,,335295,335293.1999999997,333352.453,333361.2999999998,333369.13,335303.733,,grey
Frame,canvas.Frame,2_44,2022-07-14T16:08:05.466Z,,,0,V,1926.069999999716,,,,335295.3999999999,335295.1999999997,333352.453,333360.5,333369.13,335303.733,,grey
Fixation,canvas.Screen,2_45_0_0,2022-07-14T16:08:07.661Z,,,1,A,2201.662000000011,timeout,,,337490.1999999997,337488.716,335287.056,335296.3999999999,335303.733,337505.395,,black
Stimulus,canvas.Screen,2_45_0_1,2022-07-14T16:08:07.761Z,,,1,A,99.84799999999814,timeout,,,337590.1999999997,337588.356,337488.716,337490.6000000001,337505.395,337605.243,,black
Reaction,canvas.Screen,2_45_0_2,2022-07-14T16:08:09.262Z,,,1,A,1500.929999999993,timeout,,,339091.1000000001,339089.496,337588.356,337590.3999999999,337605.243,339106.173,,black
Trial,flow.Sequence,2_45_0,2022-07-14T16:08:09.262Z,,,1,A,3785.762999999977,completion,,,339091.6000000001,339089.496,335287.056,335296.2999999998,335303.733,339106.173,,black
Frame,canvas.Frame,2_45,2022-07-14T16:08:09.263Z,,,1,A,3787.966999999713,,,,339091.8999999999,339091.6999999997,335287.056,335295.6000000001,335303.733,339122.85,,black
Fixation,canvas.Screen,2_46_0_0,2022-07-14T16:08:11.229Z,,,0,V,1951.4170000000158,timeout,,,341058.5,341057.449,339106.173,339092.8999999999,339122.85,341074.267,,grey
Stimulus,canvas.Screen,2_46_0_1,2022-07-14T16:08:11.330Z,,,0,V,100.11599999997998,timeout,,,341159.1000000001,341157.697,341057.449,341058.6999999997,341074.267,341174.383,,grey
Reaction,canvas.Screen,2_46_0_2,2022-07-14T16:08:11.473Z,,,0,V,126.61700000002747,response,stim_detected,mousedown,341302.6000000001,341301,341157.697,341159.3999999999,341174.383,341307.69,,grey
Trial,flow.Sequence,2_46_0,2022-07-14T16:08:11.474Z,,,0,V,2178.1500000000233,completion,,,341303,341301,339106.173,339092.7999999998,339122.85,341307.69,,grey
Frame,canvas.Frame,2_46,2022-07-14T16:08:11.474Z,,,0,V,2180.1500000000233,,,,341303.1999999997,341303,339106.173,339092,339122.85,341307.69,,grey
Fixation,canvas.Screen,2_47_0_0,2022-07-14T16:08:13.898Z,,,0,V,2435.0109999999986,timeout,,,343727.2999999998,343726.023,341291.013,341304.1999999997,341307.69,343742.701,,grey
Stimulus,canvas.Screen,2_47_0_1,2022-07-14T16:08:13.998Z,,,0,V,99.82400000002235,timeout,,,343827.3999999999,343825.849,343726.023,343727.6000000001,343742.701,343842.525,,grey
Reaction,canvas.Screen,2_47_0_2,2022-07-14T16:08:14.173Z,,,0,V,158.47499999997672,response,stim_detected,mousedown,344002.3999999999,344001,343825.849,343827.6999999997,343842.525,344009.437,,grey
Trial,flow.Sequence,2_47_0,2022-07-14T16:08:14.174Z,,,0,V,2693.3099999999977,completion,,,344002.7999999998,344001,341291.013,341304.1999999997,341307.69,344009.437,,grey
Frame,canvas.Frame,2_47,2022-07-14T16:08:14.174Z,,,0,V,2695.2099999999045,,,,344003.1000000001,344002.8999999999,341291.013,341303.3999999999,341307.69,344009.437,,grey
Fixation,canvas.Screen,2_48_0_0,2022-07-14T16:08:16.034Z,,,1,A,1869.088000000047,timeout,,,345863.3999999999,345861.837,343992.76,344004.1000000001,344009.437,345878.525,,black
Stimulus,canvas.Screen,2_48_0_1,2022-07-14T16:08:16.132Z,,,1,A,98.39899999997579,timeout,,,345961.3999999999,345960.251,345861.837,345863.6999999997,345878.525,345976.924,,black
Reaction,canvas.Screen,2_48_0_2,2022-07-14T16:08:16.336Z,,,1,A,187.07600000000093,response,stim_detected,mousedown,346165.3999999999,346164,345960.251,345961.6999999997,345976.924,346177.55,,black
Trial,flow.Sequence,2_48_0,2022-07-14T16:08:16.337Z,,,1,A,2154.5630000000237,completion,,,346165.7999999998,346164,343992.76,344004,344009.437,346177.55,,black
Frame,canvas.Frame,2_48,2022-07-14T16:08:16.337Z,,,1,A,2156.4629999999306,,,,346166.1000000001,346165.8999999999,343992.76,344003.1999999997,344009.437,346177.55,,black
Fixation,canvas.Screen,2_49_0_0,2022-07-14T16:08:18.753Z,,,0,V,2418.1689999999944,timeout,,,348580.6000000001,348579.042,346160.873,346167.1000000001,346177.55,348595.719,,grey
Stimulus,canvas.Screen,2_49_0_1,2022-07-14T16:08:18.853Z,,,0,V,100.22899999999208,timeout,,,348680.6999999997,348679.268,348579.042,348580.7999999998,348595.719,348695.948,,grey
Reaction,canvas.Screen,2_49_0_2,2022-07-14T16:08:19.046Z,,,0,V,176.951999999932,response,stim_detected,mousedown,348874.2999999998,348872.8999999999,348679.268,348681,348695.948,348896.03,,grey
Trial,flow.Sequence,2_49_0,2022-07-14T16:08:19.047Z,,,0,V,2695.3499999999185,completion,,,348874.7999999998,348872.8999999999,346160.873,346167,346177.55,348896.03,,grey
Frame,canvas.Frame,2_49,2022-07-14T16:08:19.047Z,,,0,V,2697.3499999999185,,,,348875.1999999997,348874.8999999999,346160.873,346166.1999999997,346177.55,348896.03,,grey
Fixation,canvas.Screen,2_50_0_0,2022-07-14T16:08:20.587Z,,,1,AV,1534.7309999999707,timeout,,,350415.6000000001,350414.079,348862.676,348876.3999999999,348896.03,350430.761,,grey
Stimulus,canvas.Screen,2_50_0_1,2022-07-14T16:08:20.687Z,,,1,AV,99.21399999997811,timeout,,,350514.8999999999,350513.302,350414.079,350416,350430.761,350529.975,,grey
Reaction,canvas.Screen,2_50_0_2,2022-07-14T16:08:21.021Z,,,1,AV,317.824999999837,response,stim_detected,mousedown,350849.6000000001,350847.7999999998,350513.302,350515.1000000001,350529.975,350864,,grey
Trial,flow.Sequence,2_50_0,2022-07-14T16:08:21.022Z,,,1,AV,1951.7699999997858,completion,,,350849.8999999999,350847.7999999998,348862.676,348876.1999999997,348896.03,350864,,grey
Frame,canvas.Frame,2_50,2022-07-14T16:08:21.022Z,,,1,AV,1953.969999999972,,,,350850.1999999997,350850,348862.676,348875.3999999999,348896.03,350864,,grey
Fixation,canvas.Screen,2_51_0_0,2022-07-14T16:08:23.155Z,,,1,AV,2133.917000000016,timeout,,,352983.1000000001,352981.245,350847.323,350851.5,350864,352997.917,,grey
Stimulus,canvas.Screen,2_51_0_1,2022-07-14T16:08:23.256Z,,,1,AV,100.70899999997346,timeout,,,353083.7999999998,353081.95,352981.245,352983.3999999999,352997.917,353098.626,,grey
Reaction,canvas.Screen,2_51_0_2,2022-07-14T16:08:23.396Z,,,1,AV,124.17399999982445,response,stim_detected,mousedown,353224.1999999997,353222.7999999998,353081.95,353084,353098.626,353232.226,,grey
Trial,flow.Sequence,2_51_0,2022-07-14T16:08:23.397Z,,,1,AV,2358.7999999998137,completion,,,353224.6000000001,353222.7999999998,350847.323,350851.3999999999,350864,353232.226,,grey
Frame,canvas.Frame,2_51,2022-07-14T16:08:23.397Z,,,1,AV,2360.6999999997206,,,,353224.8999999999,353224.6999999997,350847.323,350850.3999999999,350864,353232.226,,grey
Fixation,canvas.Screen,2_52_0_0,2022-07-14T16:08:25.808Z,,,1,AV,2418.7709999999497,timeout,,,355635.8999999999,355634.316,353215.549,353226,353232.226,355650.997,,grey
Stimulus,canvas.Screen,2_52_0_1,2022-07-14T16:08:25.907Z,,,1,AV,99.58100000000559,timeout,,,355735,355733.901,355634.316,355636.3999999999,355650.997,355750.578,,grey
Reaction,canvas.Screen,2_52_0_2,2022-07-14T16:08:26.035Z,,,1,AV,111.22199999983422,response,stim_detected,mousedown,355863.2999999998,355861.7999999998,355733.901,355735.1999999997,355750.578,355867.304,,grey
Trial,flow.Sequence,2_52_0,2022-07-14T16:08:26.035Z,,,1,AV,2629.5739999997895,completion,,,355863.6000000001,355861.7999999998,353215.549,353225.8999999999,353232.226,355867.304,,grey
Frame,canvas.Frame,2_52,2022-07-14T16:08:26.036Z,,,1,AV,2631.4739999996964,,,,355863.8999999999,355863.6999999997,353215.549,353225.1000000001,353232.226,355867.304,,grey
Fixation,canvas.Screen,2_53_0_0,2022-07-14T16:08:28.459Z,,,0,V,2434.9899999999907,timeout,,,358287,358285.616,355850.627,355864.8999999999,355867.304,358302.294,,grey
Stimulus,canvas.Screen,2_53_0_1,2022-07-14T16:08:28.558Z,,,0,V,99.16700000001583,timeout,,,358385.8999999999,358384.789,358285.616,358287.3999999999,358302.294,358401.461,,grey
Reaction,canvas.Screen,2_53_0_2,2022-07-14T16:08:28.702Z,,,0,V,127.23899999971036,response,stim_detected,mousedown,358530.1999999997,358528.6999999997,358384.789,358386.1999999997,358401.461,358535.699,,grey
Trial,flow.Sequence,2_53_0,2022-07-14T16:08:28.702Z,,,0,V,2661.395999999717,completion,,,358530.5,358528.6999999997,355850.627,355864.7999999998,355867.304,358535.699,,grey
Frame,canvas.Frame,2_53,2022-07-14T16:08:28.703Z,,,0,V,2663.2960000000894,,,,358530.7999999998,358530.6000000001,355850.627,355864.1000000001,355867.304,358535.699,,grey
Fixation,canvas.Screen,2_54_0_0,2022-07-14T16:08:30.928Z,,,1,A,2235.2919999999576,timeout,,,360756,360754.31,358519.022,358531.7999999998,358535.699,360770.991,,black
Stimulus,canvas.Screen,2_54_0_1,2022-07-14T16:08:31.027Z,,,1,A,99.17999999999302,timeout,,,360855.1000000001,360853.497,360754.31,360756.1999999997,360770.991,360870.171,,black
Reaction,canvas.Screen,2_54_0_2,2022-07-14T16:08:31.196Z,,,1,A,152.42900000012014,response,stim_detected,mousedown,361024.3999999999,361022.6000000001,360853.497,360855.3999999999,360870.171,361037.329,,black
Trial,flow.Sequence,2_54_0,2022-07-14T16:08:31.197Z,,,1,A,2486.901000000071,completion,,,361024.7999999998,361022.6000000001,358519.022,358531.7999999998,358535.699,361037.329,,black
Frame,canvas.Frame,2_54,2022-07-14T16:08:31.197Z,,,1,A,2489.3009999999776,,,,361025.1999999997,361025,358519.022,358531,358535.699,361037.329,,black
Fixation,canvas.Screen,2_55_0_0,2022-07-14T16:08:32.880Z,,,1,AV,1686.0209999999497,timeout,,,362708.1999999997,362706.657,361020.652,361026.2999999998,361037.329,362723.35,,grey
Stimulus,canvas.Screen,2_55_0_1,2022-07-14T16:08:32.978Z,,,1,AV,98.01800000004005,timeout,,,362806.1000000001,362804.695,362706.657,362708.5,362723.35,362821.368,,grey
Reaction,canvas.Screen,2_55_0_2,2022-07-14T16:08:33.119Z,,,1,AV,124.23200000007637,response,stim_detected,mousedown,362947.1000000001,362945.6000000001,362804.695,362806.3999999999,362821.368,362955.328,,grey
Trial,flow.Sequence,2_55_0,2022-07-14T16:08:33.120Z,,,1,AV,1908.2710000000661,completion,,,362947.6999999997,362945.6000000001,361020.652,361026.1999999997,361037.329,362955.328,,grey
Frame,canvas.Frame,2_55,2022-07-14T16:08:33.120Z,,,1,AV,1910.4709999997867,,,,362948,362947.7999999998,361020.652,361025.5,361037.329,362955.328,,grey
Fixation,canvas.Screen,2_56_0_0,2022-07-14T16:08:34.912Z,,,1,AV,1800.6359999999986,timeout,,,364740.1999999997,364739.291,362938.65,362949.1000000001,362955.328,364755.964,,grey
Stimulus,canvas.Screen,2_56_0_1,2022-07-14T16:08:35.013Z,,,1,AV,100.30600000004051,timeout,,,364841.1000000001,364839.595,364739.291,364740.5,364755.964,364856.27,,grey
Reaction,canvas.Screen,2_56_0_2,2022-07-14T16:08:35.157Z,,,1,AV,127.3300000000745,response,stim_detected,mousedown,364985.1999999997,364983.6000000001,364839.595,364841.3999999999,364856.27,364989.961,,grey
Trial,flow.Sequence,2_56_0,2022-07-14T16:08:35.158Z,,,1,AV,2028.2720000001136,completion,,,364985.6999999997,364983.6000000001,362938.65,362949,362955.328,364989.961,,grey
Frame,canvas.Frame,2_56,2022-07-14T16:08:35.158Z,,,1,AV,2030.371999999741,,,,364985.8999999999,364985.6999999997,362938.65,362948.1000000001,362955.328,364989.961,,grey
Fixation,canvas.Screen,2_57_0_0,2022-07-14T16:08:37.116Z,,,1,A,1969.3099999999977,timeout,,,366944.2999999998,366942.582,364973.284,364987,364989.961,366959.271,,black
Stimulus,canvas.Screen,2_57_0_1,2022-07-14T16:08:37.214Z,,,1,A,98.00699999998324,timeout,,,367042.2999999998,367040.607,366942.582,366944.5,366959.271,367057.278,,black
Reaction,canvas.Screen,2_57_0_2,2022-07-14T16:08:37.344Z,,,1,A,113.32200000010198,response,stim_detected,mousedown,367172.1000000001,367170.6000000001,367040.607,367042.6000000001,367057.278,367174.768,,black
Trial,flow.Sequence,2_57_0,2022-07-14T16:08:37.344Z,,,1,A,2180.639000000083,completion,,,367172.3999999999,367170.6000000001,364973.284,364986.8999999999,364989.961,367174.768,,black
Frame,canvas.Frame,2_57,2022-07-14T16:08:37.345Z,,,1,A,2182.639000000083,,,,367172.7999999998,367172.6000000001,364973.284,364986.1000000001,364989.961,367174.768,,black
Fixation,canvas.Screen,2_58_0_0,2022-07-14T16:08:39.082Z,,,1,AV,1750.6359999999986,timeout,,,368910.2999999998,368908.731,367158.091,367173.7999999998,367174.768,368925.404,,grey
Stimulus,canvas.Screen,2_58_0_1,2022-07-14T16:08:39.182Z,,,1,AV,100.63900000002468,timeout,,,369010.2999999998,369009.365,368908.731,368910.6000000001,368925.404,369026.043,,grey
Reaction,canvas.Screen,2_58_0_2,2022-07-14T16:08:39.306Z,,,1,AV,106.55700000008801,response,stim_detected,mousedown,369134.1999999997,369132.6000000001,369009.365,369010.5,369026.043,369142.704,,grey
Trial,flow.Sequence,2_58_0,2022-07-14T16:08:39.307Z,,,1,AV,1957.8320000001113,completion,,,369134.6999999997,369132.6000000001,367158.091,367173.6999999997,367174.768,369142.704,,grey
Frame,canvas.Frame,2_58,2022-07-14T16:08:39.307Z,,,1,AV,1960.031999999832,,,,369135.1000000001,369134.7999999998,367158.091,367172.8999999999,367174.768,369142.704,,grey
Fixation,canvas.Screen,2_59_0_0,2022-07-14T16:08:41.150Z,,,1,AV,1851.5189999999711,timeout,,,370978.5,370977.543,369126.027,369136.1999999997,369142.704,370994.223,,grey
Stimulus,canvas.Screen,2_59_0_1,2022-07-14T16:08:41.250Z,,,1,AV,99.85499999998137,timeout,,,371078.3999999999,371077.4,370977.543,370978.6000000001,370994.223,371094.078,,grey
Reaction,canvas.Screen,2_59_0_2,2022-07-14T16:08:41.385Z,,,1,AV,117.42200000002049,response,stim_detected,mousedown,371213,371211.5,371077.4,371078.6999999997,371094.078,371227.456,,grey
Trial,flow.Sequence,2_59_0,2022-07-14T16:08:41.385Z,,,1,AV,2068.795999999973,completion,,,371213.2999999998,371211.5,369126.027,369136.1999999997,369142.704,371227.456,,grey
Frame,canvas.Frame,2_59,2022-07-14T16:08:41.386Z,,,1,AV,2070.795999999973,,,,371213.6000000001,371213.5,369126.027,369135.2999999998,369142.704,371227.456,,grey
Fixation,canvas.Screen,2_60_0_0,2022-07-14T16:08:43.451Z,,,1,A,2067.1419999999925,timeout,,,373279.6000000001,373277.927,371210.779,371214.6999999997,371227.456,373294.598,,black
Stimulus,canvas.Screen,2_60_0_1,2022-07-14T16:08:43.552Z,,,1,A,101.10800000000745,timeout,,,373380.5,373379.027,373277.927,373280,373294.598,373395.706,,black
Reaction,canvas.Screen,2_60_0_2,2022-07-14T16:08:43.675Z,,,1,A,105.69399999990128,response,stim_detected,mousedown,373503.1999999997,373501.3999999999,373379.027,373380.7999999998,373395.706,373512.293,,black
Trial,flow.Sequence,2_60_0,2022-07-14T16:08:43.676Z,,,1,A,2273.9439999999013,completion,,,373503.6999999997,373501.3999999999,371210.779,371214.6000000001,371227.456,373512.293,,black
Frame,canvas.Frame,2_60,2022-07-14T16:08:43.676Z,,,1,A,2276.343999999808,,,,373504,373503.7999999998,371210.779,371213.7999999998,371227.456,373512.293,,black
Fixation,canvas.Screen,2_61_0_0,2022-07-14T16:08:46.171Z,,,1,AV,2501.8759999999893,timeout,,,375998.6999999997,375997.49,373495.616,373505.1000000001,373512.293,376014.169,,grey
Stimulus,canvas.Screen,2_61_0_1,2022-07-14T16:08:46.271Z,,,1,AV,99.59799999999814,timeout,,,376098.6999999997,376097.091,375997.49,375999,376014.169,376113.767,,grey
Reaction,canvas.Screen,2_61_0_2,2022-07-14T16:08:46.387Z,,,1,AV,99.63299999991432,response,stim_detected,mousedown,376214.8999999999,376213.3999999999,376097.091,376099,376113.767,376230.733,,grey
Trial,flow.Sequence,2_61_0,2022-07-14T16:08:46.387Z,,,1,AV,2701.1069999999017,completion,,,376215.2999999998,376213.3999999999,373495.616,373505,373512.293,376230.733,,grey
Frame,canvas.Frame,2_61,2022-07-14T16:08:46.387Z,,,1,AV,2703.1069999999017,,,,376215.6000000001,376215.3999999999,373495.616,373504.1999999997,373512.293,376230.733,,grey
Fixation,canvas.Screen,2_62_0_0,2022-07-14T16:08:47.989Z,,,1,A,1601.801999999967,timeout,,,377816.6999999997,377815.85,376214.056,376216.8999999999,376230.733,377832.535,,black
Stimulus,canvas.Screen,2_62_0_1,2022-07-14T16:08:48.089Z,,,1,A,99.28100000001723,timeout,,,377916.6999999997,377915.14,377815.85,377817,377832.535,377931.816,,black
Reaction,canvas.Screen,2_62_0_2,2022-07-14T16:08:48.281Z,,,1,A,175.58399999991525,response,stim_detected,mousedown,378108.7999999998,378107.3999999999,377915.14,377917,377931.816,378115.338,,black
Trial,flow.Sequence,2_62_0,2022-07-14T16:08:48.281Z,,,1,A,1876.6669999998994,completion,,,378109.1999999997,378107.3999999999,376214.056,376216.8999999999,376230.733,378115.338,,black
Frame,canvas.Frame,2_62,2022-07-14T16:08:48.281Z,,,1,A,1878.5669999998063,,,,378109.3999999999,378109.2999999998,376214.056,376215.6999999997,376230.733,378115.338,,black
Fixation,canvas.Screen,2_63_0_0,2022-07-14T16:08:50.641Z,,,1,AV,2368.7399999999907,timeout,,,380468.8999999999,380467.397,378098.661,378110.6000000001,378115.338,380484.078,,grey
Stimulus,canvas.Screen,2_63_0_1,2022-07-14T16:08:50.740Z,,,1,AV,99.2609999999986,timeout,,,380568,380566.664,380467.397,380469.1000000001,380484.078,380583.339,,grey
Reaction,canvas.Screen,2_63_0_2,2022-07-14T16:08:50.894Z,,,1,AV,137.3609999997425,response,stim_detected,mousedown,380722.2999999998,380720.6999999997,380566.664,380568.1999999997,380583.339,380733.708,,grey
Trial,flow.Sequence,2_63_0,2022-07-14T16:08:50.895Z,,,1,AV,2605.361999999732,completion,,,380722.6999999997,380720.6999999997,378098.661,378110.5,378115.338,380733.708,,grey
Frame,canvas.Frame,2_63,2022-07-14T16:08:50.895Z,,,1,AV,2607.461999999825,,,,380723,380722.7999999998,378098.661,378109.6999999997,378115.338,380733.708,,grey
Fixation,canvas.Screen,2_64_0_0,2022-07-14T16:08:52.908Z,,,0,V,2017.9270000000251,timeout,,,382735.7999999998,382734.958,380717.031,380724.1000000001,380733.708,382751.635,,grey
Stimulus,canvas.Screen,2_64_0_1,2022-07-14T16:08:53.009Z,,,0,V,100.27799999999115,timeout,,,382836.7999999998,382835.235,382734.958,382736.1000000001,382751.635,382851.913,,grey
Reaction,canvas.Screen,2_64_0_2,2022-07-14T16:08:53.168Z,,,0,V,142.38699999981327,response,stim_detected,mousedown,382995.6999999997,382994.2999999998,382835.235,382837.1999999997,382851.913,383018.582,,grey
Trial,flow.Sequence,2_64_0,2022-07-14T16:08:53.168Z,,,0,V,2260.5919999998296,completion,,,382996,382994.2999999998,380717.031,380724,380733.708,383018.582,,grey
Frame,canvas.Frame,2_64,2022-07-14T16:08:53.168Z,,,0,V,2262.4919999997364,,,,382996.3999999999,382996.1999999997,380717.031,380723.1999999997,380733.708,383018.582,,grey
Fixation,canvas.Screen,2_65_0_0,2022-07-14T16:08:55.093Z,,,1,AV,1917.7399999999907,timeout,,,384920.8999999999,384919.646,382985.228,382997.5,383018.582,384936.322,,grey
Stimulus,canvas.Screen,2_65_0_1,2022-07-14T16:08:55.193Z,,,1,AV,100.00200000003679,timeout,,,385020.8999999999,385019.649,384919.646,384921.2999999998,384936.322,385036.324,,grey
Reaction,canvas.Screen,2_65_0_2,2022-07-14T16:08:55.331Z,,,1,AV,120.97599999979138,response,stim_detected,mousedown,385158.6999999997,385157.2999999998,385019.649,385021.1999999997,385036.324,385169.983,,grey
Trial,flow.Sequence,2_65_0,2022-07-14T16:08:55.331Z,,,1,AV,2138.717999999819,completion,,,385159.1999999997,385157.2999999998,382985.228,382997.3999999999,383018.582,385169.983,,grey
Frame,canvas.Frame,2_65,2022-07-14T16:08:55.331Z,,,1,AV,2140.717999999819,,,,385159.5,385159.2999999998,382985.228,382996.5,383018.582,385169.983,,grey
Fixation,canvas.Screen,2_66_0_0,2022-07-14T16:08:56.844Z,,,1,A,1517.8090000000084,timeout,,,386671.8999999999,386671.113,385153.306,385160.5,385169.983,386687.792,,black
Stimulus,canvas.Screen,2_66_0_1,2022-07-14T16:08:56.944Z,,,1,A,99.90999999997439,timeout,,,386772,386771.025,386671.113,386672.2999999998,386687.792,386787.702,,black
Reaction,canvas.Screen,2_66_0_2,2022-07-14T16:08:57.078Z,,,1,A,116.59799999982351,response,stim_detected,mousedown,386905.6999999997,386904.2999999998,386771.025,386772.1999999997,386787.702,386921.146,,black
Trial,flow.Sequence,2_66_0,2022-07-14T16:08:57.078Z,,,1,A,1734.3169999998063,completion,,,386906,386904.2999999998,385153.306,385160.3999999999,385169.983,386921.146,,black
Frame,canvas.Frame,2_66,2022-07-14T16:08:57.078Z,,,1,A,1736.1170000000857,,,,386906.2999999998,386906.1000000001,385153.306,385159.6000000001,385169.983,386921.146,,black
Fixation,canvas.Screen,2_67_0_0,2022-07-14T16:08:59.562Z,,,1,AV,2484.396999999997,timeout,,,389390.3999999999,389388.869,386904.469,386907.3999999999,386921.146,389405.543,,grey
Stimulus,canvas.Screen,2_67_0_1,2022-07-14T16:08:59.663Z,,,1,AV,100.8059999999823,timeout,,,389491.1999999997,389489.67,389388.869,389390.6000000001,389405.543,389506.349,,grey
Reaction,canvas.Screen,2_67_0_2,2022-07-14T16:08:59.784Z,,,1,AV,103.95099999982631,response,stim_detected,mousedown,389611.7999999998,389610.2999999998,389489.67,389491.3999999999,389506.349,389622.941,,grey
Trial,flow.Sequence,2_67_0,2022-07-14T16:08:59.784Z,,,1,AV,2689.153999999806,completion,,,389612.1999999997,389610.2999999998,386904.469,386907.2999999998,386921.146,389622.941,,grey
Frame,canvas.Frame,2_67,2022-07-14T16:08:59.784Z,,,1,AV,2691.153999999806,,,,389612.5,389612.2999999998,386904.469,386906.5,386921.146,389622.941,,grey
Fixation,canvas.Screen,2_68_0_0,2022-07-14T16:09:01.513Z,,,1,A,1733.5040000000154,timeout,,,391341.1999999997,391339.776,389606.264,389613.6999999997,389622.941,391356.445,,black
Stimulus,canvas.Screen,2_68_0_1,2022-07-14T16:09:01.614Z,,,1,A,100.93300000001909,timeout,,,391442.2999999998,391440.702,391339.776,391341.3999999999,391356.445,391457.378,,black
Reaction,canvas.Screen,2_68_0_2,2022-07-14T16:09:01.757Z,,,1,A,126.82199999969453,response,stim_detected,mousedown,391585.5,391584.1999999997,391440.702,391442.5,391457.378,391590.883,,black
Trial,flow.Sequence,2_68_0,2022-07-14T16:09:01.758Z,,,1,A,1961.258999999729,completion,,,391586,391584.1999999997,389606.264,389613.6000000001,389622.941,391590.883,,black
Frame,canvas.Frame,2_68,2022-07-14T16:09:01.758Z,,,1,A,1963.1590000001015,,,,391586.2999999998,391586.1000000001,389606.264,389612.6999999997,389622.941,391590.883,,black
Fixation,canvas.Screen,2_69_0_0,2022-07-14T16:09:03.983Z,,,1,A,2235.4430000000284,timeout,,,393811.3999999999,393809.644,391574.206,391587.2999999998,391590.883,393826.326,,black
Stimulus,canvas.Screen,2_69_0_1,2022-07-14T16:09:04.082Z,,,1,A,99.48300000000745,timeout,,,393910.2999999998,393909.131,393809.644,393811.6999999997,393826.326,393925.809,,black
Reaction,canvas.Screen,2_69_0_2,2022-07-14T16:09:04.217Z,,,1,A,118.29100000008475,response,stim_detected,mousedown,394045.5,394044.1000000001,393909.131,393910.6999999997,393925.809,394059.182,,black
Trial,flow.Sequence,2_69_0,2022-07-14T16:09:04.218Z,,,1,A,2453.2170000001206,completion,,,394045.7999999998,394044.1000000001,391574.206,391587.1999999997,391590.883,394059.182,,black
Frame,canvas.Frame,2_69,2022-07-14T16:09:04.218Z,,,1,A,2455.1170000000275,,,,394046.1999999997,394046,391574.206,391586.5,391590.883,394059.182,,black
Fixation,canvas.Screen,2_70_0_0,2022-07-14T16:09:06.235Z,,,1,A,2019.240000000049,timeout,,,396063.2999999998,396061.735,394042.505,394047.1999999997,394059.182,396078.422,,black
Stimulus,canvas.Screen,2_70_0_1,2022-07-14T16:09:06.333Z,,,1,A,98.84599999996135,timeout,,,396161.3999999999,396160.293,396061.735,396063.6000000001,396078.422,396177.268,,black
Reaction,canvas.Screen,2_70_0_2,2022-07-14T16:09:06.450Z,,,1,A,99.8320000001113,response,stim_detected,mousedown,396278.6000000001,396277.1000000001,396160.293,396161.6999999997,396177.268,396294.007,,black
Trial,flow.Sequence,2_70_0,2022-07-14T16:09:06.451Z,,,1,A,2217.9180000001215,completion,,,396278.8999999999,396277.1000000001,394042.505,394047.1000000001,394059.182,396294.007,,black
Frame,canvas.Frame,2_70,2022-07-14T16:09:06.451Z,,,1,A,2219.8180000000284,,,,396279.1999999997,396279,394042.505,394046.2999999998,394059.182,396294.007,,black
Fixation,canvas.Screen,2_71_0_0,2022-07-14T16:09:08.785Z,,,1,A,2334.7889999999898,timeout,,,398613.6000000001,398612.119,396277.33,396280.1999999997,396294.007,398628.796,,black
Stimulus,canvas.Screen,2_71_0_1,2022-07-14T16:09:08.886Z,,,1,A,100.11200000002282,timeout,,,398714.2999999998,398712.231,398612.119,398613.8999999999,398628.796,398728.908,,black
Reaction,canvas.Screen,2_71_0_2,2022-07-14T16:09:09.015Z,,,1,A,113.09200000000419,response,stim_detected,mousedown,398843.5,398842,398712.231,398714.5,398728.908,398845.672,,black
Trial,flow.Sequence,2_71_0,2022-07-14T16:09:09.016Z,,,1,A,2547.9930000000168,completion,,,398843.8999999999,398842,396277.33,396280.1999999997,396294.007,398845.672,,black
Frame,canvas.Frame,2_71,2022-07-14T16:09:09.016Z,,,1,A,2549.9930000000168,,,,398844.1999999997,398844,396277.33,396279.3999999999,396294.007,398845.672,,black
Fixation,canvas.Screen,2_72_0_0,2022-07-14T16:09:10.770Z,,,1,AV,1768.420999999973,timeout,,,400598.5,400597.41,398828.995,398845.1999999997,398845.672,400614.093,,grey
Stimulus,canvas.Screen,2_72_0_1,2022-07-14T16:09:10.870Z,,,1,AV,99.48600000003353,timeout,,,400697.6999999997,400696.64,400597.41,400598.7999999998,400614.093,400713.579,,grey
Reaction,canvas.Screen,2_72_0_2,2022-07-14T16:09:11.005Z,,,1,AV,118.42099999997299,response,stim_detected,mousedown,400833.5,400832,400696.64,400697.8999999999,400713.579,400846.995,,grey
Trial,flow.Sequence,2_72_0,2022-07-14T16:09:11.006Z,,,1,AV,1986.3279999999795,completion,,,400833.8999999999,400832,398828.995,398845.1000000001,398845.672,400846.995,,grey
Frame,canvas.Frame,2_72,2022-07-14T16:09:11.006Z,,,1,AV,1988.3279999999795,,,,400834.1999999997,400834,398828.995,398844.3999999999,398845.672,400846.995,,grey
Fixation,canvas.Screen,2_73_0_0,2022-07-14T16:09:12.872Z,,,0,V,1868.5320000000065,timeout,,,402699.6999999997,402698.844,400830.318,400835.1999999997,400846.995,402715.527,,grey
Stimulus,canvas.Screen,2_73_0_1,2022-07-14T16:09:12.971Z,,,0,V,98.61900000000605,timeout,,,402798.6000000001,402797.476,402698.844,402699.8999999999,402715.527,402814.146,,grey
Reaction,canvas.Screen,2_73_0_2,2022-07-14T16:09:13.198Z,,,0,V,210.85399999999208,response,stim_detected,mousedown,403026.3999999999,403025,402797.476,402799,402814.146,403031.764,,grey
Trial,flow.Sequence,2_73_0,2022-07-14T16:09:13.199Z,,,0,V,2178.0050000000047,completion,,,403026.7999999998,403025,400830.318,400835.1000000001,400846.995,403031.764,,grey
Frame,canvas.Frame,2_73,2022-07-14T16:09:13.199Z,,,0,V,2180.105000000098,,,,403027.2999999998,403027.1000000001,400830.318,400834.3999999999,400846.995,403031.764,,grey
Fixation,canvas.Screen,2_74_0_0,2022-07-14T16:09:14.924Z,,,1,AV,1735.0989999999874,timeout,,,404751.6999999997,404750.18,403015.087,403028.3999999999,403031.764,404766.863,,grey
Stimulus,canvas.Screen,2_74_0_1,2022-07-14T16:09:15.023Z,,,1,AV,99.4429999999702,timeout,,,404850.7999999998,404849.629,404750.18,404752,404766.863,404866.306,,grey
Reaction,canvas.Screen,2_74_0_2,2022-07-14T16:09:15.137Z,,,1,AV,97.59399999992456,response,stim_detected,mousedown,404965.2999999998,404963.8999999999,404849.629,404851.1000000001,404866.306,404983.076,,grey
Trial,flow.Sequence,2_74_0,2022-07-14T16:09:15.138Z,,,1,AV,1932.1359999998822,completion,,,404965.6999999997,404963.8999999999,403015.087,403028.2999999998,403031.764,404983.076,,grey
Frame,canvas.Frame,2_74,2022-07-14T16:09:15.138Z,,,1,AV,1934.035999999789,,,,404966.1000000001,404965.7999999998,403015.087,403027.5,403031.764,404983.076,,grey
Fixation,canvas.Screen,2_75_0_0,2022-07-14T16:09:17.357Z,,,1,A,2217.19299999997,timeout,,,407184.8999999999,407183.598,404966.399,404967,404983.076,407200.269,,black
Stimulus,canvas.Screen,2_75_0_1,2022-07-14T16:09:17.458Z,,,1,A,100.8180000000284,timeout,,,407285.8999999999,407284.411,407183.598,407185.1999999997,407200.269,407301.087,,black
Reaction,canvas.Screen,2_75_0_2,2022-07-14T16:09:17.600Z,,,1,A,124.7129999998142,response,stim_detected,mousedown,407427.7999999998,407425.7999999998,407284.411,407286.1999999997,407301.087,407434.69,,black
Trial,flow.Sequence,2_75_0,2022-07-14T16:09:17.600Z,,,1,A,2442.723999999813,completion,,,407428.2999999998,407425.7999999998,404966.399,404966.8999999999,404983.076,407434.69,,black
Frame,canvas.Frame,2_75,2022-07-14T16:09:17.600Z,,,1,A,2445.323999999906,,,,407428.6000000001,407428.3999999999,404966.399,404966.1999999997,404983.076,407434.69,,black
Fixation,canvas.Screen,2_76_0_0,2022-07-14T16:09:19.327Z,,,1,AV,1734.755999999994,timeout,,,409154,409152.766,407418.013,407429.6999999997,407434.69,409169.446,,grey
Stimulus,canvas.Screen,2_76_0_1,2022-07-14T16:09:19.427Z,,,1,AV,99.66800000000512,timeout,,,409253.7999999998,409252.438,409152.766,409154.1999999997,409169.446,409269.114,,grey
Reaction,canvas.Screen,2_76_0_2,2022-07-14T16:09:19.559Z,,,1,AV,115.78599999990547,response,stim_detected,mousedown,409386.2999999998,409384.8999999999,409252.438,409254.1000000001,409269.114,409402.629,,grey
Trial,flow.Sequence,2_76_0,2022-07-14T16:09:19.560Z,,,1,AV,1950.2099999999045,completion,,,409386.7999999998,409384.8999999999,407418.013,407429.5,407434.69,409402.629,,grey
Frame,canvas.Frame,2_76,2022-07-14T16:09:19.560Z,,,1,AV,1952.2099999999045,,,,409387.1000000001,409386.8999999999,407418.013,407428.6999999997,407434.69,409402.629,,grey
Fixation,canvas.Screen,2_77_0_0,2022-07-14T16:09:21.479Z,,,1,A,1919.274999999965,timeout,,,411306,411305.215,409385.952,409388.2999999998,409402.629,411321.904,,black
Stimulus,canvas.Screen,2_77_0_1,2022-07-14T16:09:21.578Z,,,1,A,98.63000000000466,timeout,,,411404.8999999999,411403.858,411305.215,411306.2999999998,411321.904,411420.534,,black
Reaction,canvas.Screen,2_77_0_2,2022-07-14T16:09:21.725Z,,,1,A,130.26599999982864,response,stim_detected,mousedown,411552.2999999998,411550.7999999998,411403.858,411405.1999999997,411420.534,411554.079,,black
Trial,flow.Sequence,2_77_0,2022-07-14T16:09:21.726Z,,,1,A,2148.1709999997984,completion,,,411552.6999999997,411550.7999999998,409385.952,409388.1000000001,409402.629,411554.079,,black
Frame,canvas.Frame,2_77,2022-07-14T16:09:21.726Z,,,1,A,2150.1709999997984,,,,411553,411552.7999999998,409385.952,409387.1999999997,409402.629,411554.079,,black
Fixation,canvas.Screen,2_78_0_0,2022-07-14T16:09:23.564Z,,,1,AV,1851.9469999999856,timeout,,,413391,413389.342,411537.402,411554.1999999997,411554.079,413406.026,,grey
Stimulus,canvas.Screen,2_78_0_1,2022-07-14T16:09:23.663Z,,,1,AV,98.9649999999674,timeout,,,413490,413488.317,413389.342,413391.2999999998,413406.026,413504.991,,grey
Reaction,canvas.Screen,2_78_0_2,2022-07-14T16:09:23.775Z,,,1,AV,95.70899999974063,response,stim_detected,mousedown,413602.1999999997,413600.6999999997,413488.317,413490.1999999997,413504.991,413605.407,,grey
Trial,flow.Sequence,2_78_0,2022-07-14T16:09:23.776Z,,,1,AV,2046.6209999996936,completion,,,413602.6000000001,413600.6999999997,411537.402,411554.1000000001,411554.079,413605.407,,grey
Frame,canvas.Frame,2_78,2022-07-14T16:09:23.776Z,,,1,AV,2048.6209999996936,,,,413602.8999999999,413602.6999999997,411537.402,411553.1999999997,411554.079,413605.407,,grey
Fixation,canvas.Screen,2_79_0_0,2022-07-14T16:09:25.849Z,,,0,V,2085.838999999978,timeout,,,415676.1000000001,415674.56,413588.73,413603.7999999998,413605.407,415691.246,,grey
Stimulus,canvas.Screen,2_79_0_1,2022-07-14T16:09:25.948Z,,,0,V,98.87700000003679,timeout,,,415775.1999999997,415773.447,415674.56,415676.3999999999,415691.246,415790.123,,grey
Reaction,canvas.Screen,2_79_0_2,2022-07-14T16:09:26.113Z,,,0,V,148.67699999979232,response,stim_detected,mousedown,415940.2999999998,415938.7999999998,415773.447,415775.3999999999,415790.123,415956.993,,grey
Trial,flow.Sequence,2_79_0,2022-07-14T16:09:26.114Z,,,0,V,2333.392999999807,completion,,,415940.7999999998,415938.7999999998,413588.73,413603.7999999998,413605.407,415956.993,,grey
Frame,canvas.Frame,2_79,2022-07-14T16:09:26.114Z,,,0,V,2335.5929999999935,,,,415941.1999999997,415941,413588.73,413603,413605.407,415956.993,,grey
Fixation,canvas.Screen,2_80_0_0,2022-07-14T16:09:28.081Z,,,1,AV,1966.1900000000023,timeout,,,417908.2999999998,417906.519,415940.316,415942.1999999997,415956.993,417923.183,,grey
Stimulus,canvas.Screen,2_80_0_1,2022-07-14T16:09:28.182Z,,,1,AV,101.89899999997579,timeout,,,418009.1000000001,418008.399,417906.519,417908.5,417923.183,418025.082,,grey
Reaction,canvas.Screen,2_80_0_2,2022-07-14T16:09:28.319Z,,,1,AV,119.61799999972573,response,stim_detected,mousedown,418146.1000000001,418144.6999999997,418008.399,418009.3999999999,418025.082,418158.446,,grey
Trial,flow.Sequence,2_80_0,2022-07-14T16:09:28.320Z,,,1,AV,2187.706999999704,completion,,,418146.5,418144.6999999997,415940.316,415942,415956.993,418158.446,,grey
Frame,canvas.Frame,2_80,2022-07-14T16:09:28.320Z,,,1,AV,2189.6070000000764,,,,418146.6999999997,418146.6000000001,415940.316,415941.2999999998,415956.993,418158.446,,grey
Fixation,canvas.Screen,2_81_0_0,2022-07-14T16:09:30.434Z,,,0,V,2117.9830000000075,timeout,,,420261.2999999998,420259.752,418141.769,418148,418158.446,420276.429,,grey
Stimulus,canvas.Screen,2_81_0_1,2022-07-14T16:09:30.533Z,,,0,V,99.45100000000093,timeout,,,420360.2999999998,420359.208,420259.752,420261.6000000001,420276.429,420375.88,,grey
Reaction,canvas.Screen,2_81_0_2,2022-07-14T16:09:30.687Z,,,0,V,136.81999999971595,response,stim_detected,mousedown,420514.2999999998,420512.6999999997,420359.208,420360.5,420375.88,420526.683,,grey
Trial,flow.Sequence,2_81_0,2022-07-14T16:09:30.688Z,,,0,V,2354.2539999997243,completion,,,420514.6999999997,420512.6999999997,418141.769,418147.7999999998,418158.446,420526.683,,grey
Frame,canvas.Frame,2_81,2022-07-14T16:09:30.688Z,,,0,V,2356.3539999998175,,,,420515,420514.7999999998,418141.769,418147,418158.446,420526.683,,grey
Fixation,canvas.Screen,2_82_0_0,2022-07-14T16:09:32.802Z,,,0,V,2116.7369999999646,timeout,,,422628.5,422626.752,420510.006,420516,420526.683,422643.42,,grey
Stimulus,canvas.Screen,2_82_0_1,2022-07-14T16:09:32.902Z,,,0,V,100.8980000000447,timeout,,,422728.3999999999,422727.644,422626.752,422628.6999999997,422643.42,422744.318,,grey
Reaction,canvas.Screen,2_82_0_2,2022-07-14T16:09:33.044Z,,,0,V,125.28200000006473,response,stim_detected,mousedown,422871.1999999997,422869.6000000001,422727.644,422728.6999999997,422744.318,422878.199,,grey
Trial,flow.Sequence,2_82_0,2022-07-14T16:09:33.045Z,,,0,V,2342.917000000074,completion,,,422871.6000000001,422869.6000000001,420510.006,420515.8999999999,420526.683,422878.199,,grey
Frame,canvas.Frame,2_82,2022-07-14T16:09:33.045Z,,,0,V,2345.1169999997946,,,,422871.8999999999,422871.7999999998,420510.006,420515.1000000001,420526.683,422878.199,,grey
Fixation,canvas.Screen,2_83_0_0,2022-07-14T16:09:34.989Z,,,0,V,1952.441999999981,timeout,,,424815.5,424813.954,422861.522,422873.1000000001,422878.199,424830.641,,grey
Stimulus,canvas.Screen,2_83_0_1,2022-07-14T16:09:35.087Z,,,0,V,98.91499999997905,timeout,,,424913.6999999997,424912.663,424813.954,424815.7999999998,424830.641,424929.556,,grey
Reaction,canvas.Screen,2_83_0_2,2022-07-14T16:09:35.215Z,,,0,V,110.9440000000177,response,stim_detected,mousedown,425042,425040.5,424912.663,424914.1000000001,424929.556,425046.295,,grey
Trial,flow.Sequence,2_83_0,2022-07-14T16:09:35.215Z,,,0,V,2162.3009999999776,completion,,,425042.2999999998,425040.5,422861.522,422873,422878.199,425046.295,,grey
Frame,canvas.Frame,2_83,2022-07-14T16:09:35.216Z,,,0,V,2164.3009999999776,,,,425042.6999999997,425042.5,422861.522,422872.1000000001,422878.199,425046.295,,grey
Fixation,canvas.Screen,2_84_0_0,2022-07-14T16:09:36.940Z,,,0,V,1735.3820000000414,timeout,,,426766.6000000001,426764.991,425029.618,425043.8999999999,425046.295,426781.677,,grey
Stimulus,canvas.Screen,2_84_0_1,2022-07-14T16:09:37.039Z,,,0,V,98.86999999999534,timeout,,,426865.5,426863.873,426764.991,426766.7999999998,426781.677,426880.547,,grey
Reaction,canvas.Screen,2_84_0_2,2022-07-14T16:09:37.181Z,,,0,V,125.95299999997951,response,stim_detected,mousedown,427008,427006.5,426863.873,426865.7999999998,426880.547,427014.259,,grey
Trial,flow.Sequence,2_84_0,2022-07-14T16:09:37.181Z,,,0,V,1960.2050000000163,completion,,,427008.3999999999,427006.5,425029.618,425043.6999999997,425046.295,427014.259,,grey
Frame,canvas.Frame,2_84,2022-07-14T16:09:37.182Z,,,0,V,1962.2050000000163,,,,427008.6999999997,427008.5,425029.618,425042.8999999999,425046.295,427014.259,,grey
Fixation,canvas.Screen,2_85_0_0,2022-07-14T16:09:39.125Z,,,1,A,1952.6630000000005,timeout,,,428951.6999999997,428950.233,426997.582,427009.6999999997,427014.259,428966.922,,black
Stimulus,canvas.Screen,2_85_0_1,2022-07-14T16:09:39.223Z,,,1,A,98.54099999996834,timeout,,,429049.6999999997,429048.787,428950.233,428951.8999999999,428966.922,429065.463,,black
Reaction,canvas.Screen,2_85_0_2,2022-07-14T16:09:39.312Z,,,1,A,72.13700000010431,response,stim_detected,mousedown,429139,429137.6000000001,429048.787,429049.8999999999,429065.463,429149.041,,black
Trial,flow.Sequence,2_85_0,2022-07-14T16:09:39.312Z,,,1,A,2123.341000000073,completion,,,429139.3999999999,429137.6000000001,426997.582,427009.6999999997,427014.259,429149.041,,black
Frame,canvas.Frame,2_85,2022-07-14T16:09:39.313Z,,,1,A,2125.24099999998,,,,429139.6999999997,429139.5,426997.582,427008.8999999999,427014.259,429149.041,,black
Fixation,canvas.Screen,2_86_0_0,2022-07-14T16:09:41.508Z,,,0,V,2200.6659999999683,timeout,,,431334.6999999997,431333.035,429132.364,429140.6000000001,429149.041,431349.707,,grey
Stimulus,canvas.Screen,2_86_0_1,2022-07-14T16:09:41.609Z,,,0,V,101.03800000000047,timeout,,,431435.7999999998,431434.066,431333.035,431334.8999999999,431349.707,431450.745,,grey
Reaction,canvas.Screen,2_86_0_2,2022-07-14T16:09:43.109Z,,,0,V,1500.753000000026,timeout,,,432935.7999999998,432934.821,431434.066,431436,431450.745,432951.498,,grey
Trial,flow.Sequence,2_86_0,2022-07-14T16:09:43.109Z,,,0,V,3785.7799999999697,completion,,,432936.2999999998,432934.821,429132.364,429140.5,429149.041,432951.498,,grey
Frame,canvas.Frame,2_86,2022-07-14T16:09:43.110Z,,,0,V,3787.3589999998803,,,,432936.5,432936.3999999999,429132.364,429139.8999999999,429149.041,432968.175,,grey
Fixation,canvas.Screen,2_87_0_0,2022-07-14T16:09:45.461Z,,,1,AV,2334.657999999996,timeout,,,435287.8999999999,435286.157,432951.498,432937.6000000001,432968.175,435302.833,,grey
Stimulus,canvas.Screen,2_87_0_1,2022-07-14T16:09:45.558Z,,,1,AV,97.91200000001118,timeout,,,435384.8999999999,435384.084,435286.157,435288.1999999997,435302.833,435400.745,,grey
Reaction,canvas.Screen,2_87_0_2,2022-07-14T16:09:45.684Z,,,1,AV,108.75500000000466,response,stim_detected,mousedown,435510.7999999998,435509.5,435384.084,435385.1000000001,435400.745,435536.596,,grey
Trial,flow.Sequence,2_87_0,2022-07-14T16:09:45.684Z,,,1,AV,2541.3250000000116,completion,,,435511.2999999998,435509.5,432951.498,432937.5,432968.175,435536.596,,grey
Frame,canvas.Frame,2_87,2022-07-14T16:09:45.685Z,,,1,AV,2543.1249999998254,,,,435511.5,435511.2999999998,432951.498,432936.7999999998,432968.175,435536.596,,grey
Fixation,canvas.Screen,2_88_0_0,2022-07-14T16:09:47.379Z,,,1,A,1684.460999999952,timeout,,,437206,437204.379,435503.242,435512.6000000001,435536.596,437221.057,,black
Stimulus,canvas.Screen,2_88_0_1,2022-07-14T16:09:47.478Z,,,1,A,100.04900000005728,timeout,,,437305.1000000001,437303.734,437204.379,437206.2999999998,437221.057,437321.106,,black
Reaction,canvas.Screen,2_88_0_2,2022-07-14T16:09:47.932Z,,,1,A,436.293999999878,response,stim_detected,mousedown,437758.8999999999,437757.3999999999,437303.734,437305.3999999999,437321.106,437771.385,,black
Trial,flow.Sequence,2_88_0,2022-07-14T16:09:47.932Z,,,1,A,2220.8039999998873,completion,,,437759.2999999998,437757.3999999999,435503.242,435512.5,435536.596,437771.385,,black
Frame,canvas.Frame,2_88,2022-07-14T16:09:47.933Z,,,1,A,2222.8039999998873,,,,437759.6000000001,437759.3999999999,435503.242,435511.7999999998,435536.596,437771.385,,black
Fixation,canvas.Screen,2_89_0_0,2022-07-14T16:09:49.980Z,,,1,A,2051.4369999999763,timeout,,,439807.2999999998,439806.144,437754.708,437760.6999999997,437771.385,439822.822,,black
Stimulus,canvas.Screen,2_89_0_1,2022-07-14T16:09:50.080Z,,,1,A,99.95900000003166,timeout,,,439907.1000000001,439906.104,439806.144,439807.3999999999,439822.822,439922.781,,black
Reaction,canvas.Screen,2_89_0_2,2022-07-14T16:09:50.243Z,,,1,A,145.61899999988964,response,stim_detected,mousedown,440069.7999999998,440068.3999999999,439906.104,439907.2999999998,439922.781,440072.893,,black
Trial,flow.Sequence,2_89_0,2022-07-14T16:09:50.243Z,,,1,A,2297.0149999998976,completion,,,440070.1999999997,440068.3999999999,437754.708,437760.6000000001,437771.385,440072.893,,black
Frame,canvas.Frame,2_89,2022-07-14T16:09:50.244Z,,,1,A,2298.9149999998044,,,,440070.3999999999,440070.2999999998,437754.708,437759.7999999998,437771.385,440072.893,,black
Fixation,canvas.Screen,2_90_0_0,2022-07-14T16:09:52.699Z,,,0,V,2468.820000000007,timeout,,,442526.2999999998,442525.032,440056.216,440071.3999999999,440072.893,442541.713,,grey
Stimulus,canvas.Screen,2_90_0_1,2022-07-14T16:09:52.799Z,,,0,V,99.57300000003306,timeout,,,442626.3999999999,442624.608,442525.032,442526.5,442541.713,442641.286,,grey
Reaction,canvas.Screen,2_90_0_2,2022-07-14T16:09:52.947Z,,,0,V,131.01399999979185,response,stim_detected,mousedown,442773.7999999998,442772.2999999998,442624.608,442626.6999999997,442641.286,442791.377,,grey
Trial,flow.Sequence,2_90_0,2022-07-14T16:09:52.947Z,,,0,V,2699.406999999832,completion,,,442774.1999999997,442772.2999999998,440056.216,440071.3999999999,440072.893,442791.377,,grey
Frame,canvas.Frame,2_90,2022-07-14T16:09:52.948Z,,,0,V,2701.506999999925,,,,442774.5,442774.3999999999,440056.216,440070.6000000001,440072.893,442791.377,,grey
Loop,flow.Loop,2,2022-07-14T16:09:52.948Z,,,,,212039.3099999999,completion,,,442775,442774.3999999999,230718.409,230720.3999999999,230735.09,442791.377,,
end,html.Page,3,2022-07-14T16:09:56.152Z,,,,,3187.322999999742,form submission,,,445979.2999999998,445978.6999999997,442774.7,442775.1999999997,442791.377,445993.49,,
root,flow.Sequence,,2022-07-14T16:09:56.153Z,,,,,442193.9469999997,completion,,,445980.3999999999,445978.6999999997,3768.075,3783.7999999998137,3784.753,445993.49,,