sender,sender_type,sender_id,timestamp,meta,,aud,condition,duration,ended_on,response,response_action,time_commit,time_end,time_render,time_run,time_show,time_switch,url,vis
Instructions,html.Page,0,2022-06-27T15:33:31.005Z,"{""labjs_version"":""20.2.4"",""labjs_build"":{""flavor"":""production"",""commit"":""f5b4a49f956347addd546a832a3327688c2c0fef""},""location"":""file:///C:/Users/Proband%207/Desktop/RTE/index.html"",""userAgent"":""Mozilla/5.0 (Windows NT 6.1; Win64; x64) AppleWebKit/537.36 (KHTML, like Gecko) Chrome/102.0.0.0 Safari/537.36"",""platform"":""Win32"",""language"":""de-DE"",""locale"":""de"",""timeZone"":""Europe/Berlin"",""timezoneOffset"":-120,""screen_width"":1366,""screen_height"":768,""scroll_width"":1366,""scroll_height"":609,""window_innerWidth"":1366,""window_innerHeight"":657,""devicePixelRatio"":1}",,,,795791.2939999999,form submission,,,797168.2999999999,797166.7999999999,1358.823,1363.600000000035,1375.506,797188.379,{},
Change Background,canvas.Screen,1,2022-06-27T15:33:34.011Z,,,,,3001.0810000000056,timeout,,,800174.2000000001,800172.791,797155.029,797169.0000000001,797188.379,800189.46,,
Fixation,canvas.Screen,2_0_0_0,2022-06-27T15:33:35.633Z,,,1,AV,1621.3640000000596,timeout,,,801795.9,801794.12,800172.791,800175.7999999999,800189.46,801810.824,,grey
Stimulus,canvas.Screen,2_0_0_1,2022-06-27T15:33:35.729Z,,,1,AV,97.43599999998696,timeout,,,801892.2000000001,801891.583,801794.12,801796.2999999999,801810.824,801908.26,,grey
Reaction,canvas.Screen,2_0_0_2,2022-06-27T15:33:35.953Z,,,1,AV,206.14000000001397,response,stim_detected,mousedown,802116.5000000001,802114.4,801891.583,801892.2999999999,801908.26,802141.859,,grey
Trial,flow.Sequence,2_0_0,2022-06-27T15:33:35.954Z,,,1,AV,1924.9400000000605,completion,,,802117.4,802114.4,800172.791,800175.7000000001,800189.46,802141.859,,grey
Frame,canvas.Frame,2_0,2022-06-27T15:33:35.955Z,,,1,AV,1928.140000000014,,,,802117.9,802117.6,800172.791,800174.7000000001,800189.46,802141.859,,grey
Fixation,canvas.Screen,2_1_0_0,2022-06-27T15:33:37.848Z,,,1,AV,1884.1030000000028,timeout,,,804011.0000000001,804009.288,802108.503,802119.2999999999,802141.859,804025.962,,grey
Stimulus,canvas.Screen,2_1_0_1,2022-06-27T15:33:37.948Z,,,1,AV,100.58599999989383,timeout,,,804111.0000000001,804109.869,804009.288,804011.2999999999,804025.962,804126.548,,grey
Reaction,canvas.Screen,2_1_0_2,2022-06-27T15:33:38.078Z,,,1,AV,112.95200000016484,response,stim_detected,mousedown,804241.1,804239.5000000001,804109.869,804111.6,804126.548,804259.904,,grey
Trial,flow.Sequence,2_1_0,2022-06-27T15:33:38.079Z,,,1,AV,2097.6410000000615,completion,,,804241.9,804239.5000000001,802108.503,802119.2000000001,802141.859,804259.904,,grey
Frame,canvas.Frame,2_1,2022-06-27T15:33:38.079Z,,,1,AV,2100.341000000015,,,,804242.6,804242.2000000001,802108.503,802118.2999999999,802141.859,804259.904,,grey
Fixation,canvas.Screen,2_2_0_0,2022-06-27T15:33:39.733Z,,,1,AV,1651.9159999999683,timeout,,,805896.2000000001,805895.135,804243.227,804244.0000000001,804259.904,805911.82,,grey
Stimulus,canvas.Screen,2_2_0_1,2022-06-27T15:33:39.833Z,,,1,AV,99.51600000006147,timeout,,,805996.2000000001,805994.656,805895.135,805896.5000000001,805911.82,806011.336,,grey
Reaction,canvas.Screen,2_2_0_2,2022-06-27T15:33:39.960Z,,,1,AV,110.06400000001304,response,stim_detected,mousedown,806123.1,806121.4,805994.656,805996.5000000001,806011.336,806127.898,,grey
Trial,flow.Sequence,2_2_0,2022-06-27T15:33:39.960Z,,,1,AV,1861.4960000000428,completion,,,806123.7000000001,806121.4,804243.227,804243.7999999999,804259.904,806127.898,,grey
Frame,canvas.Frame,2_2,2022-06-27T15:33:39.961Z,,,1,AV,1863.8959999999497,,,,806124.0000000001,806123.7999999999,804243.227,804242.9,804259.904,806127.898,,grey
Fixation,canvas.Screen,2_3_0_0,2022-06-27T15:33:41.634Z,,,1,A,1684.1539999999804,timeout,,,807797.0000000001,807795.377,806111.221,806125.1,806127.898,807812.052,,black
Stimulus,canvas.Screen,2_3_0_1,2022-06-27T15:33:41.734Z,,,1,A,100.36899999994785,timeout,,,807897.1,807895.744,807795.377,807797.2000000001,807812.052,807912.421,,black
Reaction,canvas.Screen,2_3_0_2,2022-06-27T15:33:41.893Z,,,1,A,141.37899999995716,response,stim_detected,mousedown,808056.4,808053.7999999999,807895.744,807897.2999999999,807912.421,808079.122,,black
Trial,flow.Sequence,2_3_0,2022-06-27T15:33:41.894Z,,,1,A,1925.9019999998854,completion,,,808056.9,808053.7999999999,806111.221,806125.0000000001,806127.898,808079.122,,black
Frame,canvas.Frame,2_3,2022-06-27T15:33:41.894Z,,,1,A,1929.1020000000717,,,,808057.2999999999,808057.0000000001,806111.221,806124.2000000001,806127.898,808079.122,,black
Fixation,canvas.Screen,2_4_0_0,2022-06-27T15:33:43.469Z,,,1,A,1568.109999999986,timeout,,,809632.2999999999,809630.551,808062.447,808058.4,808079.122,809647.232,,black
Stimulus,canvas.Screen,2_4_0_1,2022-06-27T15:33:43.569Z,,,1,A,99.79899999999907,timeout,,,809732.2999999999,809730.353,809630.551,809632.7000000001,809647.232,809747.031,,black
Reaction,canvas.Screen,2_4_0_2,2022-06-27T15:33:43.705Z,,,1,A,119.26899999997113,response,stim_detected,mousedown,809868.4,809866.2999999999,809730.353,809732.6,809747.031,809880.445,,black
Trial,flow.Sequence,2_4_0,2022-06-27T15:33:43.706Z,,,1,A,1787.1779999999562,completion,,,809868.9,809866.2999999999,808062.447,808058.2999999999,808079.122,809880.445,,black
Frame,canvas.Frame,2_4,2022-06-27T15:33:43.706Z,,,1,A,1789.9780000000028,,,,809869.4,809869.1,808062.447,808057.4,808079.122,809880.445,,black
Fixation,canvas.Screen,2_5_0_0,2022-06-27T15:33:45.269Z,,,0,V,1566.999000000069,timeout,,,811432.5000000001,811430.773,809863.767,809870.7999999999,809880.445,811447.444,,grey
Stimulus,canvas.Screen,2_5_0_1,2022-06-27T15:33:45.369Z,,,0,V,100.74499999999534,timeout,,,811532.2999999999,811531.4,811430.773,811432.7999999999,811447.444,811548.189,,grey
Reaction,canvas.Screen,2_5_0_2,2022-06-27T15:33:45.487Z,,,0,V,100.21100000001024,response,stim_detected,mousedown,811650.1,811648.4,811531.4,811532.7000000001,811548.189,811664.928,,grey
Trial,flow.Sequence,2_5_0,2022-06-27T15:33:45.487Z,,,0,V,1767.9550000000745,completion,,,811650.5000000001,811648.4,809863.767,809870.7000000001,809880.445,811664.928,,grey
Frame,canvas.Frame,2_5,2022-06-27T15:33:45.488Z,,,0,V,1770.155000000028,,,,811650.9,811650.6,809863.767,809869.6,809880.445,811664.928,,grey
Fixation,canvas.Screen,2_6_0_0,2022-06-27T15:33:47.655Z,,,0,V,2168.4330000000773,timeout,,,813818.4,813816.681,811648.251,811652.2000000001,811664.928,813833.361,,grey
Stimulus,canvas.Screen,2_6_0_1,2022-06-27T15:33:47.754Z,,,0,V,99.79599999997299,timeout,,,813917.4,813916.479,813816.681,813819.0000000001,813833.361,813933.157,,grey
Reaction,canvas.Screen,2_6_0_2,2022-06-27T15:33:48.046Z,,,0,V,274.14299999992363,response,stim_detected,mousedown,814208.9,814207.2999999999,813916.479,813917.6,813933.157,814216.621,,grey
Trial,flow.Sequence,2_6_0,2022-06-27T15:33:48.046Z,,,0,V,2542.371999999974,completion,,,814209.2999999999,814207.2999999999,811648.251,811652.1,811664.928,814216.621,,grey
Frame,canvas.Frame,2_6,2022-06-27T15:33:48.046Z,,,0,V,2544.57200000016,,,,814209.7000000001,814209.5000000001,811648.251,811651.0000000001,811664.928,814216.621,,grey
Fixation,canvas.Screen,2_7_0_0,2022-06-27T15:33:50.490Z,,,0,V,2452.640000000014,timeout,,,816653.6,816652.577,814199.944,814210.7999999999,814216.621,816669.261,,grey
Stimulus,canvas.Screen,2_7_0_1,2022-06-27T15:33:50.589Z,,,0,V,99.11299999989569,timeout,,,816752.5000000001,816751.508,816652.577,816653.7999999999,816669.261,816768.374,,grey
Reaction,canvas.Screen,2_7_0_2,2022-06-27T15:33:50.738Z,,,0,V,130.92599999997765,response,stim_detected,mousedown,816900.7999999999,816899.2999999999,816751.508,816752.7999999999,816768.374,816918.467,,grey
Trial,flow.Sequence,2_7_0,2022-06-27T15:33:50.738Z,,,0,V,2682.6789999998873,completion,,,816901.2999999999,816899.2999999999,814199.944,814210.7999999999,814216.621,816918.467,,grey
Frame,canvas.Frame,2_7,2022-06-27T15:33:50.738Z,,,0,V,2684.7789999999804,,,,816901.5000000001,816901.4,814199.944,814209.7999999999,814216.621,816918.467,,grey
Fixation,canvas.Screen,2_8_0_0,2022-06-27T15:33:52.624Z,,,1,AV,1884.9360000001034,timeout,,,818787.6,818786.722,816901.79,816902.7999999999,816918.467,818803.403,,grey
Stimulus,canvas.Screen,2_8_0_1,2022-06-27T15:33:52.724Z,,,1,AV,99.05699999991339,timeout,,,818886.7999999999,818885.788,818786.722,818787.9,818803.403,818902.46,,grey
Reaction,canvas.Screen,2_8_0_2,2022-06-27T15:33:52.843Z,,,1,AV,101.7400000001071,response,stim_detected,mousedown,819005.7999999999,819004.2000000001,818885.788,818887.2999999999,818902.46,819019.879,,grey
Trial,flow.Sequence,2_8_0,2022-06-27T15:33:52.843Z,,,1,AV,2085.733000000124,completion,,,819006.2999999999,819004.2000000001,816901.79,816902.6,816918.467,819019.879,,grey
Frame,canvas.Frame,2_8,2022-06-27T15:33:52.843Z,,,1,AV,2088.0330000001704,,,,819006.7000000001,819006.5000000001,816901.79,816901.7000000001,816918.467,819019.879,,grey
Fixation,canvas.Screen,2_9_0_0,2022-06-27T15:33:55.061Z,,,0,V,2219.4290000000037,timeout,,,821223.7000000001,821222.621,819003.201,819008.1,819019.879,821239.308,,grey
Stimulus,canvas.Screen,2_9_0_1,2022-06-27T15:33:55.159Z,,,0,V,98.0690000000177,timeout,,,821321.7999999999,821320.705,821222.621,821224.1,821239.308,821337.377,,grey
Reaction,canvas.Screen,2_9_0_2,2022-06-27T15:33:55.277Z,,,0,V,101.0230000000447,response,stim_detected,mousedown,821440.0000000001,821438.4,821320.705,821322.1,821337.377,821454.871,,grey
Trial,flow.Sequence,2_9_0,2022-06-27T15:33:55.277Z,,,0,V,2418.521000000066,completion,,,821440.4,821438.4,819003.201,819007.9,819019.879,821454.871,,grey
Frame,canvas.Frame,2_9,2022-06-27T15:33:55.277Z,,,0,V,2420.521000000066,,,,821440.7000000001,821440.4,819003.201,819006.7999999999,819019.879,821454.871,,grey
Fixation,canvas.Screen,2_10_0_0,2022-06-27T15:33:56.795Z,,,1,A,1517.9449999999488,timeout,,,822957.9,822956.135,821438.193,821441.7000000001,821454.871,822972.816,,black
Stimulus,canvas.Screen,2_10_0_1,2022-06-27T15:33:56.894Z,,,1,A,99.6589999999851,timeout,,,823056.7999999999,823055.799,822956.135,822958.2000000001,822972.816,823072.475,,black
Reaction,canvas.Screen,2_10_0_2,2022-06-27T15:33:57.078Z,,,1,A,166.82499999995343,response,stim_detected,mousedown,823241.2999999999,823239.2999999999,823055.799,823057.0000000001,823072.475,823256.036,,black
Trial,flow.Sequence,2_10_0,2022-06-27T15:33:57.079Z,,,1,A,1784.4289999998873,completion,,,823241.7999999999,823239.2999999999,821438.193,821441.6,821454.871,823256.036,,black
Frame,canvas.Frame,2_10,2022-06-27T15:33:57.079Z,,,1,A,1787.0289999999804,,,,823242.1,823241.9,821438.193,821440.9,821454.871,823256.036,,black
Fixation,canvas.Screen,2_11_0_0,2022-06-27T15:33:58.696Z,,,1,A,1618.3429999999935,timeout,,,824859.0000000001,824857.696,823239.359,823243.5000000001,823256.036,824874.379,,black
Stimulus,canvas.Screen,2_11_0_1,2022-06-27T15:33:58.795Z,,,1,A,99.5219999999972,timeout,,,824957.9,824956.898,824857.696,824859.2000000001,824874.379,824973.901,,black
Reaction,canvas.Screen,2_11_0_2,2022-06-27T15:33:58.897Z,,,1,A,84.29900000011548,response,stim_detected,mousedown,825060.0000000001,825058.2000000001,824956.898,824958.2000000001,824973.901,825073.969,,black
Trial,flow.Sequence,2_11_0,2022-06-27T15:33:58.897Z,,,1,A,1802.1640000001062,completion,,,825060.4,825058.2000000001,823239.359,823243.4,823256.036,825073.969,,black
Frame,canvas.Frame,2_11,2022-06-27T15:33:58.897Z,,,1,A,1804.4640000001527,,,,825060.7000000001,825060.5000000001,823239.359,823242.4,823256.036,825073.969,,black
Fixation,canvas.Screen,2_12_0_0,2022-06-27T15:34:00.629Z,,,1,A,1733.7280000000028,timeout,,,826792.0000000001,826791.026,825057.291,825062.1,825073.969,826807.697,,black
Stimulus,canvas.Screen,2_12_0_1,2022-06-27T15:34:00.730Z,,,1,A,100.90499999991152,timeout,,,826893.1,826891.923,826791.026,826792.2999999999,826807.697,826908.602,,black
Reaction,canvas.Screen,2_12_0_2,2022-06-27T15:34:00.845Z,,,1,A,97.69799999997485,response,stim_detected,mousedown,827007.7999999999,827006.2999999999,826891.923,826893.4,826908.602,827025.241,,black
Trial,flow.Sequence,2_12_0,2022-06-27T15:34:00.845Z,,,1,A,1932.3309999998892,completion,,,827008.2999999999,827006.2999999999,825057.291,825062.0000000001,825073.969,827025.241,,black
Frame,canvas.Frame,2_12,2022-06-27T15:34:00.845Z,,,1,A,1934.4309999999823,,,,827008.6,827008.4,825057.291,825060.9,825073.969,827025.241,,black
Fixation,canvas.Screen,2_13_0_0,2022-06-27T15:34:03.200Z,,,1,AV,2353.7829999999376,timeout,,,829363.2999999999,829362.331,827008.564,827009.7999999999,827025.241,829379.024,,grey
Stimulus,canvas.Screen,2_13_0_1,2022-06-27T15:34:03.297Z,,,1,AV,96.67300000006799,timeout,,,829460.2000000001,829459.028,829362.331,829363.6,829379.024,829475.697,,grey
Reaction,canvas.Screen,2_13_0_2,2022-06-27T15:34:03.399Z,,,1,AV,85.40299999993294,response,stim_detected,mousedown,829562.7000000001,829561.1,829459.028,829460.5000000001,829475.697,829576.984,,grey
Trial,flow.Sequence,2_13_0,2022-06-27T15:34:03.400Z,,,1,AV,2535.8589999999385,completion,,,829563.1,829561.1,827008.564,827009.7000000001,827025.241,829576.984,,grey
Frame,canvas.Frame,2_13,2022-06-27T15:34:03.400Z,,,1,AV,2538.058999999892,,,,829563.5000000001,829563.2999999999,827008.564,827008.9,827025.241,829576.984,,grey
Fixation,canvas.Screen,2_14_0_0,2022-06-27T15:34:05.283Z,,,1,A,1884.7439999999478,timeout,,,831446.6,831445.049,829560.306,829564.6,829576.984,831461.728,,black
Stimulus,canvas.Screen,2_14_0_1,2022-06-27T15:34:05.383Z,,,1,A,99.73400000005495,timeout,,,831546.2000000001,831544.786,831445.049,831447.0000000001,831461.728,831561.462,,black
Reaction,canvas.Screen,2_14_0_2,2022-06-27T15:34:05.515Z,,,1,A,114.73800000001211,response,stim_detected,mousedown,831678.0000000001,831676.2000000001,831544.786,831546.5000000001,831561.462,831695.045,,black
Trial,flow.Sequence,2_14_0,2022-06-27T15:34:05.515Z,,,1,A,2099.216000000015,completion,,,831678.6,831676.2000000001,829560.306,829564.5000000001,829576.984,831695.045,,black
Frame,canvas.Frame,2_14,2022-06-27T15:34:05.516Z,,,1,A,2101.716000000015,,,,831679.0000000001,831678.7000000001,829560.306,829563.6,829576.984,831695.045,,black
Fixation,canvas.Screen,2_15_0_0,2022-06-27T15:34:07.469Z,,,0,V,1952.4899999999907,timeout,,,833632.4,833630.848,831678.368,831680.1,831695.045,833647.535,,grey
Stimulus,canvas.Screen,2_15_0_1,2022-06-27T15:34:07.568Z,,,0,V,98.93599999998696,timeout,,,833731.2999999999,833729.703,833630.848,833632.6,833647.535,833746.471,,grey
Reaction,canvas.Screen,2_15_0_2,2022-06-27T15:34:07.940Z,,,0,V,354.8289999999106,response,stim_detected,mousedown,834102.7999999999,834101.2999999999,833729.703,833731.7000000001,833746.471,834113.365,,grey
Trial,flow.Sequence,2_15_0,2022-06-27T15:34:07.940Z,,,0,V,2406.2549999998882,completion,,,834103.2000000001,834101.2999999999,831678.368,831680.0000000001,831695.045,834113.365,,grey
Frame,canvas.Frame,2_15,2022-06-27T15:34:07.940Z,,,0,V,2408.3549999999814,,,,834103.5000000001,834103.4,831678.368,831679.2000000001,831695.045,834113.365,,grey
Fixation,canvas.Screen,2_16_0_0,2022-06-27T15:34:10.203Z,,,1,A,2268.412000000011,timeout,,,836366.6,836365.098,834096.688,834104.7000000001,834113.365,836381.777,,black
Stimulus,canvas.Screen,2_16_0_1,2022-06-27T15:34:10.303Z,,,1,A,99.86100000003353,timeout,,,836466.5000000001,836464.856,836365.098,836366.9,836381.777,836481.638,,black
Reaction,canvas.Screen,2_16_0_2,2022-06-27T15:34:10.451Z,,,1,A,130.56200000003446,response,stim_detected,mousedown,836613.7000000001,836612.2000000001,836464.856,836466.7999999999,836481.638,836631.731,,black
Trial,flow.Sequence,2_16_0,2022-06-27T15:34:10.451Z,,,1,A,2498.835000000079,completion,,,836614.1,836612.2000000001,834096.688,834104.6,834113.365,836631.731,,black
Frame,canvas.Frame,2_16,2022-06-27T15:34:10.451Z,,,1,A,2500.9349999999395,,,,836614.5000000001,836614.2999999999,834096.688,834103.7000000001,834113.365,836631.731,,black
Fixation,canvas.Screen,2_17_0_0,2022-06-27T15:34:12.488Z,,,1,AV,2034.9629999999888,timeout,,,838651.7000000001,838650.014,836615.054,836615.7000000001,836631.731,838666.694,,grey
Stimulus,canvas.Screen,2_17_0_1,2022-06-27T15:34:12.588Z,,,1,AV,99.09600000001956,timeout,,,838750.7999999999,838749.118,838650.014,838652.0000000001,838666.694,838765.79,,grey
Reaction,canvas.Screen,2_17_0_2,2022-06-27T15:34:12.695Z,,,1,AV,90.60999999998603,response,stim_detected,mousedown,838858.1,838856.4,838749.118,838750.9,838765.79,838866.578,,grey
Trial,flow.Sequence,2_17_0,2022-06-27T15:34:12.695Z,,,1,AV,2224.6689999999944,completion,,,838858.5000000001,838856.4,836615.054,836615.6,836631.731,838866.578,,grey
Frame,canvas.Frame,2_17,2022-06-27T15:34:12.696Z,,,1,AV,2226.868999999948,,,,838858.7999999999,838858.6,836615.054,836614.7000000001,836631.731,838866.578,,grey
Fixation,canvas.Screen,2_18_0_0,2022-06-27T15:34:14.623Z,,,1,A,1934.155000000028,timeout,,,840785.9,840784.059,838849.9,838859.9,838866.578,840800.733,,black
Stimulus,canvas.Screen,2_18_0_1,2022-06-27T15:34:14.723Z,,,1,A,100.17000000004191,timeout,,,840885.7999999999,840884.228,840784.059,840786.4,840800.733,840900.903,,black
Reaction,canvas.Screen,2_18_0_2,2022-06-27T15:34:14.804Z,,,1,A,64.29700000002049,response,stim_detected,mousedown,840966.9,840965.2000000001,840884.228,840886.1,840900.903,840984.625,,black
Trial,flow.Sequence,2_18_0,2022-06-27T15:34:14.804Z,,,1,A,2098.6220000000903,completion,,,840967.2999999999,840965.2000000001,838849.9,838859.7000000001,838866.578,840984.625,,black
Frame,canvas.Frame,2_18,2022-06-27T15:34:14.805Z,,,1,A,2100.922000000137,,,,840967.7000000001,840967.5000000001,838849.9,838858.9,838866.578,840984.625,,black
Fixation,canvas.Screen,2_19_0_0,2022-06-27T15:34:16.392Z,,,1,A,1585.7460000000428,timeout,,,842554.9,842553.679,840967.948,840969.1,840984.625,842570.371,,black
Stimulus,canvas.Screen,2_19_0_1,2022-06-27T15:34:16.491Z,,,1,A,98.43599999998696,timeout,,,842653.7999999999,842652.133,842553.679,842555.1,842570.371,842668.807,,black
Reaction,canvas.Screen,2_19_0_2,2022-06-27T15:34:16.643Z,,,1,A,135.39300000004005,response,stim_detected,mousedown,842805.7000000001,842804.2000000001,842652.133,842654.1,842668.807,842819.209,,black
Trial,flow.Sequence,2_19_0,2022-06-27T15:34:16.643Z,,,1,A,1819.5750000000698,completion,,,842806.2000000001,842804.2000000001,840967.948,840968.9,840984.625,842819.209,,black
Frame,canvas.Frame,2_19,2022-06-27T15:34:16.643Z,,,1,A,1821.6749999999302,,,,842806.5000000001,842806.2999999999,840967.948,840968.0000000001,840984.625,842819.209,,black
Fixation,canvas.Screen,2_20_0_0,2022-06-27T15:34:18.842Z,,,1,A,2201.228999999934,timeout,,,845004.9,845003.762,842802.532,842807.5000000001,842819.209,845020.438,,black
Stimulus,canvas.Screen,2_20_0_1,2022-06-27T15:34:18.942Z,,,1,A,100.30900000000838,timeout,,,845105.0000000001,845103.917,845003.762,845005.2999999999,845020.438,845120.747,,black
Reaction,canvas.Screen,2_20_0_2,2022-06-27T15:34:19.064Z,,,1,A,104.45300000009593,response,stim_detected,mousedown,845226.7999999999,845225.2000000001,845103.917,845105.2000000001,845120.747,845237.486,,black
Trial,flow.Sequence,2_20_0,2022-06-27T15:34:19.064Z,,,1,A,2405.991000000038,completion,,,845227.2000000001,845225.2000000001,842802.532,842807.5000000001,842819.209,845237.486,,black
Frame,canvas.Frame,2_20,2022-06-27T15:34:19.064Z,,,1,A,2408.1909999999916,,,,845227.6,845227.4,842802.532,842806.7000000001,842819.209,845237.486,,black
Fixation,canvas.Screen,2_21_0_0,2022-06-27T15:34:20.995Z,,,1,A,1935.6659999999683,timeout,,,847158.0000000001,847156.466,845220.809,845228.7000000001,845237.486,847173.152,,black
Stimulus,canvas.Screen,2_21_0_1,2022-06-27T15:34:21.094Z,,,1,A,99.13800000003539,timeout,,,847257.2000000001,847255.612,847156.466,847158.2999999999,847173.152,847272.29,,black
Reaction,canvas.Screen,2_21_0_2,2022-06-27T15:34:21.244Z,,,1,A,132.9100000000326,response,stim_detected,mousedown,847406.7999999999,847405.2000000001,847255.612,847257.4,847272.29,847422.356,,black
Trial,flow.Sequence,2_21_0,2022-06-27T15:34:21.244Z,,,1,A,2167.7140000000363,completion,,,847407.1,847405.2000000001,845220.809,845228.6,845237.486,847422.356,,black
Frame,canvas.Frame,2_21,2022-06-27T15:34:21.244Z,,,1,A,2169.8139999998966,,,,847407.5000000001,847407.2999999999,845220.809,845227.7000000001,845237.486,847422.356,,black
Fixation,canvas.Screen,2_22_0_0,2022-06-27T15:34:22.978Z,,,1,AV,1733.936999999918,timeout,,,849141.2000000001,849139.62,847405.678,847408.7000000001,847422.356,849156.293,,grey
Stimulus,canvas.Screen,2_22_0_1,2022-06-27T15:34:23.078Z,,,1,AV,99.97000000008848,timeout,,,849241.1,849239.591,849139.62,849141.4,849156.293,849256.263,,grey
Reaction,canvas.Screen,2_22_0_2,2022-06-27T15:34:23.191Z,,,1,AV,96.83699999994133,response,stim_detected,mousedown,849354.6,849353.1,849239.591,849241.4,849256.263,849356.94,,grey
Trial,flow.Sequence,2_22_0,2022-06-27T15:34:23.192Z,,,1,AV,1930.7439999999478,completion,,,849355.0000000001,849353.1,847405.678,847408.5000000001,847422.356,849356.94,,grey
Frame,canvas.Frame,2_22,2022-06-27T15:34:23.192Z,,,1,AV,1932.844000000041,,,,849355.4,849355.2000000001,847405.678,847407.7000000001,847422.356,849356.94,,grey
Fixation,canvas.Screen,2_23_0_0,2022-06-27T15:34:25.497Z,,,1,A,2318.3950000000186,timeout,,,851660.2999999999,851658.656,849340.262,849356.7999999999,849356.94,851675.335,,black
Stimulus,canvas.Screen,2_23_0_1,2022-06-27T15:34:25.597Z,,,1,A,100.11900000006426,timeout,,,851760.4,851758.774,851658.656,851660.5000000001,851675.335,851775.454,,black
Reaction,canvas.Screen,2_23_0_2,2022-06-27T15:34:26.134Z,,,1,A,519.6459999999497,response,stim_detected,mousedown,852296.7000000001,852295.1,851758.774,851760.6,851775.454,852325.655,,black
Trial,flow.Sequence,2_23_0,2022-06-27T15:34:26.134Z,,,1,A,2938.1600000000326,completion,,,852297.2000000001,852295.1,849340.262,849356.7000000001,849356.94,852325.655,,black
Frame,canvas.Frame,2_23,2022-06-27T15:34:26.134Z,,,1,A,2940.359999999986,,,,852297.6,852297.2999999999,849340.262,849355.6,849356.94,852325.655,,black
Fixation,canvas.Screen,2_24_0_0,2022-06-27T15:34:27.781Z,,,0,V,1633.9299999999348,timeout,,,853944.5000000001,853942.911,852292.299,852298.7000000001,852325.655,853959.585,,grey
Stimulus,canvas.Screen,2_24_0_1,2022-06-27T15:34:27.881Z,,,0,V,100.5360000000801,timeout,,,854044.1,854043.198,853942.911,853944.7999999999,853959.585,854060.121,,grey
Reaction,canvas.Screen,2_24_0_2,2022-06-27T15:34:28.181Z,,,0,V,281.9789999999339,response,stim_detected,mousedown,854343.7000000001,854342.1,854043.198,854044.2000000001,854060.121,854360.325,,grey
Trial,flow.Sequence,2_24_0,2022-06-27T15:34:28.181Z,,,0,V,2016.4449999999488,completion,,,854344.1,854342.1,852292.299,852298.6,852325.655,854360.325,,grey
Frame,canvas.Frame,2_24,2022-06-27T15:34:28.181Z,,,0,V,2018.545000000042,,,,854344.2999999999,854344.2000000001,852292.299,852297.7000000001,852325.655,854360.325,,grey
Fixation,canvas.Screen,2_25_0_0,2022-06-27T15:34:30.184Z,,,1,AV,2001.6080000000075,timeout,,,856346.6,856345.253,854343.647,854346.6,854360.325,856361.933,,grey
Stimulus,canvas.Screen,2_25_0_1,2022-06-27T15:34:30.284Z,,,1,AV,99.51100000005681,timeout,,,856446.6,856444.769,856345.253,856346.7999999999,856361.933,856461.444,,grey
Reaction,canvas.Screen,2_25_0_2,2022-06-27T15:34:30.437Z,,,1,AV,136.65599999995902,response,stim_detected,mousedown,856599.6,856598.1,856444.769,856446.9,856461.444,856611.864,,grey
Trial,flow.Sequence,2_25_0,2022-06-27T15:34:30.437Z,,,1,AV,2237.7750000000233,completion,,,856600.0000000001,856598.1,854343.647,854346.5000000001,854360.325,856611.864,,grey
Frame,canvas.Frame,2_25,2022-06-27T15:34:30.437Z,,,1,AV,2239.7750000000233,,,,856600.4,856600.1,854343.647,854344.6,854360.325,856611.864,,grey
Fixation,canvas.Screen,2_26_0_0,2022-06-27T15:34:32.135Z,,,0,V,1701.051000000094,timeout,,,858297.7000000001,858296.238,856595.186,856601.5000000001,856611.864,858312.915,,grey
Stimulus,canvas.Screen,2_26_0_1,2022-06-27T15:34:32.235Z,,,0,V,99.77700000000186,timeout,,,858397.6,858396.018,858296.238,858298.0000000001,858312.915,858412.692,,grey
Reaction,canvas.Screen,2_26_0_2,2022-06-27T15:34:32.467Z,,,0,V,215.50800000003073,response,stim_detected,mousedown,858629.7000000001,858628.2000000001,858396.018,858397.7999999999,858412.692,858646.553,,grey
Trial,flow.Sequence,2_26_0,2022-06-27T15:34:32.467Z,,,0,V,2016.3360000001267,completion,,,858630.0000000001,858628.2000000001,856595.186,856601.4,856611.864,858646.553,,grey
Frame,canvas.Frame,2_26,2022-06-27T15:34:32.467Z,,,0,V,2018.3360000001267,,,,858630.4,858630.2000000001,856595.186,856600.5000000001,856611.864,858646.553,,grey
Fixation,canvas.Screen,2_27_0_0,2022-06-27T15:34:34.103Z,,,1,AV,1634.6300000000047,timeout,,,860265.7999999999,860264.503,858629.875,858631.5000000001,858646.553,860281.183,,grey
Stimulus,canvas.Screen,2_27_0_1,2022-06-27T15:34:34.203Z,,,1,AV,99.84000000008382,timeout,,,860365.7999999999,860364.346,860264.503,860266.1,860281.183,860381.023,,grey
Reaction,canvas.Screen,2_27_0_2,2022-06-27T15:34:34.341Z,,,1,AV,121.07699999993201,response,stim_detected,mousedown,860503.6,860502.1,860364.346,860366.0000000001,860381.023,860514.446,,grey
Trial,flow.Sequence,2_27_0,2022-06-27T15:34:34.341Z,,,1,AV,1855.5470000000205,completion,,,860504.0000000001,860502.1,858629.875,858631.5000000001,858646.553,860514.446,,grey
Frame,canvas.Frame,2_27,2022-06-27T15:34:34.341Z,,,1,AV,1857.5470000000205,,,,860504.4,860504.1,858629.875,858630.5000000001,858646.553,860514.446,,grey
Fixation,canvas.Screen,2_28_0_0,2022-06-27T15:34:36.739Z,,,0,V,2403.0130000000354,timeout,,,862902.1,862900.772,860497.769,860505.5000000001,860514.446,862917.459,,grey
Stimulus,canvas.Screen,2_28_0_1,2022-06-27T15:34:36.838Z,,,0,V,98.46799999999348,timeout,,,863001.1,862999.251,862900.772,862902.4,862917.459,863015.927,,grey
Reaction,canvas.Screen,2_28_0_2,2022-06-27T15:34:37.079Z,,,0,V,224.17299999995157,response,stim_detected,mousedown,863241.6,863240.1,862999.251,863001.4,863015.927,863249.604,,grey
Trial,flow.Sequence,2_28_0,2022-06-27T15:34:37.079Z,,,0,V,2725.6539999999804,completion,,,863242.0000000001,863240.1,860497.769,860505.5000000001,860514.446,863249.604,,grey
Frame,canvas.Frame,2_28,2022-06-27T15:34:37.079Z,,,0,V,2727.6539999999804,,,,863242.4,863242.1,860497.769,860504.6,860514.446,863249.604,,grey
Fixation,canvas.Screen,2_29_0_0,2022-06-27T15:34:38.640Z,,,1,AV,1568.4879999998957,timeout,,,864803.1,864801.406,863232.927,863243.5000000001,863249.604,864818.092,,grey
Stimulus,canvas.Screen,2_29_0_1,2022-06-27T15:34:38.739Z,,,1,AV,98.93100000009872,timeout,,,864902.0000000001,864900.349,864801.406,864803.5000000001,864818.092,864917.023,,grey
Reaction,canvas.Screen,2_29_0_2,2022-06-27T15:34:38.881Z,,,1,AV,125.07699999993201,response,stim_detected,mousedown,865043.6,865042.1,864900.349,864902.4,864917.023,865050.853,,grey
Trial,flow.Sequence,2_29_0,2022-06-27T15:34:38.881Z,,,1,AV,1792.4959999999264,completion,,,865044.1,865042.1,863232.927,863243.4,863249.604,865050.853,,grey
Frame,canvas.Frame,2_29,2022-06-27T15:34:38.881Z,,,1,AV,1794.5960000000196,,,,865044.4,865044.2000000001,863232.927,863242.6,863249.604,865050.853,,grey
Fixation,canvas.Screen,2_30_0_0,2022-06-27T15:34:41.359Z,,,0,V,2486.6970000000438,timeout,,,867522.2999999999,867520.861,865034.175,865045.6,865050.853,867537.55,,grey
Stimulus,canvas.Screen,2_30_0_1,2022-06-27T15:34:41.457Z,,,0,V,97.8179999999702,timeout,,,867620.2999999999,867618.694,867520.861,867522.5000000001,867537.55,867635.368,,grey
Reaction,canvas.Screen,2_30_0_2,2022-06-27T15:34:41.599Z,,,0,V,124.73199999995995,response,stim_detected,mousedown,867761.6,867760.1,867618.694,867620.6,867635.368,867769.313,,grey
Trial,flow.Sequence,2_30_0,2022-06-27T15:34:41.599Z,,,0,V,2709.246999999974,completion,,,867762.1,867760.1,865034.175,865045.5000000001,865050.853,867769.313,,grey
Frame,canvas.Frame,2_30,2022-06-27T15:34:41.599Z,,,0,V,2711.347000000067,,,,867762.4,867762.2000000001,865034.175,865044.6,865050.853,867769.313,,grey
Fixation,canvas.Screen,2_31_0_0,2022-06-27T15:34:43.909Z,,,1,AV,2318.4070000000065,timeout,,,870072.2000000001,870071.041,867752.636,867763.6,867769.313,870087.72,,grey
Stimulus,canvas.Screen,2_31_0_1,2022-06-27T15:34:44.009Z,,,1,AV,100.00600000005215,timeout,,,870172.2999999999,870171.047,870071.041,870072.5000000001,870087.72,870187.726,,grey
Reaction,canvas.Screen,2_31_0_2,2022-06-27T15:34:44.152Z,,,1,AV,125.3739999999525,response,stim_detected,mousedown,870314.5000000001,870313.1,870171.047,870172.4,870187.726,870321.054,,grey
Trial,flow.Sequence,2_31_0,2022-06-27T15:34:44.152Z,,,1,AV,2543.787000000011,completion,,,870314.9,870313.1,867752.636,867763.5000000001,867769.313,870321.054,,grey
Frame,canvas.Frame,2_31,2022-06-27T15:34:44.152Z,,,1,AV,2545.787000000011,,,,870315.2999999999,870315.1,867752.636,867762.6,867769.313,870321.054,,grey
Fixation,canvas.Screen,2_32_0_0,2022-06-27T15:34:46.378Z,,,0,V,2235.832999999984,timeout,,,872541.4,872540.202,870304.377,870316.7000000001,870321.054,872556.887,,grey
Stimulus,canvas.Screen,2_32_0_1,2022-06-27T15:34:46.478Z,,,0,V,98.93599999998696,timeout,,,872640.5000000001,872639.147,872540.202,872541.7000000001,872556.887,872655.823,,grey
Reaction,canvas.Screen,2_32_0_2,2022-06-27T15:34:46.648Z,,,0,V,153.27700000000186,response,stim_detected,mousedown,872810.5000000001,872809.1,872639.147,872640.9,872655.823,872822.747,,grey
Trial,flow.Sequence,2_32_0,2022-06-27T15:34:46.648Z,,,0,V,2488.045999999973,completion,,,872810.9,872809.1,870304.377,870316.6,870321.054,872822.747,,grey
Frame,canvas.Frame,2_32,2022-06-27T15:34:46.648Z,,,0,V,2490.045999999973,,,,872811.2999999999,872811.1,870304.377,870315.5000000001,870321.054,872822.747,,grey
Fixation,canvas.Screen,2_33_0_0,2022-06-27T15:34:48.329Z,,,1,A,1684.0420000000158,timeout,,,874491.6,874490.115,872806.07,872812.5000000001,872822.747,874506.789,,black
Stimulus,canvas.Screen,2_33_0_1,2022-06-27T15:34:48.428Z,,,1,A,100.50600000005215,timeout,,,874591.5000000001,874590.617,874490.115,874492.0000000001,874506.789,874607.295,,black
Reaction,canvas.Screen,2_33_0_2,2022-06-27T15:34:48.571Z,,,1,A,124.7050000000745,response,stim_detected,mousedown,874733.6,874732.0000000001,874590.617,874591.7000000001,874607.295,874740.709,,black
Trial,flow.Sequence,2_33_0,2022-06-27T15:34:48.571Z,,,1,A,1909.2530000001425,completion,,,874733.9,874732.0000000001,872806.07,872812.2999999999,872822.747,874740.709,,black
Frame,canvas.Frame,2_33,2022-06-27T15:34:48.571Z,,,1,A,1911.3530000000028,,,,874734.2999999999,874734.1,872806.07,872811.5000000001,872822.747,874740.709,,black
Fixation,canvas.Screen,2_34_0_0,2022-06-27T15:34:50.681Z,,,0,V,2118.398999999976,timeout,,,876843.7000000001,876842.428,874724.032,874735.7999999999,874740.709,876859.108,,grey
Stimulus,canvas.Screen,2_34_0_1,2022-06-27T15:34:50.780Z,,,0,V,99.37800000002608,timeout,,,876942.7000000001,876941.811,876842.428,876843.9,876859.108,876958.486,,grey
Reaction,canvas.Screen,2_34_0_2,2022-06-27T15:34:50.943Z,,,0,V,145.6139999999432,response,stim_detected,mousedown,877105.5000000001,877104.1,876941.811,876943.0000000001,876958.486,877108.948,,grey
Trial,flow.Sequence,2_34_0,2022-06-27T15:34:50.943Z,,,0,V,2363.390999999945,completion,,,877106.0000000001,877104.1,874724.032,874735.7000000001,874740.709,877108.948,,grey
Frame,canvas.Frame,2_34,2022-06-27T15:34:50.943Z,,,0,V,2365.390999999945,,,,877106.2999999999,877106.1,874724.032,874734.5000000001,874740.709,877108.948,,grey
Fixation,canvas.Screen,2_35_0_0,2022-06-27T15:34:53.399Z,,,1,A,2468.3549999999814,timeout,,,879561.7999999999,879560.625,877092.271,877107.4,877108.948,879577.303,,black
Stimulus,canvas.Screen,2_35_0_1,2022-06-27T15:34:53.499Z,,,1,A,100.14500000001863,timeout,,,879661.7000000001,879660.77,879560.625,879562.0000000001,879577.303,879677.448,,black
Reaction,canvas.Screen,2_35_0_2,2022-06-27T15:34:53.631Z,,,1,A,114.65200000000186,response,stim_detected,mousedown,879793.6,879792.1,879660.77,879662.1,879677.448,879810.787,,black
Trial,flow.Sequence,2_35_0,2022-06-27T15:34:53.631Z,,,1,A,2683.152000000002,completion,,,879794.0000000001,879792.1,877092.271,877107.2999999999,877108.948,879810.787,,black
Frame,canvas.Frame,2_35,2022-06-27T15:34:53.631Z,,,1,A,2685.152000000002,,,,879794.2999999999,879794.1,877092.271,877106.5000000001,877108.948,879810.787,,black
Fixation,canvas.Screen,2_36_0_0,2022-06-27T15:34:55.883Z,,,1,AV,2250.9640000000363,timeout,,,882046.0000000001,882045.077,879794.11,879795.6,879810.787,882061.751,,grey
Stimulus,canvas.Screen,2_36_0_1,2022-06-27T15:34:55.984Z,,,1,AV,100.65099999995437,timeout,,,882147.1,882145.724,882045.077,882046.2999999999,882061.751,882162.402,,grey
Reaction,canvas.Screen,2_36_0_2,2022-06-27T15:34:56.120Z,,,1,AV,118.19799999997485,response,stim_detected,mousedown,882282.7000000001,882280.6,882145.724,882147.4,882162.402,882295.789,,grey
Trial,flow.Sequence,2_36_0,2022-06-27T15:34:56.120Z,,,1,AV,2469.8129999999655,completion,,,882283.1,882280.6,879794.11,879795.5000000001,879810.787,882295.789,,grey
Frame,canvas.Frame,2_36,2022-06-27T15:34:56.120Z,,,1,AV,2472.512999999919,,,,882283.5000000001,882283.2999999999,879794.11,879794.5000000001,879810.787,882295.789,,grey
Fixation,canvas.Screen,2_37_0_0,2022-06-27T15:34:58.387Z,,,0,V,2269.6759999999776,timeout,,,884550.2000000001,884548.776,882279.112,882285.1,882295.789,884565.465,,grey
Stimulus,canvas.Screen,2_37_0_1,2022-06-27T15:34:58.485Z,,,0,V,98.59900000004563,timeout,,,884648.2000000001,884646.845,884548.776,884550.6,884565.465,884664.064,,grey
Reaction,canvas.Screen,2_37_0_2,2022-06-27T15:34:58.749Z,,,0,V,245.93600000010338,response,stim_detected,mousedown,884911.7999999999,884910.0000000001,884646.845,884648.5000000001,884664.064,884914.234,,grey
Trial,flow.Sequence,2_37_0,2022-06-27T15:34:58.749Z,,,0,V,2614.2110000001267,completion,,,884912.2999999999,884910.0000000001,882279.112,882285.1,882295.789,884914.234,,grey
Frame,canvas.Frame,2_37,2022-06-27T15:34:58.750Z,,,0,V,2616.6110000000335,,,,884912.7000000001,884912.4,882279.112,882284.0000000001,882295.789,884914.234,,grey
Fixation,canvas.Screen,2_38_0_0,2022-06-27T15:35:00.587Z,,,1,AV,1851.3459999999031,timeout,,,886750.2000000001,886748.901,884897.556,884913.7999999999,884914.234,886765.58,,grey
Stimulus,canvas.Screen,2_38_0_1,2022-06-27T15:35:00.687Z,,,1,AV,99.82099999999627,timeout,,,886850.1,886848.725,886748.901,886750.5000000001,886765.58,886865.401,,grey
Reaction,canvas.Screen,2_38_0_2,2022-06-27T15:35:00.820Z,,,1,AV,116.59900000016205,response,stim_detected,mousedown,886983.4,886982.0000000001,886848.725,886850.4,886865.401,886998.914,,grey
Trial,flow.Sequence,2_38_0,2022-06-27T15:35:00.821Z,,,1,AV,2067.7660000000615,completion,,,886983.7000000001,886982.0000000001,884897.556,884913.7000000001,884914.234,886998.914,,grey
Frame,canvas.Frame,2_38,2022-06-27T15:35:00.821Z,,,1,AV,2069.6659999999683,,,,886984.1,886983.9,884897.556,884912.9,884914.234,886998.914,,grey
Fixation,canvas.Screen,2_39_0_0,2022-06-27T15:35:02.790Z,,,0,V,1969.3329999999842,timeout,,,888953.2999999999,888951.558,886982.237,886985.2000000001,886998.914,888968.247,,grey
Stimulus,canvas.Screen,2_39_0_1,2022-06-27T15:35:02.888Z,,,0,V,98.1830000000773,timeout,,,889051.2000000001,889049.757,888951.558,888953.5000000001,888968.247,889066.43,,grey
Reaction,canvas.Screen,2_39_0_2,2022-06-27T15:35:03.102Z,,,0,V,197.46999999997206,response,stim_detected,mousedown,889265.5000000001,889263.9,889049.757,889051.4,889066.43,889267.152,,grey
Trial,flow.Sequence,2_39_0,2022-06-27T15:35:03.103Z,,,0,V,2264.9860000000335,completion,,,889265.9,889263.9,886982.237,886985.1,886998.914,889267.152,,grey
Frame,canvas.Frame,2_39,2022-06-27T15:35:03.103Z,,,0,V,2267.185999999987,,,,889266.2999999999,889266.1,886982.237,886984.2999999999,886998.914,889267.152,,grey
Fixation,canvas.Screen,2_40_0_0,2022-06-27T15:35:04.689Z,,,0,V,1600.7560000000522,timeout,,,890852.2999999999,890851.233,889250.474,889267.5000000001,889267.152,890867.908,,grey
Stimulus,canvas.Screen,2_40_0_1,2022-06-27T15:35:04.790Z,,,0,V,100.39099999994505,timeout,,,890953.4,890951.621,890851.233,890852.6,890867.908,890968.299,,grey
Reaction,canvas.Screen,2_40_0_2,2022-06-27T15:35:04.964Z,,,0,V,157.60100000002421,response,stim_detected,mousedown,891127.2999999999,891125.9,890951.621,890953.7000000001,890968.299,891151.742,,grey
Trial,flow.Sequence,2_40_0,2022-06-27T15:35:04.965Z,,,0,V,1858.7480000000214,completion,,,891127.7000000001,891125.9,889250.474,889267.2999999999,889267.152,891151.742,,grey
Frame,canvas.Frame,2_40,2022-06-27T15:35:04.965Z,,,0,V,1860.7480000000214,,,,891128.0000000001,891127.9,889250.474,889266.4,889267.152,891151.742,,grey
Fixation,canvas.Screen,2_41_0_0,2022-06-27T15:35:06.659Z,,,1,A,1684.795000000042,timeout,,,892821.5000000001,892819.856,891118.388,891129.0000000001,891151.742,892836.537,,black
Stimulus,canvas.Screen,2_41_0_1,2022-06-27T15:35:06.757Z,,,1,A,99.75300000002608,timeout,,,892920.5000000001,892919.475,892819.856,892821.9,892836.537,892936.29,,black
Reaction,canvas.Screen,2_41_0_2,2022-06-27T15:35:06.914Z,,,1,A,139.60999999998603,response,stim_detected,mousedown,893077.4,893075.9,892919.475,892920.7000000001,892936.29,893086.383,,black
Trial,flow.Sequence,2_41_0,2022-06-27T15:35:06.915Z,,,1,A,1924.158000000054,completion,,,893077.9,893075.9,891118.388,891129.0000000001,891151.742,893086.383,,black
Frame,canvas.Frame,2_41,2022-06-27T15:35:06.915Z,,,1,A,1926.2580000001471,,,,893078.2999999999,893078.0000000001,891118.388,891128.2000000001,891151.742,893086.383,,black
Fixation,canvas.Screen,2_42_0_0,2022-06-27T15:35:09.360Z,,,0,V,2451.9959999999264,timeout,,,895522.7999999999,895521.699,893069.706,893080.7999999999,893086.383,895538.379,,grey
Stimulus,canvas.Screen,2_42_0_1,2022-06-27T15:35:09.459Z,,,0,V,99.48499999998603,timeout,,,895622.2999999999,895621.188,895521.699,895523.0000000001,895538.379,895637.864,,grey
Reaction,canvas.Screen,2_42_0_2,2022-06-27T15:35:09.670Z,,,0,V,194.0360000000801,response,stim_detected,mousedown,895833.5000000001,895831.9,895621.188,895622.4,895637.864,895838.217,,grey
Trial,flow.Sequence,2_42_0,2022-06-27T15:35:09.671Z,,,0,V,2745.5169999999925,completion,,,895833.9,895831.9,893069.706,893080.7000000001,893086.383,895838.217,,grey
Frame,canvas.Frame,2_42,2022-06-27T15:35:09.671Z,,,0,V,2747.6170000000857,,,,895834.2000000001,895834.0000000001,893069.706,893078.6,893086.383,895838.217,,grey
Fixation,canvas.Screen,2_43_0_0,2022-06-27T15:35:11.945Z,,,1,A,2284.908000000054,timeout,,,898107.7000000001,898106.447,895821.54,895835.2999999999,895838.217,898123.125,,black
Stimulus,canvas.Screen,2_43_0_1,2022-06-27T15:35:12.045Z,,,1,A,100.06299999996554,timeout,,,898207.7000000001,898206.51,898106.447,898107.9,898123.125,898223.188,,black
Reaction,canvas.Screen,2_43_0_2,2022-06-27T15:35:12.189Z,,,1,A,127.71200000005774,response,stim_detected,mousedown,898352.4,898350.9,898206.51,898208.0000000001,898223.188,898356.593,,black
Trial,flow.Sequence,2_43_0,2022-06-27T15:35:12.190Z,,,1,A,2512.6830000000773,completion,,,898352.9,898350.9,895821.54,895835.2999999999,895838.217,898356.593,,black
Frame,canvas.Frame,2_43,2022-06-27T15:35:12.190Z,,,1,A,2514.8830000000307,,,,898353.2000000001,898353.1,895821.54,895834.4,895838.217,898356.593,,black
Fixation,canvas.Screen,2_44_0_0,2022-06-27T15:35:13.814Z,,,1,AV,1635.1940000000177,timeout,,,899976.7999999999,899975.102,898339.916,898354.4,898356.593,899991.787,,grey
Stimulus,canvas.Screen,2_44_0_1,2022-06-27T15:35:13.913Z,,,1,AV,99.03099999995902,timeout,,,900075.9,900074.143,899975.102,899977.1,899991.787,900090.818,,grey
Reaction,canvas.Screen,2_44_0_2,2022-06-27T15:35:14.061Z,,,1,AV,132.08200000005309,response,stim_detected,mousedown,900224.4,900222.9,900074.143,900076.1,900090.818,900241.19,,grey
Trial,flow.Sequence,2_44_0,2022-06-27T15:35:14.062Z,,,1,AV,1866.3070000000298,completion,,,900224.7999999999,900222.9,898339.916,898354.2999999999,898356.593,900241.19,,grey
Frame,canvas.Frame,2_44,2022-06-27T15:35:14.062Z,,,1,AV,1868.407000000123,,,,900225.2000000001,900225.0000000001,898339.916,898353.4,898356.593,900241.19,,grey
Fixation,canvas.Screen,2_45_0_0,2022-06-27T15:35:15.648Z,,,1,AV,1584.7480000000214,timeout,,,901811.2000000001,901809.257,900224.513,900226.1,900241.19,901825.938,,grey
Stimulus,canvas.Screen,2_45_0_1,2022-06-27T15:35:15.747Z,,,1,AV,99.28700000001118,timeout,,,901909.9,901908.552,901809.257,901811.5000000001,901825.938,901925.225,,grey
Reaction,canvas.Screen,2_45_0_2,2022-06-27T15:35:15.864Z,,,1,AV,100.57499999995343,response,stim_detected,mousedown,902027.4,902025.7999999999,901908.552,901910.2000000001,901925.225,902042.415,,grey
Trial,flow.Sequence,2_45_0,2022-06-27T15:35:15.865Z,,,1,AV,1784.609999999986,completion,,,902027.9,902025.7999999999,900224.513,900226.1,900241.19,902042.415,,grey
Frame,canvas.Frame,2_45,2022-06-27T15:35:15.865Z,,,1,AV,1786.8100000001723,,,,902028.2000000001,902028.0000000001,900224.513,900225.2999999999,900241.19,902042.415,,grey
Fixation,canvas.Screen,2_46_0_0,2022-06-27T15:35:17.931Z,,,1,AV,2067.2789999999804,timeout,,,904094.1,904093.022,902025.737,902029.4,902042.415,904109.694,,grey
Stimulus,canvas.Screen,2_46_0_1,2022-06-27T15:35:18.032Z,,,1,AV,100.91700000001583,timeout,,,904195.0000000001,904193.93,904093.022,904094.2999999999,904109.694,904210.611,,grey
Reaction,canvas.Screen,2_46_0_2,2022-06-27T15:35:18.174Z,,,1,AV,125.18899999989662,response,stim_detected,mousedown,904337.4,904335.7999999999,904193.93,904195.2000000001,904210.611,904343.93,,grey
Trial,flow.Sequence,2_46_0,2022-06-27T15:35:18.175Z,,,1,AV,2293.384999999893,completion,,,904337.7999999999,904335.7999999999,902025.737,902029.2999999999,902042.415,904343.93,,grey
Frame,canvas.Frame,2_46,2022-06-27T15:35:18.175Z,,,1,AV,2295.484999999986,,,,904338.1,904337.9,902025.737,902028.4,902042.415,904343.93,,grey
Fixation,canvas.Screen,2_47_0_0,2022-06-27T15:35:19.751Z,,,0,V,1585.1999999999534,timeout,,,905914.2000000001,905912.444,904327.253,904339.2000000001,904343.93,905929.13,,grey
Stimulus,canvas.Screen,2_47_0_1,2022-06-27T15:35:19.850Z,,,0,V,99.22999999998137,timeout,,,906013.2999999999,906011.683,905912.444,905914.4,905929.13,906028.36,,grey
Reaction,canvas.Screen,2_47_0_2,2022-06-27T15:35:20.040Z,,,0,V,173.54000000003725,response,stim_detected,mousedown,906203.2999999999,906201.9,906011.683,906013.5000000001,906028.36,906211.863,,grey
Trial,flow.Sequence,2_47_0,2022-06-27T15:35:20.041Z,,,0,V,1857.969999999972,completion,,,906203.7000000001,906201.9,904327.253,904339.1,904343.93,906211.863,,grey
Frame,canvas.Frame,2_47,2022-06-27T15:35:20.041Z,,,0,V,1859.869999999879,,,,906204.0000000001,906203.7999999999,904327.253,904338.2999999999,904343.93,906211.863,,grey
Fixation,canvas.Screen,2_48_0_0,2022-06-27T15:35:21.668Z,,,1,AV,1634.4579999999842,timeout,,,907831.2000000001,907829.643,906195.186,906205.2999999999,906211.863,907846.321,,grey
Stimulus,canvas.Screen,2_48_0_1,2022-06-27T15:35:21.768Z,,,1,AV,99.77599999995437,timeout,,,907931.2999999999,907929.422,907829.643,907831.7000000001,907846.321,907946.097,,grey
Reaction,canvas.Screen,2_48_0_2,2022-06-27T15:35:21.898Z,,,1,AV,113.70299999997951,response,stim_detected,mousedown,908061.4,908059.7999999999,907929.422,907931.5000000001,907946.097,908063.121,,grey
Trial,flow.Sequence,2_48_0,2022-06-27T15:35:21.899Z,,,1,AV,1847.936999999918,completion,,,908061.7000000001,908059.7999999999,906195.186,906205.2999999999,906211.863,908063.121,,grey
Frame,canvas.Frame,2_48,2022-06-27T15:35:21.899Z,,,1,AV,1850.0370000000112,,,,908062.0000000001,908061.9,906195.186,906204.2000000001,906211.863,908063.121,,grey
Fixation,canvas.Screen,2_49_0_0,2022-06-27T15:35:24.220Z,,,0,V,2335.682999999961,timeout,,,910383.5000000001,910382.121,908046.443,908063.2999999999,908063.121,910398.804,,grey
Stimulus,canvas.Screen,2_49_0_1,2022-06-27T15:35:24.320Z,,,0,V,99.07400000002235,timeout,,,910482.5000000001,910481.202,910382.121,910383.7000000001,910398.804,910497.878,,grey
Reaction,canvas.Screen,2_49_0_2,2022-06-27T15:35:24.504Z,,,0,V,167.0219999999972,response,stim_detected,mousedown,910667.0000000001,910664.9,910481.202,910482.7999999999,910497.878,910681.504,,grey
Trial,flow.Sequence,2_49_0,2022-06-27T15:35:24.504Z,,,0,V,2601.7789999999804,completion,,,910667.4,910664.9,908046.443,908063.1,908063.121,910681.504,,grey
Frame,canvas.Frame,2_49,2022-06-27T15:35:24.505Z,,,0,V,2604.478999999934,,,,910667.9,910667.6,908046.443,908062.2000000001,908063.121,910681.504,,grey
Fixation,canvas.Screen,2_50_0_0,2022-06-27T15:35:26.172Z,,,1,AV,1668.8420000000624,timeout,,,912335.5000000001,912333.659,910664.827,910668.9,910681.504,912350.346,,grey
Stimulus,canvas.Screen,2_50_0_1,2022-06-27T15:35:26.270Z,,,1,AV,98.76699999999255,timeout,,,912433.5000000001,912432.438,912333.659,912335.7000000001,912350.346,912449.113,,grey
Reaction,canvas.Screen,2_50_0_2,2022-06-27T15:35:26.442Z,,,1,AV,154.78700000001118,response,stim_detected,mousedown,912605.2999999999,912603.9,912432.438,912433.7000000001,912449.113,912616.216,,grey
Trial,flow.Sequence,2_50_0,2022-06-27T15:35:26.443Z,,,1,AV,1922.3960000000661,completion,,,912605.6,912603.9,910664.827,910668.7999999999,910681.504,912616.216,,grey
Frame,canvas.Frame,2_50,2022-06-27T15:35:26.443Z,,,1,AV,1924.295999999973,,,,912606.0000000001,912605.7999999999,910664.827,910668.1,910681.504,912616.216,,grey
Fixation,canvas.Screen,2_51_0_0,2022-06-27T15:35:28.188Z,,,1,A,1749.8969999999972,timeout,,,914350.5000000001,914349.446,912599.538,912607.0000000001,912616.216,914366.113,,black
Stimulus,canvas.Screen,2_51_0_1,2022-06-27T15:35:28.290Z,,,1,A,101.39099999994505,timeout,,,914452.5000000001,914450.824,914349.446,914350.7999999999,914366.113,914467.504,,black
Reaction,canvas.Screen,2_51_0_2,2022-06-27T15:35:28.472Z,,,1,A,165.39600000006612,response,stim_detected,mousedown,914634.2000000001,914632.9,914450.824,914452.7999999999,914467.504,914650.874,,black
Trial,flow.Sequence,2_51_0,2022-06-27T15:35:28.473Z,,,1,A,2016.6840000000084,completion,,,914634.7000000001,914632.9,912599.538,912606.9,912616.216,914650.874,,black
Frame,canvas.Frame,2_51,2022-06-27T15:35:28.473Z,,,1,A,2018.484000000055,,,,914635.0000000001,914634.7000000001,912599.538,912606.1,912616.216,914650.874,,black
Fixation,canvas.Screen,2_52_0_0,2022-06-27T15:35:30.109Z,,,1,AV,1635.113000000012,timeout,,,916270.7000000001,916269.303,914634.197,914635.9,914650.874,916285.987,,grey
Stimulus,canvas.Screen,2_52_0_1,2022-06-27T15:35:30.208Z,,,1,AV,98.95299999997951,timeout,,,916369.7000000001,916368.267,916269.303,916271.0000000001,916285.987,916384.94,,grey
Reaction,canvas.Screen,2_52_0_2,2022-06-27T15:35:30.359Z,,,1,AV,135.0600000001723,response,stim_detected,mousedown,916521.4,916520.0000000001,916368.267,916369.9,916384.94,916535.487,,grey
Trial,flow.Sequence,2_52_0,2022-06-27T15:35:30.360Z,,,1,AV,1869.126000000164,completion,,,916521.7000000001,916520.0000000001,914634.197,914635.9,914650.874,916535.487,,grey
Frame,canvas.Frame,2_52,2022-06-27T15:35:30.360Z,,,1,AV,1871.0260000000708,,,,916522.1,916521.9,914634.197,914635.1,914650.874,916535.487,,grey
Fixation,canvas.Screen,2_53_0_0,2022-06-27T15:35:32.810Z,,,0,V,2451.667000000016,timeout,,,918971.9,918970.476,916518.809,916523.1,916535.487,918987.154,,grey
Stimulus,canvas.Screen,2_53_0_1,2022-06-27T15:35:32.910Z,,,0,V,99.79599999997299,timeout,,,919071.7999999999,919070.274,918970.476,918972.2000000001,918987.154,919086.95,,grey
Reaction,canvas.Screen,2_53_0_2,2022-06-27T15:35:33.105Z,,,0,V,178.84999999997672,response,stim_detected,mousedown,919267.2999999999,919265.7999999999,919070.274,919072.1,919086.95,919270.629,,grey
Trial,flow.Sequence,2_53_0,2022-06-27T15:35:33.106Z,,,0,V,2730.3129999999655,completion,,,919267.7999999999,919265.7999999999,916518.809,916523.0000000001,916535.487,919270.629,,grey
Frame,canvas.Frame,2_53,2022-06-27T15:35:33.106Z,,,0,V,2732.513000000152,,,,919268.2000000001,919268.0000000001,916518.809,916522.2000000001,916535.487,919270.629,,grey
Fixation,canvas.Screen,2_54_0_0,2022-06-27T15:35:34.678Z,,,0,V,1584.8660000000382,timeout,,,920839.7999999999,920838.813,919253.952,919269.4,919270.629,920855.495,,grey
Stimulus,canvas.Screen,2_54_0_1,2022-06-27T15:35:34.778Z,,,0,V,99.56299999996554,timeout,,,920939.6,920938.381,920838.813,920840.1,920855.495,920955.058,,grey
Reaction,canvas.Screen,2_54_0_2,2022-06-27T15:35:35.006Z,,,0,V,211.74199999996927,response,stim_detected,mousedown,921168.2999999999,921166.7999999999,920938.381,920939.7999999999,920955.058,921171.914,,grey
Trial,flow.Sequence,2_54_0,2022-06-27T15:35:35.007Z,,,0,V,1896.170999999973,completion,,,921168.7000000001,921166.7999999999,919253.952,919269.2999999999,919270.629,921171.914,,grey
Frame,canvas.Frame,2_54,2022-06-27T15:35:35.007Z,,,0,V,1898.170999999973,,,,921169.0000000001,921168.7999999999,919253.952,919268.4,919270.629,921171.914,,grey
Fixation,canvas.Screen,2_55_0_0,2022-06-27T15:35:37.013Z,,,0,V,2018.8789999999572,timeout,,,923175.0000000001,923174.109,921155.237,921170.1,921171.914,923190.793,,grey
Stimulus,canvas.Screen,2_55_0_1,2022-06-27T15:35:37.113Z,,,0,V,99.25400000007357,timeout,,,923275.0000000001,923273.331,923174.109,923175.2000000001,923190.793,923290.047,,grey
Reaction,canvas.Screen,2_55_0_2,2022-06-27T15:35:37.265Z,,,0,V,134.75299999990966,response,stim_detected,mousedown,923426.9,923424.7999999999,923273.331,923275.2999999999,923290.047,923440.14,,grey
Trial,flow.Sequence,2_55_0,2022-06-27T15:35:37.265Z,,,0,V,2252.8859999999404,completion,,,923427.2999999999,923424.7999999999,921155.237,921170.0000000001,921171.914,923440.14,,grey
Frame,canvas.Frame,2_55,2022-06-27T15:35:37.266Z,,,0,V,2255.5860000001267,,,,923427.6,923427.5000000001,921155.237,921169.1,921171.914,923440.14,,grey
Fixation,canvas.Screen,2_56_0_0,2022-06-27T15:35:38.764Z,,,0,V,1501.2369999999646,timeout,,,924926.2000000001,924924.697,923423.463,923428.7999999999,923440.14,924941.377,,grey
Stimulus,canvas.Screen,2_56_0_1,2022-06-27T15:35:38.864Z,,,0,V,99.82700000004843,timeout,,,925025.7000000001,925024.527,924924.697,924926.4,924941.377,925041.204,,grey
Reaction,canvas.Screen,2_56_0_2,2022-06-27T15:35:39.069Z,,,0,V,188.59599999990314,response,stim_detected,mousedown,925231.2000000001,925229.7999999999,925024.527,925025.7999999999,925041.204,925241.357,,grey
Trial,flow.Sequence,2_56_0,2022-06-27T15:35:39.070Z,,,0,V,1789.6599999999162,completion,,,925231.7000000001,925229.7999999999,923423.463,923428.7000000001,923440.14,925241.357,,grey
Frame,canvas.Frame,2_56,2022-06-27T15:35:39.070Z,,,0,V,1791.5600000000559,,,,925232.0000000001,925231.7000000001,923423.463,923427.7999999999,923440.14,925241.357,,grey
Fixation,canvas.Screen,2_57_0_0,2022-06-27T15:35:41.449Z,,,0,V,2384.8120000000345,timeout,,,927611.2000000001,927609.492,925224.68,925233.1,925241.357,927626.169,,grey
Stimulus,canvas.Screen,2_57_0_1,2022-06-27T15:35:41.549Z,,,0,V,100.15700000000652,timeout,,,927711.2000000001,927709.649,927609.492,927611.5000000001,927626.169,927726.326,,grey
Reaction,canvas.Screen,2_57_0_2,2022-06-27T15:35:41.720Z,,,0,V,154.47399999992922,response,stim_detected,mousedown,927882.2999999999,927880.7999999999,927709.649,927711.5000000001,927726.326,927893.147,,grey
Trial,flow.Sequence,2_57_0,2022-06-27T15:35:41.721Z,,,0,V,2639.44299999997,completion,,,927882.7000000001,927880.7999999999,925224.68,925233.0000000001,925241.357,927893.147,,grey
Frame,canvas.Frame,2_57,2022-06-27T15:35:41.721Z,,,0,V,2641.44299999997,,,,927883.0000000001,927882.7999999999,925224.68,925232.1,925241.357,927893.147,,grey
Fixation,canvas.Screen,2_58_0_0,2022-06-27T15:35:43.866Z,,,1,A,2151.060999999987,timeout,,,930028.4,930027.533,927876.47,927884.2000000001,927893.147,930044.208,,black
Stimulus,canvas.Screen,2_58_0_1,2022-06-27T15:35:43.967Z,,,1,A,100.28899999998976,timeout,,,930129.5000000001,930127.821,930027.533,930028.7000000001,930044.208,930144.497,,black
Reaction,canvas.Screen,2_58_0_2,2022-06-27T15:35:44.183Z,,,1,A,199.30299999995623,response,stim_detected,mousedown,930345.2000000001,930343.7999999999,930127.821,930129.6,930144.497,930361.421,,black
Trial,flow.Sequence,2_58_0,2022-06-27T15:35:44.184Z,,,1,A,2450.652999999933,completion,,,930345.6,930343.7999999999,927876.47,927884.0000000001,927893.147,930361.421,,black
Frame,canvas.Frame,2_58,2022-06-27T15:35:44.184Z,,,1,A,2452.5530000000726,,,,930345.9,930345.7000000001,927876.47,927883.2000000001,927893.147,930361.421,,black
Fixation,canvas.Screen,2_59_0_0,2022-06-27T15:35:46.538Z,,,0,V,2353.2029999999795,timeout,,,932699.7999999999,932697.935,930344.744,930347.2999999999,930361.421,932714.624,,grey
Stimulus,canvas.Screen,2_59_0_1,2022-06-27T15:35:46.635Z,,,0,V,98.5240000000922,timeout,,,932797.2000000001,932796.47,932697.935,932700.1,932714.624,932813.148,,grey
Reaction,canvas.Screen,2_59_0_2,2022-06-27T15:35:46.803Z,,,0,V,150.451999999932,response,stim_detected,mousedown,932965.2999999999,932963.6,932796.47,932797.4,932813.148,932979.881,,grey
Trial,flow.Sequence,2_59_0,2022-06-27T15:35:46.804Z,,,0,V,2602.1790000000037,completion,,,932965.7999999999,932963.6,930344.744,930347.2000000001,930361.421,932979.881,,grey
Frame,canvas.Frame,2_59,2022-06-27T15:35:46.804Z,,,0,V,2604.4790000000503,,,,932966.1,932965.9,930344.744,930346.1,930361.421,932979.881,,grey
Fixation,canvas.Screen,2_60_0_0,2022-06-27T15:35:49.020Z,,,1,AV,2217.4659999998985,timeout,,,935181.6,935180.674,932963.204,932967.2000000001,932979.881,935197.347,,grey
Stimulus,canvas.Screen,2_60_0_1,2022-06-27T15:35:49.121Z,,,1,AV,100.81800000008661,timeout,,,935282.6,935281.487,935180.674,935181.9,935197.347,935298.165,,grey
Reaction,canvas.Screen,2_60_0_2,2022-06-27T15:35:49.256Z,,,1,AV,118.6349999998929,response,stim_detected,mousedown,935418.2999999999,935416.7999999999,935281.487,935282.9,935298.165,935431.533,,grey
Trial,flow.Sequence,2_60_0,2022-06-27T15:35:49.257Z,,,1,AV,2436.918999999878,completion,,,935418.7999999999,935416.7999999999,932963.204,932967.2000000001,932979.881,935431.533,,grey
Frame,canvas.Frame,2_60,2022-06-27T15:35:49.257Z,,,1,AV,2439.018999999971,,,,935419.0000000001,935418.9,932963.204,932966.4,932979.881,935431.533,,grey
Fixation,canvas.Screen,2_61_0_0,2022-06-27T15:35:51.256Z,,,1,AV,2002.0259999999544,timeout,,,937417.9,937416.876,935414.856,935420.2999999999,935431.533,937433.559,,grey
Stimulus,canvas.Screen,2_61_0_1,2022-06-27T15:35:51.356Z,,,1,AV,99.32099999999627,timeout,,,937517.7999999999,937516.203,937416.876,937418.1,937433.559,937532.88,,grey
Reaction,canvas.Screen,2_61_0_2,2022-06-27T15:35:51.490Z,,,1,AV,117.9199999999255,response,stim_detected,mousedown,937652.2000000001,937650.7999999999,937516.203,937518.1,937532.88,937666.365,,grey
Trial,flow.Sequence,2_61_0,2022-06-27T15:35:51.490Z,,,1,AV,2219.266999999876,completion,,,937652.5000000001,937650.7999999999,935414.856,935420.2000000001,935431.533,937666.365,,grey
Frame,canvas.Frame,2_61,2022-06-27T15:35:51.491Z,,,1,AV,2221.0669999999227,,,,937652.7999999999,937652.6,935414.856,935419.2999999999,935431.533,937666.365,,grey
Fixation,canvas.Screen,2_62_0_0,2022-06-27T15:35:53.574Z,,,1,A,2085.131000000052,timeout,,,939736.1,939734.815,937649.688,937653.7999999999,937666.365,939751.496,,black
Stimulus,canvas.Screen,2_62_0_1,2022-06-27T15:35:53.673Z,,,1,A,98.93199999991339,timeout,,,939834.9,939833.756,939734.815,939736.4,939751.496,939850.428,,black
Reaction,canvas.Screen,2_62_0_2,2022-06-27T15:35:53.819Z,,,1,A,129.27200000011362,response,stim_detected,mousedown,939981.2999999999,939979.7000000001,939833.756,939835.1,939850.428,939984.582,,black
Trial,flow.Sequence,2_62_0,2022-06-27T15:35:53.820Z,,,1,A,2313.335000000079,completion,,,939981.7999999999,939979.7000000001,937649.688,937653.7999999999,937666.365,939984.582,,black
Frame,canvas.Frame,2_62,2022-06-27T15:35:53.820Z,,,1,A,2315.5350000000326,,,,939982.1,939981.9,937649.688,937653.1,937666.365,939984.582,,black
Fixation,canvas.Screen,2_63_0_0,2022-06-27T15:35:55.893Z,,,1,AV,2085.8139999998966,timeout,,,942055.0000000001,942053.71,939967.904,939983.2999999999,939984.582,942070.396,,grey
Stimulus,canvas.Screen,2_63_0_1,2022-06-27T15:35:55.992Z,,,1,AV,98.8650000001071,timeout,,,942154.0000000001,942152.585,942053.71,942055.2000000001,942070.396,942169.261,,grey
Reaction,canvas.Screen,2_63_0_2,2022-06-27T15:35:56.134Z,,,1,AV,125.3389999999199,response,stim_detected,mousedown,942296.1,942294.6,942152.585,942154.2000000001,942169.261,942302.828,,grey
Trial,flow.Sequence,2_63_0,2022-06-27T15:35:56.135Z,,,1,AV,2310.0179999999236,completion,,,942296.7000000001,942294.6,939967.904,939983.2999999999,939984.582,942302.828,,grey
Frame,canvas.Frame,2_63,2022-06-27T15:35:56.135Z,,,1,AV,2312.31799999997,,,,942297.1,942296.9,939967.904,939982.4,939984.582,942302.828,,grey
Fixation,canvas.Screen,2_64_0_0,2022-06-27T15:35:58.360Z,,,0,V,2234.7249999999767,timeout,,,944522.1,944520.876,942286.151,942298.2999999999,942302.828,944537.553,,grey
Stimulus,canvas.Screen,2_64_0_1,2022-06-27T15:35:58.460Z,,,0,V,100.26100000005681,timeout,,,944622.4,944621.136,944520.876,944522.2999999999,944537.553,944637.814,,grey
Reaction,canvas.Screen,2_64_0_2,2022-06-27T15:35:58.862Z,,,0,V,384.8860000000568,response,stim_detected,mousedown,945024.2999999999,945022.7000000001,944621.136,944622.7000000001,944637.814,945037.998,,grey
Trial,flow.Sequence,2_64_0,2022-06-27T15:35:58.863Z,,,0,V,2719.8720000000903,completion,,,945024.7000000001,945022.7000000001,942286.151,942298.2000000001,942302.828,945037.998,,grey
Frame,canvas.Frame,2_64,2022-06-27T15:35:58.863Z,,,0,V,2721.9719999999506,,,,945025.0000000001,945024.7999999999,942286.151,942297.2000000001,942302.828,945037.998,,grey
Fixation,canvas.Screen,2_65_0_0,2022-06-27T15:36:00.661Z,,,1,A,1800.7110000000102,timeout,,,946823.2000000001,946822.035,945021.321,945026.5000000001,945037.998,946838.709,,black
Stimulus,canvas.Screen,2_65_0_1,2022-06-27T15:36:00.762Z,,,1,A,100.58600000001024,timeout,,,946924.2000000001,946922.613,946822.035,946823.5000000001,946838.709,946939.295,,black
Reaction,canvas.Screen,2_65_0_2,2022-06-27T15:36:00.934Z,,,1,A,154.50499999988824,response,stim_detected,mousedown,947095.7999999999,947093.7999999999,946922.613,946924.4,946939.295,947106.065,,black
Trial,flow.Sequence,2_65_0,2022-06-27T15:36:00.934Z,,,1,A,2055.8019999999087,completion,,,947096.2000000001,947093.7999999999,945021.321,945026.2000000001,945037.998,947106.065,,black
Frame,canvas.Frame,2_65,2022-06-27T15:36:00.935Z,,,1,A,2058.402000000002,,,,947096.7000000001,947096.4,945021.321,945025.2000000001,945037.998,947106.065,,black
Fixation,canvas.Screen,2_66_0_0,2022-06-27T15:36:02.445Z,,,1,A,1516.9920000000857,timeout,,,948607.2000000001,948606.386,947089.388,947097.7000000001,947106.065,948623.057,,black
Stimulus,canvas.Screen,2_66_0_1,2022-06-27T15:36:02.546Z,,,1,A,100.83799999998882,timeout,,,948708.2999999999,948707.216,948606.386,948607.6,948623.057,948723.895,,black
Reaction,canvas.Screen,2_66_0_2,2022-06-27T15:36:02.690Z,,,1,A,126.80500000005122,response,stim_detected,mousedown,948852.1,948850.7000000001,948707.216,948708.6,948723.895,948857.221,,black
Trial,flow.Sequence,2_66_0,2022-06-27T15:36:02.690Z,,,1,A,1744.6350000001257,completion,,,948852.5000000001,948850.7000000001,947089.388,947097.7000000001,947106.065,948857.221,,black
Frame,canvas.Frame,2_66,2022-06-27T15:36:02.691Z,,,1,A,1746.5350000000326,,,,948852.7999999999,948852.6,947089.388,947096.9,947106.065,948857.221,,black
Fixation,canvas.Screen,2_67_0_0,2022-06-27T15:36:04.958Z,,,1,A,2251.9830000000075,timeout,,,951120.4,951092.523,948840.544,948853.9,948857.221,951109.204,,black
Stimulus,canvas.Screen,2_67_0_1,2022-06-27T15:36:05.031Z,,,1,A,99.1359999999404,timeout,,,951193.5000000001,951191.666,951092.523,951120.7999999999,951109.204,951208.34,,black
Reaction,canvas.Screen,2_67_0_2,2022-06-27T15:36:05.290Z,,,1,A,242.2600000000093,response,stim_detected,mousedown,951452.4,951450.6,951191.666,951193.7000000001,951208.34,951458.93,,black
Trial,flow.Sequence,2_67_0,2022-06-27T15:36:05.291Z,,,1,A,2593.378999999957,completion,,,951452.9,951450.6,948840.544,948853.7999999999,948857.221,951458.93,,black
Frame,canvas.Frame,2_67,2022-06-27T15:36:05.291Z,,,1,A,2595.779000000097,,,,951453.2000000001,951453.0000000001,948840.544,948853.0000000001,948857.221,951458.93,,black
Fixation,canvas.Screen,2_68_0_0,2022-06-27T15:36:07.001Z,,,1,A,1718.6629999999423,timeout,,,953162.6,953160.908,951442.253,951454.4,951458.93,953177.593,,black
Stimulus,canvas.Screen,2_68_0_1,2022-06-27T15:36:07.100Z,,,1,A,99.12800000002608,timeout,,,953261.5000000001,953260.045,953160.908,953162.7999999999,953177.593,953276.721,,black
Reaction,canvas.Screen,2_68_0_2,2022-06-27T15:36:07.328Z,,,1,A,211.87899999995716,response,stim_detected,mousedown,953490.0000000001,953488.6,953260.045,953261.7999999999,953276.721,953493.683,,black
Trial,flow.Sequence,2_68_0,2022-06-27T15:36:07.328Z,,,1,A,2029.6699999999255,completion,,,953490.5000000001,953488.6,951442.253,951454.2999999999,951458.93,953493.683,,black
Frame,canvas.Frame,2_68,2022-06-27T15:36:07.329Z,,,1,A,2031.6699999999255,,,,953490.7999999999,953490.6,951442.253,951453.4,951458.93,953493.683,,black
Fixation,canvas.Screen,2_69_0_0,2022-06-27T15:36:09.603Z,,,1,A,2286.0069999999832,timeout,,,955764.7999999999,955763.004,953477.005,953491.7999999999,953493.683,955779.69,,black
Stimulus,canvas.Screen,2_69_0_1,2022-06-27T15:36:09.701Z,,,1,A,98.95100000000093,timeout,,,955862.9,955861.867,955763.004,955765.1,955779.69,955878.641,,black
Reaction,canvas.Screen,2_69_0_2,2022-06-27T15:36:09.877Z,,,1,A,159.0590000001248,response,stim_detected,mousedown,956039.1,956037.7000000001,955861.867,955863.1,955878.641,956045.411,,black
Trial,flow.Sequence,2_69_0,2022-06-27T15:36:09.877Z,,,1,A,2544.017000000109,completion,,,956039.4,956037.7000000001,953477.005,953491.7999999999,953493.683,956045.411,,black
Frame,canvas.Frame,2_69,2022-06-27T15:36:09.878Z,,,1,A,2545.917000000016,,,,956039.7999999999,956039.6,953477.005,953490.9,953493.683,956045.411,,black
Fixation,canvas.Screen,2_70_0_0,2022-06-27T15:36:11.652Z,,,0,V,1783.9620000000577,timeout,,,957813.7999999999,957812.7,956028.734,956040.9,956045.411,957829.373,,grey
Stimulus,canvas.Screen,2_70_0_1,2022-06-27T15:36:11.753Z,,,0,V,100.32299999997485,timeout,,,957914.7999999999,957913.021,957812.7,957814.1,957829.373,957929.696,,grey
Reaction,canvas.Screen,2_70_0_2,2022-06-27T15:36:11.964Z,,,0,V,194.90399999998044,response,stim_detected,mousedown,958126.2000000001,958124.6,957913.021,957915.4,957929.696,958146.826,,grey
Trial,flow.Sequence,2_70_0,2022-06-27T15:36:11.965Z,,,0,V,2079.189000000013,completion,,,958126.6,958124.6,956028.734,956040.7999999999,956045.411,958146.826,,grey
Frame,canvas.Frame,2_70,2022-06-27T15:36:11.965Z,,,0,V,2081.3889999999665,,,,958127.0000000001,958126.7999999999,956028.734,956040.0000000001,956045.411,958146.826,,grey
Fixation,canvas.Screen,2_71_0_0,2022-06-27T15:36:14.388Z,,,0,V,2418.9440000000177,timeout,,,960550.0000000001,960549.088,958113.47,958128.1,958146.826,960565.77,,grey
Stimulus,canvas.Screen,2_71_0_1,2022-06-27T15:36:14.488Z,,,0,V,99.17700000002515,timeout,,,960650.0000000001,960648.271,960549.088,960550.6,960565.77,960664.947,,grey
Reaction,canvas.Screen,2_71_0_2,2022-06-27T15:36:14.681Z,,,0,V,176.65299999993294,response,stim_detected,mousedown,960843.1,960841.6,960648.271,960650.2000000001,960664.947,960848.598,,grey
Trial,flow.Sequence,2_71_0,2022-06-27T15:36:14.681Z,,,0,V,2694.773999999976,completion,,,960843.5000000001,960841.6,958113.47,958128.0000000001,958146.826,960848.598,,grey
Frame,canvas.Frame,2_71,2022-06-27T15:36:14.682Z,,,0,V,2696.6740000001155,,,,960843.7999999999,960843.5000000001,958113.47,958127.1,958146.826,960848.598,,grey
Fixation,canvas.Screen,2_72_0_0,2022-06-27T15:36:17.041Z,,,0,V,2370.076000000001,timeout,,,963203.1,963201.984,960831.921,960844.7999999999,960848.598,963218.674,,grey
Stimulus,canvas.Screen,2_72_0_1,2022-06-27T15:36:17.139Z,,,0,V,98.30000000004657,timeout,,,963301.0000000001,963299.958,963201.984,963203.2999999999,963218.674,963316.974,,grey
Reaction,canvas.Screen,2_72_0_2,2022-06-27T15:36:17.299Z,,,0,V,142.62599999993108,response,stim_detected,mousedown,963461.0000000001,963459.6,963299.958,963301.2999999999,963316.974,963467.067,,grey
Trial,flow.Sequence,2_72_0,2022-06-27T15:36:17.299Z,,,0,V,2611.0019999999786,completion,,,963461.4,963459.6,960831.921,960844.7000000001,960848.598,963467.067,,grey
Frame,canvas.Frame,2_72,2022-06-27T15:36:17.300Z,,,0,V,2612.9020000001183,,,,963461.7000000001,963461.5000000001,960831.921,960844.0000000001,960848.598,963467.067,,grey
Fixation,canvas.Screen,2_73_0_0,2022-06-27T15:36:19.008Z,,,1,A,1718.189000000013,timeout,,,965170.2000000001,965168.575,963450.39,963462.9,963467.067,965185.256,,black
Stimulus,canvas.Screen,2_73_0_1,2022-06-27T15:36:19.107Z,,,1,A,99.18999999994412,timeout,,,965269.1,965267.773,965168.575,965170.4,965185.256,965284.446,,black
Reaction,canvas.Screen,2_73_0_2,2022-06-27T15:36:19.429Z,,,1,A,305.05400000012014,response,stim_detected,mousedown,965591.1,965589.5000000001,965267.773,965269.4,965284.446,965601.843,,black
Trial,flow.Sequence,2_73_0,2022-06-27T15:36:19.429Z,,,1,A,2122.4330000000773,completion,,,965591.5000000001,965589.5000000001,963450.39,963462.7000000001,963467.067,965601.843,,black
Frame,canvas.Frame,2_73,2022-06-27T15:36:19.430Z,,,1,A,2124.5329999999376,,,,965591.7999999999,965591.6,963450.39,963461.9,963467.067,965601.843,,black
Fixation,canvas.Screen,2_74_0_0,2022-06-27T15:36:21.275Z,,,0,V,1850.332000000053,timeout,,,967437.2000000001,967435.504,965585.165,965592.9,965601.843,967452.175,,grey
Stimulus,canvas.Screen,2_74_0_1,2022-06-27T15:36:21.376Z,,,0,V,101.03499999991618,timeout,,,967538.2000000001,967536.532,967435.504,967437.6,967452.175,967553.21,,grey
Reaction,canvas.Screen,2_74_0_2,2022-06-27T15:36:21.662Z,,,0,V,269.39000000001397,response,stim_detected,mousedown,967824.2000000001,967822.6,967536.532,967538.5000000001,967553.21,967836.655,,grey
Trial,flow.Sequence,2_74_0,2022-06-27T15:36:21.663Z,,,0,V,2220.7569999999832,completion,,,967824.6,967822.6,965585.165,965592.7999999999,965601.843,967836.655,,grey
Frame,canvas.Frame,2_74,2022-06-27T15:36:21.663Z,,,0,V,2222.8570000000764,,,,967825.0000000001,967824.7000000001,965585.165,965591.9,965601.843,967836.655,,grey
Fixation,canvas.Screen,2_75_0_0,2022-06-27T15:36:23.227Z,,,1,AV,1568.2859999999637,timeout,,,969389.4,969388.258,967819.978,967826.0000000001,967836.655,969404.941,,grey
Stimulus,canvas.Screen,2_75_0_1,2022-06-27T15:36:23.326Z,,,1,AV,99.21200000005774,timeout,,,969488.5000000001,969487.478,969388.258,969389.7000000001,969404.941,969504.153,,grey
Reaction,canvas.Screen,2_75_0_2,2022-06-27T15:36:23.470Z,,,1,AV,126.44699999992736,response,stim_detected,mousedown,969632.0000000001,969630.6,969487.478,969488.6,969504.153,969654.578,,grey
Trial,flow.Sequence,2_75_0,2022-06-27T15:36:23.470Z,,,1,AV,1793.9449999999488,completion,,,969632.4,969630.6,967819.978,967825.9,967836.655,969654.578,,grey
Frame,canvas.Frame,2_75,2022-06-27T15:36:23.471Z,,,1,AV,1795.8450000000885,,,,969632.7000000001,969632.5000000001,967819.978,967825.1,967836.655,969654.578,,grey
Fixation,canvas.Screen,2_76_0_0,2022-06-27T15:36:25.078Z,,,0,V,1601.14300000004,timeout,,,971240.5000000001,971239.042,969621.222,969633.7000000001,969654.578,971255.721,,grey
Stimulus,canvas.Screen,2_76_0_1,2022-06-27T15:36:25.177Z,,,0,V,99.42200000002049,timeout,,,971339.4,971338.471,971239.042,971240.9,971255.721,971355.143,,grey
Reaction,canvas.Screen,2_76_0_2,2022-06-27T15:36:25.361Z,,,0,V,166.45699999993667,response,stim_detected,mousedown,971523.0000000001,971521.6,971338.471,971339.7000000001,971355.143,971539.158,,grey
Trial,flow.Sequence,2_76_0,2022-06-27T15:36:25.361Z,,,0,V,1867.0219999999972,completion,,,971523.4,971521.6,969621.222,969633.7000000001,969654.578,971539.158,,grey
Frame,canvas.Frame,2_76,2022-06-27T15:36:25.362Z,,,0,V,1869.0219999999972,,,,971523.7999999999,971523.6,969621.222,969632.9,969654.578,971539.158,,grey
Fixation,canvas.Screen,2_77_0_0,2022-06-27T15:36:27.080Z,,,1,AV,1718.421999999904,timeout,,,973242.6,973240.897,971522.48,971525.0000000001,971539.158,973257.58,,grey
Stimulus,canvas.Screen,2_77_0_1,2022-06-27T15:36:27.179Z,,,1,AV,99.4550000000745,timeout,,,973341.6,973340.358,973240.897,973242.7999999999,973257.58,973357.035,,grey
Reaction,canvas.Screen,2_77_0_2,2022-06-27T15:36:27.306Z,,,1,AV,109.56499999994412,response,stim_detected,mousedown,973468.2999999999,973466.6,973340.358,973341.7999999999,973357.035,973473.802,,grey
Trial,flow.Sequence,2_77_0,2022-06-27T15:36:27.307Z,,,1,AV,1927.4419999999227,completion,,,973468.6,973466.6,971522.48,971524.9,971539.158,973473.802,,grey
Frame,canvas.Frame,2_77,2022-06-27T15:36:27.307Z,,,1,AV,1929.6419999998761,,,,973469.0000000001,973468.7999999999,971522.48,971523.9,971539.158,973473.802,,grey
Fixation,canvas.Screen,2_78_0_0,2022-06-27T15:36:28.864Z,,,1,A,1568.2489999999525,timeout,,,975026.7000000001,975025.368,973457.125,973470.1,973473.802,975042.051,,black
Stimulus,canvas.Screen,2_78_0_1,2022-06-27T15:36:28.964Z,,,1,A,99.50199999997858,timeout,,,975126.2000000001,975124.333,975025.368,975026.9,975042.051,975141.553,,black
Reaction,canvas.Screen,2_78_0_2,2022-06-27T15:36:29.137Z,,,1,A,156.0470000000205,response,stim_detected,mousedown,975299.0000000001,975297.6,975124.333,975126.5000000001,975141.553,975308.323,,black
Trial,flow.Sequence,2_78_0,2022-06-27T15:36:29.137Z,,,1,A,1823.7979999999516,completion,,,975299.4,975297.6,973457.125,973470.1,973473.802,975308.323,,black
Frame,canvas.Frame,2_78,2022-06-27T15:36:29.137Z,,,1,A,1825.6980000000913,,,,975299.7999999999,975299.5000000001,973457.125,973469.2000000001,973473.802,975308.323,,black
Fixation,canvas.Screen,2_79_0_0,2022-06-27T15:36:31.334Z,,,1,AV,2203.033999999985,timeout,,,977496.2999999999,977494.668,975291.646,975301.1,975308.323,977511.357,,grey
Stimulus,canvas.Screen,2_79_0_1,2022-06-27T15:36:31.431Z,,,1,AV,98.23300000000745,timeout,,,977593.9,977592.915,977494.668,977496.6,977511.357,977609.59,,grey
Reaction,canvas.Screen,2_79_0_2,2022-06-27T15:36:31.570Z,,,1,AV,121.91000000014901,response,stim_detected,mousedown,977733.0000000001,977731.5000000001,977592.915,977594.1,977609.59,977760.058,,grey
Trial,flow.Sequence,2_79_0,2022-06-27T15:36:31.571Z,,,1,AV,2423.1770000001416,completion,,,977733.4,977731.5000000001,975291.646,975301.0000000001,975308.323,977760.058,,grey
Frame,canvas.Frame,2_79,2022-06-27T15:36:31.571Z,,,1,AV,2425.1770000001416,,,,977733.6,977733.5000000001,975291.646,975300.0000000001,975308.323,977760.058,,grey
Fixation,canvas.Screen,2_80_0_0,2022-06-27T15:36:33.766Z,,,1,A,2183.8270000000484,timeout,,,979929.0000000001,979927.214,977726.702,977735.1,977760.058,979943.885,,black
Stimulus,canvas.Screen,2_80_0_1,2022-06-27T15:36:33.867Z,,,1,A,100.17099999997299,timeout,,,980029.2000000001,980027.384,979927.214,979929.2999999999,979943.885,980044.056,,black
Reaction,canvas.Screen,2_80_0_2,2022-06-27T15:36:34.119Z,,,1,A,235.4440000001341,response,stim_detected,mousedown,980281.1,980279.5000000001,980027.384,980029.4,980044.056,980295.046,,black
Trial,flow.Sequence,2_80_0,2022-06-27T15:36:34.119Z,,,1,A,2519.4420000001555,completion,,,980281.5000000001,980279.5000000001,977726.702,977735.0000000001,977760.058,980295.046,,black
Frame,canvas.Frame,2_80,2022-06-27T15:36:34.119Z,,,1,A,2521.642000000109,,,,980281.7999999999,980281.7000000001,977726.702,977733.7999999999,977760.058,980295.046,,black
Fixation,canvas.Screen,2_81_0_0,2022-06-27T15:36:35.718Z,,,0,V,1601.097000000067,timeout,,,981881.0000000001,981879.465,980278.368,980283.1,980295.046,981896.143,,grey
Stimulus,canvas.Screen,2_81_0_1,2022-06-27T15:36:35.818Z,,,0,V,99.91299999994226,timeout,,,981981.0000000001,981979.38,981879.465,981881.2999999999,981896.143,981996.056,,grey
Reaction,canvas.Screen,2_81_0_2,2022-06-27T15:36:36.013Z,,,0,V,177.5439999999944,response,stim_detected,mousedown,982175.1,982173.6,981979.38,981981.2999999999,981996.056,982179.68,,grey
Trial,flow.Sequence,2_81_0,2022-06-27T15:36:36.013Z,,,0,V,1878.5540000000037,completion,,,982175.6,982173.6,980278.368,980283.0000000001,980295.046,982179.68,,grey
Frame,canvas.Frame,2_81,2022-06-27T15:36:36.013Z,,,0,V,1880.6540000000969,,,,982175.9,982175.7000000001,980278.368,980282.0000000001,980295.046,982179.68,,grey
Fixation,canvas.Screen,2_82_0_0,2022-06-27T15:36:37.970Z,,,1,A,1967.8739999999525,timeout,,,984132.1,984130.877,982163.002,982177.4,982179.68,984147.554,,black
Stimulus,canvas.Screen,2_82_0_1,2022-06-27T15:36:38.070Z,,,1,A,99.90599999995902,timeout,,,984232.2999999999,984230.785,984130.877,984132.2999999999,984147.554,984247.46,,black
Reaction,canvas.Screen,2_82_0_2,2022-06-27T15:36:38.320Z,,,1,A,233.04000000015367,response,stim_detected,mousedown,984482.0000000001,984480.5000000001,984230.785,984232.6,984247.46,984497.871,,black
Trial,flow.Sequence,2_82_0,2022-06-27T15:36:38.320Z,,,1,A,2300.820000000065,completion,,,984482.6,984480.5000000001,982163.002,982177.2999999999,982179.68,984497.871,,black
Frame,canvas.Frame,2_82,2022-06-27T15:36:38.321Z,,,1,A,2303.119999999879,,,,984483.1,984482.7999999999,982163.002,982176.2000000001,982179.68,984497.871,,black
Fixation,canvas.Screen,2_83_0_0,2022-06-27T15:36:40.689Z,,,1,AV,2368.454999999958,timeout,,,986851.4,986849.647,984481.194,984484.2999999999,984497.871,986866.326,,grey
Stimulus,canvas.Screen,2_83_0_1,2022-06-27T15:36:40.789Z,,,1,AV,99.88600000005681,timeout,,,986951.4,986949.534,986849.647,986851.7000000001,986866.326,986966.212,,grey
Reaction,canvas.Screen,2_83_0_2,2022-06-27T15:36:40.933Z,,,1,AV,128.18799999996554,response,stim_detected,mousedown,987096.0000000001,987094.4,986949.534,986951.6,986966.212,987099.623,,grey
Trial,flow.Sequence,2_83_0,2022-06-27T15:36:40.934Z,,,1,AV,2596.5289999999804,completion,,,987096.4,987094.4,984481.194,984484.2000000001,984497.871,987099.623,,grey
Frame,canvas.Frame,2_83,2022-06-27T15:36:40.934Z,,,1,AV,2598.728999999934,,,,987096.7999999999,987096.6,984481.194,984483.2000000001,984497.871,987099.623,,grey
Fixation,canvas.Screen,2_84_0_0,2022-06-27T15:36:43.141Z,,,1,A,2218.826000000001,timeout,,,989303.5000000001,989301.766,987082.946,987098.0000000001,987099.623,989318.449,,black
Stimulus,canvas.Screen,2_84_0_1,2022-06-27T15:36:43.239Z,,,1,A,98.67499999993015,timeout,,,989401.5000000001,989400.452,989301.766,989303.7999999999,989318.449,989417.124,,black
Reaction,canvas.Screen,2_84_0_2,2022-06-27T15:36:43.452Z,,,1,A,196.3760000001639,response,stim_detected,mousedown,989615.0000000001,989613.5000000001,989400.452,989401.7999999999,989417.124,989617.99,,black
Trial,flow.Sequence,2_84_0,2022-06-27T15:36:43.453Z,,,1,A,2513.877000000095,completion,,,989615.4,989613.5000000001,987082.946,987097.9,987099.623,989617.99,,black
Frame,canvas.Frame,2_84,2022-06-27T15:36:43.453Z,,,1,A,2515.877000000095,,,,989615.7999999999,989615.5000000001,987082.946,987096.9,987099.623,989617.99,,black
Fixation,canvas.Screen,2_85_0_0,2022-06-27T15:36:45.009Z,,,1,AV,1568.8100000000559,timeout,,,991171.5000000001,991170.111,989601.312,989616.9,989617.99,991186.8,,grey
Stimulus,canvas.Screen,2_85_0_1,2022-06-27T15:36:45.108Z,,,1,AV,98.6579999999376,timeout,,,991270.5000000001,991268.784,991170.111,991171.7999999999,991186.8,991285.458,,grey
Reaction,canvas.Screen,2_85_0_2,2022-06-27T15:36:45.264Z,,,1,AV,139.94200000003912,response,stim_detected,mousedown,991426.9,991425.4,991268.784,991270.7999999999,991285.458,991435.855,,grey
Trial,flow.Sequence,2_85_0,2022-06-27T15:36:45.265Z,,,1,AV,1807.4100000000326,completion,,,991427.2000000001,991425.4,989601.312,989616.9,989617.99,991435.855,,grey
Frame,canvas.Frame,2_85,2022-06-27T15:36:45.265Z,,,1,AV,1809.4100000000326,,,,991427.6,991427.4,989601.312,989616.0000000001,989617.99,991435.855,,grey
Fixation,canvas.Screen,2_86_0_0,2022-06-27T15:36:47.561Z,,,1,A,2302.7449999999953,timeout,,,993723.7999999999,993721.914,991419.178,991428.7000000001,991435.855,993738.6,,black
Stimulus,canvas.Screen,2_86_0_1,2022-06-27T15:36:47.660Z,,,1,A,98.93500000005588,timeout,,,993822.7999999999,993820.857,993721.914,993724.1,993738.6,993837.535,,black
Reaction,canvas.Screen,2_86_0_2,2022-06-27T15:36:47.839Z,,,1,A,162.96500000008382,response,stim_detected,mousedown,994001.9,994000.5000000001,993820.857,993823.1,993837.535,994004.27,,black
Trial,flow.Sequence,2_86_0,2022-06-27T15:36:47.840Z,,,1,A,2564.645000000135,completion,,,994002.2999999999,994000.5000000001,991419.178,991428.6,991435.855,994004.27,,black
Frame,canvas.Frame,2_86,2022-06-27T15:36:47.840Z,,,1,A,2566.545000000042,,,,994002.7000000001,994002.4,991419.178,991427.7999999999,991435.855,994004.27,,black
Fixation,canvas.Screen,2_87_0_0,2022-06-27T15:36:49.394Z,,,1,A,1567.966999999946,timeout,,,995556.6,995555.557,993987.593,994003.7000000001,994004.27,995572.237,,black
Stimulus,canvas.Screen,2_87_0_1,2022-06-27T15:36:49.494Z,,,1,A,99.76699999999255,timeout,,,995656.7999999999,995655.327,995555.557,995556.7999999999,995572.237,995672.004,,black
Reaction,canvas.Screen,2_87_0_2,2022-06-27T15:36:49.637Z,,,1,A,126.29599999997299,response,stim_detected,mousedown,995799.9,995798.2999999999,995655.327,995657.0000000001,995672.004,995805.488,,black
Trial,flow.Sequence,2_87_0,2022-06-27T15:36:49.638Z,,,1,A,1794.0299999999115,completion,,,995800.2999999999,995798.2999999999,993987.593,994003.6,994004.27,995805.488,,black
Frame,canvas.Frame,2_87,2022-06-27T15:36:49.638Z,,,1,A,1796.1300000000047,,,,995800.6,995800.4,993987.593,994002.9,994004.27,995805.488,,black
Fixation,canvas.Screen,2_88_0_0,2022-06-27T15:36:51.162Z,,,1,AV,1534.6949999999488,timeout,,,997324.9,997323.502,995788.811,995801.7999999999,995805.488,997340.183,,grey
Stimulus,canvas.Screen,2_88_0_1,2022-06-27T15:36:51.262Z,,,1,AV,99.72500000009313,timeout,,,997424.7999999999,997423.231,997323.502,997325.2999999999,997340.183,997439.908,,grey
Reaction,canvas.Screen,2_88_0_2,2022-06-27T15:36:51.409Z,,,1,AV,130.49199999996927,response,stim_detected,mousedown,997571.9,997570.4,997423.231,997425.1,997439.908,997573.378,,grey
Trial,flow.Sequence,2_88_0,2022-06-27T15:36:51.410Z,,,1,AV,1764.9120000000112,completion,,,997572.2999999999,997570.4,995788.811,995801.6,995805.488,997573.378,,grey
Frame,canvas.Frame,2_88,2022-06-27T15:36:51.410Z,,,1,AV,1767.0120000001043,,,,997572.7000000001,997572.5000000001,995788.811,995800.7999999999,995805.488,997573.378,,grey
Fixation,canvas.Screen,2_89_0_0,2022-06-27T15:36:53.379Z,,,1,AV,1984.2979999999516,timeout,,,999542.0000000001,999541.001,997556.7,997573.9,997573.378,999557.676,,grey
Stimulus,canvas.Screen,2_89_0_1,2022-06-27T15:36:53.479Z,,,1,AV,100.04700000002049,timeout,,,999642.0000000001,999641.048,999541.001,999542.2000000001,999557.676,999657.723,,grey
Reaction,canvas.Screen,2_89_0_2,2022-06-27T15:36:53.605Z,,,1,AV,108.57699999993201,response,stim_detected,mousedown,999767.7999999999,999766.2999999999,999641.048,999642.2999999999,999657.723,999774.852,,grey
Trial,flow.Sequence,2_89_0,2022-06-27T15:36:53.606Z,,,1,AV,2192.921999999904,completion,,,999768.2000000001,999766.2999999999,997556.7,997573.7999999999,997573.378,999774.852,,grey
Frame,canvas.Frame,2_89,2022-06-27T15:36:53.606Z,,,1,AV,2194.921999999904,,,,999768.5000000001,999768.2999999999,997556.7,997572.9,997573.378,999774.852,,grey
Fixation,canvas.Screen,2_90_0_0,2022-06-27T15:36:55.347Z,,,1,AV,1750.9710000000196,timeout,,,1001510.0000000001,1001509.147,999758.174,999769.5000000001,999774.852,1001525.823,,grey
Stimulus,canvas.Screen,2_90_0_1,2022-06-27T15:36:55.448Z,,,1,AV,100.27399999997579,timeout,,,1001610.1,1001609.224,1001509.147,1001510.2999999999,1001525.823,1001626.097,,grey
Reaction,canvas.Screen,2_90_0_2,2022-06-27T15:36:55.587Z,,,1,AV,122.30300000007264,response,stim_detected,mousedown,1001749.9,1001748.4,1001609.224,1001610.2999999999,1001626.097,1001759.521,,grey
Trial,flow.Sequence,2_90_0,2022-06-27T15:36:55.588Z,,,1,AV,1973.548000000068,completion,,,1001750.2999999999,1001748.4,999758.174,999769.4,999774.852,1001759.521,,grey
Frame,canvas.Frame,2_90,2022-06-27T15:36:55.588Z,,,1,AV,1975.6480000001611,,,,1001750.6,1001750.5000000001,999758.174,999768.7000000001,999774.852,1001759.521,,grey
Loop,flow.Loop,2,2022-06-27T15:36:55.589Z,,,,,201561.04000000015,completion,,,1001751.0000000001,1001750.5000000001,800172.791,800174.5000000001,800189.46,1001759.521,,
end,html.Page,3,2022-06-27T15:37:02.825Z,,,,,7227.479000000167,form submission,,,1008987.6,1008987.0000000001,1001742.843,1001751.2000000001,1001759.521,1008980.902,,
root,flow.Sequence,,2022-06-27T15:37:02.826Z,,,,,1007611.4940000001,completion,,,1008989.0000000001,1008987.0000000001,1358.823,1363.3000000000466,1375.506,1008980.902,,