sender,sender_type,sender_id,timestamp,meta,,aud,condition,duration,ended_on,response,response_action,time_commit,time_end,time_render,time_run,time_show,time_switch,url,vis
Instructions,html.Page,0,2022-06-30T15:13:30.271Z,"{""labjs_version"":""20.2.4"",""labjs_build"":{""flavor"":""production"",""commit"":""f5b4a49f956347addd546a832a3327688c2c0fef""},""location"":""file:///C:/Users/Proband%207/Desktop/RTE/index.html"",""userAgent"":""Mozilla/5.0 (Windows NT 6.1; Win64; x64) AppleWebKit/537.36 (KHTML, like Gecko) Chrome/102.0.0.0 Safari/537.36"",""platform"":""Win32"",""language"":""de-DE"",""locale"":""de"",""timeZone"":""Europe/Berlin"",""timezoneOffset"":-120,""screen_width"":1366,""screen_height"":768,""scroll_width"":1366,""scroll_height"":609,""window_innerWidth"":1366,""window_innerHeight"":657,""devicePixelRatio"":1}",,,,983821.735,form submission,,,985343.9999999999,985335.6,1497.189,1505.3999999999942,1513.865,985847.194,{},
Change Background,canvas.Screen,1,2022-06-30T15:13:33.773Z,,,,,3035.866000000038,timeout,,,988846.2999999999,988833.017,985146.76,985344.9,985847.194,988883.06,,
Fixation,canvas.Screen,2_0_0_0,2022-06-30T15:13:35.810Z,,,1,A,2132.1509999999544,timeout,,,990883.4999999999,990881.859,988833.017,988884.1,988883.06,991015.211,,black
Stimulus,canvas.Screen,2_0_0_1,2022-06-30T15:13:36.029Z,,,1,A,252.16500000003725,timeout,,,991102.4,991100.616,990881.859,990883.9,991015.211,991267.376,,black
Reaction,canvas.Screen,2_0_0_2,2022-06-30T15:13:37.598Z,,,1,A,1397.3240000000224,response,stim_detected,mousedown,992671.2000000001,992664.7000000001,991100.616,991102.7999999999,991267.376,992685.079,,black
Trial,flow.Sequence,2_0_0,2022-06-30T15:13:37.599Z,,,1,A,3781.640000000014,completion,,,992671.7999999999,992664.7000000001,988833.017,988883.9999999999,988883.06,992685.079,,black
Frame,canvas.Frame,2_0,2022-06-30T15:13:37.599Z,,,1,A,3788.9399999998277,,,,992672.2999999999,992671.9999999999,988833.017,988846.9,988883.06,992685.079,,black
Fixation,canvas.Screen,2_1_0_0,2022-06-30T15:13:39.547Z,,,1,AV,2000.488000000012,timeout,,,994620.6,994618.875,992668.402,992673.4999999999,992685.079,994685.567,,grey
Stimulus,canvas.Screen,2_1_0_1,2022-06-30T15:13:39.698Z,,,1,AV,100.96100000001024,timeout,,,994771.6,994769.786,994618.875,994620.9,994685.567,994786.528,,grey
Reaction,canvas.Screen,2_1_0_2,2022-06-30T15:13:39.947Z,,,1,AV,232.07199999992736,response,stim_detected,mousedown,995020.4,995018.6,994769.786,994772.1,994786.528,995036.683,,grey
Trial,flow.Sequence,2_1_0,2022-06-30T15:13:39.948Z,,,1,AV,2333.5209999999497,completion,,,995021.2000000001,995018.6,992668.402,992673.4999999999,992685.079,995036.683,,grey
Frame,canvas.Frame,2_1,2022-06-30T15:13:39.948Z,,,1,AV,2336.3209999999963,,,,995021.7999999999,995021.4,992668.402,992672.6,992685.079,995036.683,,grey
Fixation,canvas.Screen,2_2_0_0,2022-06-30T15:13:41.966Z,,,1,AV,2018.8090000000084,timeout,,,997039.7000000001,997038.808,995020.006,995023.4,995036.683,997055.492,,grey
Stimulus,canvas.Screen,2_2_0_1,2022-06-30T15:13:42.066Z,,,1,AV,99.28200000000652,timeout,,,997139.7000000001,997138.097,997038.808,997039.9999999999,997055.492,997154.774,,grey
Reaction,canvas.Screen,2_2_0_2,2022-06-30T15:13:42.238Z,,,1,AV,154.7259999999078,response,stim_detected,mousedown,997311.2999999999,997309.4999999999,997138.097,997139.9999999999,997154.774,997321.548,,grey
Trial,flow.Sequence,2_2_0,2022-06-30T15:13:42.239Z,,,1,AV,2272.8169999999227,completion,,,997311.9,997309.4999999999,995020.006,995023.2000000001,995036.683,997321.548,,grey
Frame,canvas.Frame,2_2,2022-06-30T15:13:42.239Z,,,1,AV,2275.2170000000624,,,,997312.2000000001,997311.9,995020.006,995021.9999999999,995036.683,997321.548,,grey
Fixation,canvas.Screen,2_3_0_0,2022-06-30T15:13:44.467Z,,,1,A,2234.579000000027,timeout,,,999540.6,999539.451,997304.871,997313.6,997321.548,999556.127,,black
Stimulus,canvas.Screen,2_3_0_1,2022-06-30T15:13:44.568Z,,,1,A,99.68000000005122,timeout,,,999640.9,999639.134,999539.451,999540.9,999556.127,999655.807,,black
Reaction,canvas.Screen,2_3_0_2,2022-06-30T15:13:44.702Z,,,1,A,117.69299999985378,response,stim_detected,mousedown,999775.2999999999,999773.4999999999,999639.134,999641.1,999655.807,999889.887,,black
Trial,flow.Sequence,2_3_0,2022-06-30T15:13:44.702Z,,,1,A,2451.951999999932,completion,,,999775.7000000001,999773.4999999999,997304.871,997313.6,997321.548,999889.887,,black
Frame,canvas.Frame,2_3,2022-06-30T15:13:44.703Z,,,1,A,2454.3520000000717,,,,999776.1,999775.9,997304.871,997312.4,997321.548,999889.887,,black
Fixation,canvas.Screen,2_4_0_0,2022-06-30T15:13:47.170Z,,,1,A,2401.3349999999627,timeout,,,1002243.1,1002241.194,999773.148,999777.2999999999,999889.887,1002291.222,,black
Stimulus,canvas.Screen,2_4_0_1,2022-06-30T15:13:47.302Z,,,1,A,100.32000000006519,timeout,,,1002375.4,1002374.864,1002241.194,1002243.4,1002291.222,1002391.542,,black
Reaction,canvas.Screen,2_4_0_2,2022-06-30T15:13:47.796Z,,,1,A,475.85800000000745,response,stim_detected,mousedown,1002869.4,1002867.4,1002374.864,1002375.6,1002391.542,1002875.12,,black
Trial,flow.Sequence,2_4_0,2022-06-30T15:13:47.797Z,,,1,A,2977.5130000000354,completion,,,1002869.9,1002867.4,999773.148,999777.2000000001,999889.887,1002875.12,,black
Frame,canvas.Frame,2_4,2022-06-30T15:13:47.797Z,,,1,A,2980.212999999989,,,,1002870.4,1002870.1,999773.148,999776.2999999999,999889.887,1002875.12,,black
Fixation,canvas.Screen,2_5_0_0,2022-06-30T15:13:50.073Z,,,1,A,2286.569999999949,timeout,,,1005145.9999999999,1005145,1002858.444,1002871.7999999999,1002875.12,1005161.69,,black
Stimulus,canvas.Screen,2_5_0_1,2022-06-30T15:13:50.172Z,,,1,A,98.28400000010151,timeout,,,1005244.9999999999,1005243.298,1005145,1005146.2000000001,1005161.69,1005259.974,,black
Reaction,canvas.Screen,2_5_0_2,2022-06-30T15:13:50.304Z,,,1,A,115.42599999997765,response,stim_detected,mousedown,1005377.2000000001,1005375.4,1005243.298,1005245.2999999999,1005259.974,1005393.54,,black
Trial,flow.Sequence,2_5_0,2022-06-30T15:13:50.304Z,,,1,A,2500.280000000028,completion,,,1005377.6,1005375.4,1002858.444,1002871.6,1002875.12,1005393.54,,black
Frame,canvas.Frame,2_5,2022-06-30T15:13:50.305Z,,,1,A,2502.679999999935,,,,1005378.1,1005377.7999999999,1002858.444,1002870.7000000001,1002875.12,1005393.54,,black
Fixation,canvas.Screen,2_6_0_0,2022-06-30T15:13:52.557Z,,,1,A,2251.984999999986,timeout,,,1007629.9999999999,1007628.844,1005376.863,1005379.2999999999,1005393.54,1007645.525,,black
Stimulus,canvas.Screen,2_6_0_1,2022-06-30T15:13:52.656Z,,,1,A,99.57400000002235,timeout,,,1007729.1,1007728.204,1007628.844,1007630.4999999999,1007645.525,1007745.099,,black
Reaction,canvas.Screen,2_6_0_2,2022-06-30T15:13:52.933Z,,,1,A,259.2009999998845,response,stim_detected,mousedown,1008006.1,1008004.2999999999,1007728.204,1007729.4,1007745.099,1008011.931,,black
Trial,flow.Sequence,2_6_0,2022-06-30T15:13:52.933Z,,,1,A,2610.759999999893,completion,,,1008006.4999999999,1008004.2999999999,1005376.863,1005379.2999999999,1005393.54,1008011.931,,black
Frame,canvas.Frame,2_6,2022-06-30T15:13:52.933Z,,,1,A,2613.0599999999395,,,,1008006.7999999999,1008006.6,1005376.863,1005378.2000000001,1005393.54,1008011.931,,black
Fixation,canvas.Screen,2_7_0_0,2022-06-30T15:13:55.324Z,,,1,AV,2400.527000000002,timeout,,,1010397.1,1010395.787,1007995.254,1008011.1,1008011.931,1010412.458,,grey
Stimulus,canvas.Screen,2_7_0_1,2022-06-30T15:13:55.425Z,,,1,AV,101.12100000004284,timeout,,,1010498.2999999999,1010496.901,1010395.787,1010397.4,1010412.458,1010513.579,,grey
Reaction,canvas.Screen,2_7_0_2,2022-06-30T15:13:55.636Z,,,1,AV,193.72099999990314,response,stim_detected,mousedown,1010708.9999999999,1010707.2999999999,1010496.901,1010498.4999999999,1010513.579,1010713.677,,grey
Trial,flow.Sequence,2_7_0,2022-06-30T15:13:55.636Z,,,1,AV,2695.368999999948,completion,,,1010709.4,1010707.2999999999,1007995.254,1008010.9999999999,1008011.931,1010713.677,,grey
Frame,canvas.Frame,2_7,2022-06-30T15:13:55.636Z,,,1,AV,2697.6689999999944,,,,1010709.7999999999,1010709.6,1007995.254,1008006.9,1008011.931,1010713.677,,grey
Fixation,canvas.Screen,2_8_0_0,2022-06-30T15:13:57.878Z,,,0,V,2253.1720000000205,timeout,,,1012951.2999999999,1012950.159,1010697,1010710.9999999999,1010713.677,1012966.849,,grey
Stimulus,canvas.Screen,2_8_0_1,2022-06-30T15:13:57.976Z,,,0,V,97.9419999999227,timeout,,,1013049.4,1013048.117,1012950.159,1012951.4999999999,1012966.849,1013064.791,,grey
Reaction,canvas.Screen,2_8_0_2,2022-06-30T15:13:58.250Z,,,0,V,256.5089999999618,response,stim_detected,mousedown,1013323.2000000001,1013321.2999999999,1013048.117,1013049.7000000001,1013064.791,1013332.103,,grey
Trial,flow.Sequence,2_8_0,2022-06-30T15:13:58.250Z,,,0,V,2607.622999999905,completion,,,1013323.6,1013321.2999999999,1010697,1010710.9,1010713.677,1013332.103,,grey
Frame,canvas.Frame,2_8,2022-06-30T15:13:58.251Z,,,0,V,2610.122999999905,,,,1013323.9,1013323.7999999999,1010697,1010709.9999999999,1010713.677,1013332.103,,grey
Fixation,canvas.Screen,2_9_0_0,2022-06-30T15:14:00.111Z,,,0,V,1867.4449999999488,timeout,,,1015184.2000000001,1015182.874,1013315.426,1013325.2999999999,1013332.103,1015199.548,,grey
Stimulus,canvas.Screen,2_9_0_1,2022-06-30T15:14:00.211Z,,,0,V,100.54899999999907,timeout,,,1015284.2999999999,1015283.419,1015182.874,1015184.4,1015199.548,1015300.097,,grey
Reaction,canvas.Screen,2_9_0_2,2022-06-30T15:14:00.371Z,,,0,V,142.1030000001192,response,stim_detected,mousedown,1015443.9999999999,1015442.2000000001,1015283.419,1015284.4999999999,1015300.097,1015466.858,,grey
Trial,flow.Sequence,2_9_0,2022-06-30T15:14:00.371Z,,,0,V,2110.097000000067,completion,,,1015444.4,1015442.2000000001,1013315.426,1013325.1,1013332.103,1015466.858,,grey
Frame,canvas.Frame,2_9,2022-06-30T15:14:00.371Z,,,0,V,2112.396999999881,,,,1015444.7000000001,1015444.4999999999,1013315.426,1013324.1,1013332.103,1015466.858,,grey
Fixation,canvas.Screen,2_10_0_0,2022-06-30T15:14:02.146Z,,,0,V,1767.6439999999711,timeout,,,1017219.4,1017217.826,1015433.504,1015445.9,1015466.858,1017234.502,,grey
Stimulus,canvas.Screen,2_10_0_1,2022-06-30T15:14:02.246Z,,,0,V,100.2839999999851,timeout,,,1017319.4,1017318.108,1017217.826,1017219.7999999999,1017234.502,1017334.786,,grey
Reaction,canvas.Screen,2_10_0_2,2022-06-30T15:14:02.515Z,,,0,V,251.31400000001304,response,stim_detected,mousedown,1017588.2000000001,1017586.1,1017318.108,1017319.6,1017334.786,1017601.536,,grey
Trial,flow.Sequence,2_10_0,2022-06-30T15:14:02.515Z,,,0,V,2119.2419999999693,completion,,,1017588.6,1017586.1,1015433.504,1015445.7999999999,1015466.858,1017601.536,,grey
Frame,canvas.Frame,2_10,2022-06-30T15:14:02.516Z,,,0,V,2121.8420000000624,,,,1017588.9,1017588.7000000001,1015433.504,1015444.9,1015466.858,1017601.536,,grey
Fixation,canvas.Screen,2_11_0_0,2022-06-30T15:14:04.864Z,,,1,A,2351.649000000092,timeout,,,1019937.4,1019936.507,1017584.86,1017590.2999999999,1017601.536,1019953.185,,black
Stimulus,canvas.Screen,2_11_0_1,2022-06-30T15:14:04.964Z,,,1,A,99.96099999989383,timeout,,,1020037.4,1020036.469,1019936.507,1019937.6,1019953.185,1020053.146,,black
Reaction,canvas.Screen,2_11_0_2,2022-06-30T15:14:05.224Z,,,1,A,241.954000000027,response,stim_detected,mousedown,1020296.7999999999,1020295.1,1020036.469,1020037.6,1020053.146,1020303.374,,black
Trial,flow.Sequence,2_11_0,2022-06-30T15:14:05.224Z,,,1,A,2693.564000000013,completion,,,1020297.2999999999,1020295.1,1017584.86,1017590.1,1017601.536,1020303.374,,black
Frame,canvas.Frame,2_11,2022-06-30T15:14:05.224Z,,,1,A,2695.8640000000596,,,,1020297.6,1020297.4,1017584.86,1017589.1,1017601.536,1020303.374,,black
Fixation,canvas.Screen,2_12_0_0,2022-06-30T15:14:07.333Z,,,0,V,2118.484000000055,timeout,,,1022406.4999999999,1022405.177,1020286.697,1020298.7999999999,1020303.374,1022421.858,,grey
Stimulus,canvas.Screen,2_12_0_1,2022-06-30T15:14:07.432Z,,,0,V,99.11999999999534,timeout,,,1022505.7999999999,1022504.305,1022405.177,1022406.7999999999,1022421.858,1022520.978,,grey
Reaction,canvas.Screen,2_12_0_2,2022-06-30T15:14:07.675Z,,,0,V,225.22200000006706,response,stim_detected,mousedown,1022747.7999999999,1022746.2000000001,1022504.305,1022506.1,1022520.978,1022754.972,,grey
Trial,flow.Sequence,2_12_0,2022-06-30T15:14:07.675Z,,,0,V,2442.8260000001173,completion,,,1022748.2000000001,1022746.2000000001,1020286.697,1020298.6,1020303.374,1022754.972,,grey
Frame,canvas.Frame,2_12,2022-06-30T15:14:07.675Z,,,0,V,2445.026000000071,,,,1022748.6,1022748.4,1020286.697,1020297.7000000001,1020303.374,1022754.972,,grey
Fixation,canvas.Screen,2_13_0_0,2022-06-30T15:14:09.585Z,,,0,V,1918.127000000095,timeout,,,1024657.9,1024656.42,1022738.295,1022749.7999999999,1022754.972,1024673.099,,grey
Stimulus,canvas.Screen,2_13_0_1,2022-06-30T15:14:09.684Z,,,0,V,99.92999999993481,timeout,,,1024757.6,1024756.351,1024656.42,1024658.1,1024673.099,1024773.029,,grey
Reaction,canvas.Screen,2_13_0_2,2022-06-30T15:14:09.907Z,,,0,V,206.07099999999627,response,stim_detected,mousedown,1024980.7000000001,1024979.1,1024756.351,1024757.9,1024773.029,1024989.78,,grey
Trial,flow.Sequence,2_13_0,2022-06-30T15:14:09.908Z,,,0,V,2224.128000000026,completion,,,1024981.1,1024979.1,1022738.295,1022749.6,1022754.972,1024989.78,,grey
Frame,canvas.Frame,2_13,2022-06-30T15:14:09.908Z,,,0,V,2226.4280000000726,,,,1024981.4999999999,1024981.4,1022738.295,1022748.7000000001,1022754.972,1024989.78,,grey
Fixation,canvas.Screen,2_14_0_0,2022-06-30T15:14:11.903Z,,,1,AV,2002.2829999999376,timeout,,,1026976.7000000001,1026975.378,1024973.103,1024982.4999999999,1024989.78,1026992.063,,grey
Stimulus,canvas.Screen,2_14_0_1,2022-06-30T15:14:12.002Z,,,1,AV,99.10700000007637,timeout,,,1027075.7000000001,1027074.493,1026975.378,1026976.9999999999,1026992.063,1027091.17,,grey
Reaction,canvas.Screen,2_14_0_2,2022-06-30T15:14:12.222Z,,,1,AV,200.12999999988824,response,stim_detected,mousedown,1027293.2000000001,1027291.2999999999,1027074.493,1027075.9999999999,1027091.17,1027307.994,,grey
Trial,flow.Sequence,2_14_0,2022-06-30T15:14:12.222Z,,,1,AV,2301.519999999902,completion,,,1027293.7000000001,1027291.2999999999,1024973.103,1024982.4999999999,1024989.78,1027307.994,,grey
Frame,canvas.Frame,2_14,2022-06-30T15:14:12.222Z,,,1,AV,2304.1199999999953,,,,1027294.1,1027293.9,1024973.103,1024981.7000000001,1024989.78,1027307.994,,grey
Fixation,canvas.Screen,2_15_0_0,2022-06-30T15:14:13.956Z,,,0,V,1734.9140000001062,timeout,,,1029027.7000000001,1029026.226,1027291.317,1027295.4,1027307.994,1029042.908,,grey
Stimulus,canvas.Screen,2_15_0_1,2022-06-30T15:14:14.055Z,,,0,V,99.25699999998324,timeout,,,1029126.7999999999,1029125.491,1029026.226,1029028.1,1029042.908,1029142.165,,grey
Reaction,canvas.Screen,2_15_0_2,2022-06-30T15:14:14.296Z,,,0,V,223.83499999984633,response,stim_detected,mousedown,1029367.7000000001,1029365.9999999999,1029125.491,1029127.1,1029142.165,1029392.711,,grey
Trial,flow.Sequence,2_15_0,2022-06-30T15:14:14.296Z,,,0,V,2058.0059999999357,completion,,,1029368.2000000001,1029365.9999999999,1027291.317,1027295.2000000001,1027307.994,1029392.711,,grey
Frame,canvas.Frame,2_15,2022-06-30T15:14:14.297Z,,,0,V,2060.3059999999823,,,,1029368.4999999999,1029368.2999999999,1027291.317,1027294.2999999999,1027307.994,1029392.711,,grey
Fixation,canvas.Screen,2_16_0_0,2022-06-30T15:14:16.723Z,,,1,AV,2417.5289999999804,timeout,,,1031794.9999999999,1031793.567,1029359.357,1029369.6,1029392.711,1031810.24,,grey
Stimulus,canvas.Screen,2_16_0_1,2022-06-30T15:14:16.824Z,,,1,AV,100.81000000005588,timeout,,,1031895.9,1031894.372,1031793.567,1031795.4,1031810.24,1031911.05,,grey
Reaction,canvas.Screen,2_16_0_2,2022-06-30T15:14:17.030Z,,,1,AV,188.84999999997672,response,stim_detected,mousedown,1032101.9999999999,1032099.9,1031894.372,1031896.2000000001,1031911.05,1032127.866,,grey
Trial,flow.Sequence,2_16_0,2022-06-30T15:14:17.031Z,,,1,AV,2707.189000000013,completion,,,1032102.4,1032099.9,1029359.357,1029369.4999999999,1029392.711,1032127.866,,grey
Frame,canvas.Frame,2_16,2022-06-30T15:14:17.031Z,,,1,AV,2709.8889999999665,,,,1032102.7999999999,1032102.6,1029359.357,1029368.7000000001,1029392.711,1032127.866,,grey
Fixation,canvas.Screen,2_17_0_0,2022-06-30T15:14:19.025Z,,,0,V,1984.296999999904,timeout,,,1034096.9,1034095.488,1032094.512,1032103.9,1032127.866,1034112.163,,grey
Stimulus,canvas.Screen,2_17_0_1,2022-06-30T15:14:19.125Z,,,0,V,100.01900000008754,timeout,,,1034196.9999999999,1034195.508,1034095.488,1034097.1,1034112.163,1034212.182,,grey
Reaction,canvas.Screen,2_17_0_2,2022-06-30T15:14:19.371Z,,,0,V,228.71799999999348,response,stim_detected,mousedown,1034442.9,1034440.9,1034195.508,1034197.2999999999,1034212.182,1034446.014,,grey
Trial,flow.Sequence,2_17_0,2022-06-30T15:14:19.372Z,,,0,V,2313.033999999985,completion,,,1034443.2999999999,1034440.9,1032094.512,1032103.7999999999,1032127.866,1034446.014,,grey
Frame,canvas.Frame,2_17,2022-06-30T15:14:19.372Z,,,0,V,2315.533999999985,,,,1034443.6,1034443.4,1032094.512,1032102.9999999999,1032127.866,1034446.014,,grey
Fixation,canvas.Screen,2_18_0_0,2022-06-30T15:14:21.095Z,,,1,A,1736.2910000000848,timeout,,,1036167.1,1036165.611,1034429.337,1034444.7000000001,1034446.014,1036182.305,,black
Stimulus,canvas.Screen,2_18_0_1,2022-06-30T15:14:21.193Z,,,1,A,98.08100000000559,timeout,,,1036265.1,1036263.711,1036165.611,1036167.2999999999,1036182.305,1036280.386,,black
Reaction,canvas.Screen,2_18_0_2,2022-06-30T15:14:21.591Z,,,1,A,380.5139999999665,response,stim_detected,mousedown,1036662.7999999999,1036660.9,1036263.711,1036265.4999999999,1036280.386,1036680.789,,black
Trial,flow.Sequence,2_18_0,2022-06-30T15:14:21.592Z,,,1,A,2214.886000000057,completion,,,1036663.2000000001,1036660.9,1034429.337,1034444.7000000001,1034446.014,1036680.789,,black
Frame,canvas.Frame,2_18,2022-06-30T15:14:21.592Z,,,1,A,2217.386000000057,,,,1036663.4999999999,1036663.4,1034429.337,1034443.7999999999,1034446.014,1036680.789,,black
Fixation,canvas.Screen,2_19_0_0,2022-06-30T15:14:23.764Z,,,1,A,2169.9670000000624,timeout,,,1038835.4,1038834.065,1036664.113,1036664.7999999999,1036680.789,1038850.756,,black
Stimulus,canvas.Screen,2_19_0_1,2022-06-30T15:14:23.862Z,,,1,A,97.97199999995064,timeout,,,1038933.2999999999,1038932.053,1038834.065,1038835.6,1038850.756,1038948.728,,black
Reaction,canvas.Screen,2_19_0_2,2022-06-30T15:14:24.204Z,,,1,A,325.07199999992736,response,stim_detected,mousedown,1039275.4,1039273.7999999999,1038932.053,1038933.4999999999,1038948.728,1039282.577,,black
Trial,flow.Sequence,2_19_0,2022-06-30T15:14:24.204Z,,,1,A,2593.0109999999404,completion,,,1039275.7999999999,1039273.7999999999,1036664.113,1036664.7999999999,1036680.789,1039282.577,,black
Frame,canvas.Frame,2_19,2022-06-30T15:14:24.204Z,,,1,A,2595.1110000000335,,,,1039276.1,1039275.9,1036664.113,1036663.7000000001,1036680.789,1039282.577,,black
Fixation,canvas.Screen,2_20_0_0,2022-06-30T15:14:26.413Z,,,1,AV,2217.2759999999544,timeout,,,1041484.4,1041483.181,1039265.9,1039277.2999999999,1039282.577,1041499.853,,grey
Stimulus,canvas.Screen,2_20_0_1,2022-06-30T15:14:26.514Z,,,1,AV,100.73800000001211,timeout,,,1041585.4999999999,1041583.915,1041483.181,1041484.7000000001,1041499.853,1041600.591,,grey
Reaction,canvas.Screen,2_20_0_2,2022-06-30T15:14:26.662Z,,,1,AV,131.00899999996182,response,stim_detected,mousedown,1041733.2000000001,1041731.6,1041583.915,1041585.7999999999,1041600.591,1041750.878,,grey
Trial,flow.Sequence,2_20_0,2022-06-30T15:14:26.662Z,,,1,AV,2449.0229999999283,completion,,,1041733.7000000001,1041731.6,1039265.9,1039277.2000000001,1039282.577,1041750.878,,grey
Frame,canvas.Frame,2_20,2022-06-30T15:14:26.662Z,,,1,AV,2451.2229999998817,,,,1041733.9999999999,1041733.7999999999,1039265.9,1039276.2999999999,1039282.577,1041750.878,,grey
Fixation,canvas.Screen,2_21_0_0,2022-06-30T15:14:28.899Z,,,1,A,2235.152999999933,timeout,,,1043970.4,1043969.351,1041734.201,1041734.9999999999,1041750.878,1043986.031,,black
Stimulus,canvas.Screen,2_21_0_1,2022-06-30T15:14:28.999Z,,,1,A,99.44099999999162,timeout,,,1044070.7000000001,1044068.797,1043969.351,1043970.7999999999,1043986.031,1044085.472,,black
Reaction,canvas.Screen,2_21_0_2,2022-06-30T15:14:29.169Z,,,1,A,153.3279999999795,response,stim_detected,mousedown,1044240.4,1044238.7999999999,1044068.797,1044070.9,1044085.472,1044252.5,,black
Trial,flow.Sequence,2_21_0,2022-06-30T15:14:29.169Z,,,1,A,2487.921999999904,completion,,,1044240.7999999999,1044238.7999999999,1041734.201,1041734.9999999999,1041750.878,1044252.5,,black
Frame,canvas.Frame,2_21,2022-06-30T15:14:29.169Z,,,1,A,2490.1219999998575,,,,1044241.2000000001,1044240.9999999999,1041734.201,1041734.1,1041750.878,1044252.5,,black
Fixation,canvas.Screen,2_22_0_0,2022-06-30T15:14:30.851Z,,,0,V,1685.5320000000065,timeout,,,1045922.4999999999,1045921.344,1044235.823,1044242.2000000001,1044252.5,1045938.032,,grey
Stimulus,canvas.Screen,2_22_0_1,2022-06-30T15:14:30.950Z,,,0,V,98.94499999994878,timeout,,,1046021.4,1046020.301,1045921.344,1045922.7000000001,1045938.032,1046036.977,,grey
Reaction,canvas.Screen,2_22_0_2,2022-06-30T15:14:31.145Z,,,0,V,177.72300000011455,response,stim_detected,mousedown,1046216.2999999999,1046214.7000000001,1046020.301,1046021.7000000001,1046036.977,1046220.504,,grey
Trial,flow.Sequence,2_22_0,2022-06-30T15:14:31.145Z,,,0,V,1962.2000000000698,completion,,,1046216.7000000001,1046214.7000000001,1044235.823,1044242.1,1044252.5,1046220.504,,grey
Frame,canvas.Frame,2_22,2022-06-30T15:14:31.145Z,,,0,V,1964.2999999999302,,,,1046216.9999999999,1046216.7999999999,1044235.823,1044241.4,1044252.5,1046220.504,,grey
Fixation,canvas.Screen,2_23_0_0,2022-06-30T15:14:33.485Z,,,1,AV,2351.616000000038,timeout,,,1048556.6,1048555.442,1046203.827,1046217.9999999999,1046220.504,1048572.12,,grey
Stimulus,canvas.Screen,2_23_0_1,2022-06-30T15:14:33.585Z,,,1,AV,99.96899999992456,timeout,,,1048656.7000000002,1048655.412,1048555.442,1048556.7999999999,1048572.12,1048672.089,,grey
Reaction,canvas.Screen,2_23_0_2,2022-06-30T15:14:33.747Z,,,1,AV,144.61100000026636,response,stim_detected,mousedown,1048819,1048816.7000000002,1048655.412,1048656.9000000001,1048672.089,1048838.889,,grey
Trial,flow.Sequence,2_23_0,2022-06-30T15:14:33.748Z,,,1,AV,2596.196000000229,completion,,,1048819.3,1048816.7000000002,1046203.827,1046217.9,1046220.504,1048838.889,,grey
Frame,canvas.Frame,2_23,2022-06-30T15:14:33.748Z,,,1,AV,2598.996000000043,,,,1048819.7000000002,1048819.5,1046203.827,1046217.2000000001,1046220.504,1048838.889,,grey
Fixation,canvas.Screen,2_24_0_0,2022-06-30T15:14:35.387Z,,,0,V,1635.0490000001155,timeout,,,1050458.7000000002,1050457.254,1048805.535,1048820.8,1048838.889,1050473.938,,grey
Stimulus,canvas.Screen,2_24_0_1,2022-06-30T15:14:35.486Z,,,0,V,98.89799999981187,timeout,,,1050557.6,1050556.164,1050457.254,1050459.1,1050473.938,1050572.836,,grey
Reaction,canvas.Screen,2_24_0_2,2022-06-30T15:14:35.732Z,,,0,V,228.7640000001993,response,stim_detected,mousedown,1050804.1,1050801.6,1050556.164,1050557.8,1050572.836,1050806.854,,grey
Trial,flow.Sequence,2_24_0,2022-06-30T15:14:35.733Z,,,0,V,1962.7110000001267,completion,,,1050804.5,1050801.6,1048805.535,1048820.7000000002,1048838.889,1050806.854,,grey
Frame,canvas.Frame,2_24,2022-06-30T15:14:35.733Z,,,0,V,1965.7110000001267,,,,1050804.8,1050804.6,1048805.535,1048819.9000000001,1048838.889,1050806.854,,grey
Fixation,canvas.Screen,2_25_0_0,2022-06-30T15:14:37.320Z,,,1,A,1600.6659999999683,timeout,,,1052391.8,1052390.846,1050790.177,1050806,1050806.854,1052407.52,,black
Stimulus,canvas.Screen,2_25_0_1,2022-06-30T15:14:37.421Z,,,1,A,100.46799999987707,timeout,,,1052492.7000000002,1052491.31,1052390.846,1052392.1,1052407.52,1052507.988,,black
Reaction,canvas.Screen,2_25_0_2,2022-06-30T15:14:37.592Z,,,1,A,153.5120000001043,response,stim_detected,mousedown,1052663.5,1052661.5,1052491.31,1052493.1,1052507.988,1052674.775,,black
Trial,flow.Sequence,2_25_0,2022-06-30T15:14:37.592Z,,,1,A,1854.6459999999497,completion,,,1052663.9000000001,1052661.5,1050790.177,1050805.9000000001,1050806.854,1052674.775,,black
Frame,canvas.Frame,2_25,2022-06-30T15:14:37.593Z,,,1,A,1857.1459999999497,,,,1052664.2000000002,1052664,1050790.177,1050805,1050806.854,1052674.775,,black
Fixation,canvas.Screen,2_26_0_0,2022-06-30T15:14:39.805Z,,,1,A,2217.756000000052,timeout,,,1054876.8,1054875.856,1052658.098,1052665.4000000001,1052674.775,1054892.531,,black
Stimulus,canvas.Screen,2_26_0_1,2022-06-30T15:14:39.906Z,,,1,A,100.26600000006147,timeout,,,1054978.1,1054976.121,1054875.856,1054877.1,1054892.531,1054992.797,,black
Reaction,canvas.Screen,2_26_0_2,2022-06-30T15:14:40.280Z,,,1,A,356.7029999999795,response,stim_detected,mousedown,1055351.8,1055349.5,1054976.121,1054978.3,1054992.797,1055359.848,,black
Trial,flow.Sequence,2_26_0,2022-06-30T15:14:40.280Z,,,1,A,2674.725000000093,completion,,,1055352.2000000002,1055349.5,1052658.098,1052665.3,1052674.775,1055359.848,,black
Frame,canvas.Frame,2_26,2022-06-30T15:14:40.281Z,,,1,A,2677.5250000001397,,,,1055352.5,1055352.3,1052658.098,1052664.5,1052674.775,1055359.848,,black
Fixation,canvas.Screen,2_27_0_0,2022-06-30T15:14:42.725Z,,,1,AV,2452.2900000000373,timeout,,,1057797.1,1057795.456,1055343.171,1055353.6,1055359.848,1057812.138,,grey
Stimulus,canvas.Screen,2_27_0_1,2022-06-30T15:14:42.824Z,,,1,AV,99.30499999993481,timeout,,,1057895.8,1057894.767,1057795.456,1057797.4000000001,1057812.138,1057911.443,,grey
Reaction,canvas.Screen,2_27_0_2,2022-06-30T15:14:42.967Z,,,1,AV,126.0570000000298,response,stim_detected,mousedown,1058039.1,1058037.5,1057894.767,1057895.9000000001,1057911.443,1058044.964,,grey
Trial,flow.Sequence,2_27_0,2022-06-30T15:14:42.968Z,,,1,AV,2677.652000000002,completion,,,1058039.5,1058037.5,1055343.171,1055353.6,1055359.848,1058044.964,,grey
Frame,canvas.Frame,2_27,2022-06-30T15:14:42.968Z,,,1,AV,2679.852000000188,,,,1058039.8,1058039.7000000002,1055343.171,1055352.7000000002,1055359.848,1058044.964,,grey
Fixation,canvas.Screen,2_28_0_0,2022-06-30T15:14:45.042Z,,,1,A,2084.221000000136,timeout,,,1060114,1060112.511,1058028.287,1058040.9000000001,1058044.964,1060129.185,,black
Stimulus,canvas.Screen,2_28_0_1,2022-06-30T15:14:45.142Z,,,1,A,100.6019999999553,timeout,,,1060213.9000000001,1060213.108,1060112.511,1060114.4000000001,1060129.185,1060229.787,,black
Reaction,canvas.Screen,2_28_0_2,2022-06-30T15:14:45.294Z,,,1,A,134.71299999998882,response,stim_detected,mousedown,1060366.2000000002,1060364.5,1060213.108,1060214.2000000002,1060229.787,1060379.828,,black
Trial,flow.Sequence,2_28_0,2022-06-30T15:14:45.295Z,,,1,A,2319.53600000008,completion,,,1060366.6,1060364.5,1058028.287,1058040.9000000001,1058044.964,1060379.828,,black
Frame,canvas.Frame,2_28,2022-06-30T15:14:45.295Z,,,1,A,2321.7360000002664,,,,1060366.9000000001,1060366.7000000002,1058028.287,1058040.1,1058044.964,1060379.828,,black
Fixation,canvas.Screen,2_29_0_0,2022-06-30T15:14:46.944Z,,,1,A,1651.4750000000931,timeout,,,1062016.1,1062014.622,1060363.151,1060368.1,1060379.828,1062031.303,,black
Stimulus,canvas.Screen,2_29_0_1,2022-06-30T15:14:47.044Z,,,1,A,99.71799999987707,timeout,,,1062116.1,1062114.344,1062014.622,1062016.5,1062031.303,1062131.021,,black
Reaction,canvas.Screen,2_29_0_2,2022-06-30T15:14:47.177Z,,,1,A,116.37900000018999,response,stim_detected,mousedown,1062249.1,1062247.4000000001,1062114.344,1062116.3,1062131.021,1062264.402,,black
Trial,flow.Sequence,2_29_0,2022-06-30T15:14:47.178Z,,,1,A,1867.5720000001602,completion,,,1062249.5,1062247.4000000001,1060363.151,1060368.1,1060379.828,1062264.402,,black
Frame,canvas.Frame,2_29,2022-06-30T15:14:47.178Z,,,1,A,1869.8720000002068,,,,1062249.9000000001,1062249.7000000002,1060363.151,1060367.1,1060379.828,1062264.402,,black
Fixation,canvas.Screen,2_30_0_0,2022-06-30T15:14:49.095Z,,,1,AV,1918.3670000000857,timeout,,,1064167.2000000002,1064166.088,1062247.725,1062251.4000000001,1062264.402,1064182.769,,grey
Stimulus,canvas.Screen,2_30_0_1,2022-06-30T15:14:49.196Z,,,1,AV,99.50699999998324,timeout,,,1064267.2000000002,1064265.6,1064166.088,1064167.4000000001,1064182.769,1064282.276,,grey
Reaction,canvas.Screen,2_30_0_2,2022-06-30T15:14:49.318Z,,,1,AV,106.02399999997579,response,stim_detected,mousedown,1064389.9000000001,1064388.3,1064265.6,1064267.4000000001,1064282.276,1064399.205,,grey
Trial,flow.Sequence,2_30_0,2022-06-30T15:14:49.319Z,,,1,AV,2123.8980000000447,completion,,,1064390.3,1064388.3,1062247.725,1062251.1,1062264.402,1064399.205,,grey
Frame,canvas.Frame,2_30,2022-06-30T15:14:49.319Z,,,1,AV,2126.097999999998,,,,1064390.7000000002,1064390.5,1062247.725,1062250,1062264.402,1064399.205,,grey
Fixation,canvas.Screen,2_31_0_0,2022-06-30T15:14:51.246Z,,,1,A,1933.908999999985,timeout,,,1066317.3,1066316.442,1064382.528,1064391.9000000001,1064399.205,1066333.114,,black
Stimulus,canvas.Screen,2_31_0_1,2022-06-30T15:14:51.347Z,,,1,A,100.4409999998752,timeout,,,1066418.3,1066416.88,1066316.442,1066317.5,1066333.114,1066433.555,,black
Reaction,canvas.Screen,2_31_0_2,2022-06-30T15:14:51.503Z,,,1,A,139.8450000002049,response,stim_detected,mousedown,1066575,1066573.4000000001,1066416.88,1066418.5,1066433.555,1066583.905,,black
Trial,flow.Sequence,2_31_0,2022-06-30T15:14:51.504Z,,,1,A,2174.195000000065,completion,,,1066575.4000000001,1066573.4000000001,1064382.528,1064391.9000000001,1064399.205,1066583.905,,black
Frame,canvas.Frame,2_31,2022-06-30T15:14:51.504Z,,,1,A,2176.2949999999255,,,,1066575.7000000002,1066575.5,1064382.528,1064390.9000000001,1064399.205,1066583.905,,black
Fixation,canvas.Screen,2_32_0_0,2022-06-30T15:14:53.216Z,,,0,V,1718.6350000000093,timeout,,,1068287.3,1068285.855,1066567.228,1066576.9000000001,1066583.905,1068302.54,,grey
Stimulus,canvas.Screen,2_32_0_1,2022-06-30T15:14:53.315Z,,,0,V,99.33799999998882,timeout,,,1068386.3,1068385.2,1068285.855,1068287.6,1068302.54,1068401.878,,grey
Reaction,canvas.Screen,2_32_0_2,2022-06-30T15:14:53.531Z,,,0,V,199.4220000000205,response,stim_detected,mousedown,1068603,1068601.3,1068385.2,1068386.6,1068401.878,1068618.612,,grey
Trial,flow.Sequence,2_32_0,2022-06-30T15:14:53.532Z,,,0,V,2017.3950000000186,completion,,,1068603.5,1068601.3,1066567.228,1066576.8,1066583.905,1068618.612,,grey
Frame,canvas.Frame,2_32,2022-06-30T15:14:53.532Z,,,0,V,2019.6950000000652,,,,1068603.7000000002,1068603.6,1066567.228,1066575.9000000001,1066583.905,1068618.612,,grey
Fixation,canvas.Screen,2_33_0_0,2022-06-30T15:14:55.484Z,,,0,V,1951.9469999999274,timeout,,,1070555.4000000001,1070553.876,1068601.935,1068604.9000000001,1068618.612,1070570.559,,grey
Stimulus,canvas.Screen,2_33_0_1,2022-06-30T15:14:55.583Z,,,0,V,98.93500000005588,timeout,,,1070654.4000000001,1070652.821,1070553.876,1070555.7000000002,1070570.559,1070669.494,,grey
Reaction,canvas.Screen,2_33_0_2,2022-06-30T15:14:55.821Z,,,0,V,221.70600000023842,response,stim_detected,mousedown,1070892.8,1070891.2000000002,1070652.821,1070654.6,1070669.494,1070920.125,,grey
Trial,flow.Sequence,2_33_0,2022-06-30T15:14:55.822Z,,,0,V,2272.5880000002217,completion,,,1070893.3,1070891.2000000002,1068601.935,1068604.8,1068618.612,1070920.125,,grey
Frame,canvas.Frame,2_33,2022-06-30T15:14:55.822Z,,,0,V,2274.788000000175,,,,1070893.7000000002,1070893.4000000001,1068601.935,1068604,1068618.612,1070920.125,,grey
Fixation,canvas.Screen,2_34_0_0,2022-06-30T15:14:57.385Z,,,1,AV,1551.8289999999106,timeout,,,1072456.5,1072455.268,1070886.771,1070894.8,1070920.125,1072471.954,,grey
Stimulus,canvas.Screen,2_34_0_1,2022-06-30T15:14:57.484Z,,,1,AV,98.93900000001304,timeout,,,1072555.5,1072554.219,1072455.268,1072456.9000000001,1072471.954,1072570.893,,grey
Reaction,canvas.Screen,2_34_0_2,2022-06-30T15:14:57.639Z,,,1,AV,138.30700000026263,response,stim_detected,mousedown,1072710.9000000001,1072709.2000000002,1072554.219,1072555.7000000002,1072570.893,1072721.329,,grey
Trial,flow.Sequence,2_34_0,2022-06-30T15:14:57.640Z,,,1,AV,1789.0750000001863,completion,,,1072711.5,1072709.2000000002,1070886.771,1070894.8,1070920.125,1072721.329,,grey
Frame,canvas.Frame,2_34,2022-06-30T15:14:57.640Z,,,1,AV,1791.5750000001863,,,,1072711.9000000001,1072711.7000000002,1070886.771,1070893.8,1070920.125,1072721.329,,grey
Fixation,canvas.Screen,2_35_0_0,2022-06-30T15:14:59.252Z,,,0,V,1617.6720000000205,timeout,,,1074323.6,1074322.324,1072704.652,1072713.2000000002,1072721.329,1074339.001,,grey
Stimulus,canvas.Screen,2_35_0_1,2022-06-30T15:14:59.352Z,,,0,V,100.00300000002608,timeout,,,1074423.5,1074422.328,1074322.324,1074323.8,1074339.001,1074439.004,,grey
Reaction,canvas.Screen,2_35_0_2,2022-06-30T15:14:59.538Z,,,0,V,169.09600000013597,response,stim_detected,mousedown,1074609.8,1074608.1,1074422.328,1074423.7000000002,1074439.004,1074622.545,,grey
Trial,flow.Sequence,2_35_0,2022-06-30T15:14:59.538Z,,,0,V,1886.7710000001825,completion,,,1074610.2000000002,1074608.1,1072704.652,1072713.1,1072721.329,1074622.545,,grey
Frame,canvas.Frame,2_35,2022-06-30T15:14:59.539Z,,,0,V,1888.971000000136,,,,1074610.5,1074610.3,1072704.652,1072712.1,1072721.329,1074622.545,,grey
Fixation,canvas.Screen,2_36_0_0,2022-06-30T15:15:02.023Z,,,1,AV,2487.7290000000503,timeout,,,1077094.7000000002,1077093.578,1074605.868,1074611.8,1074622.545,1077110.274,,grey
Stimulus,canvas.Screen,2_36_0_1,2022-06-30T15:15:02.121Z,,,1,AV,97.37599999993108,timeout,,,1077192.7000000002,1077190.973,1077093.578,1077095,1077110.274,1077207.65,,grey
Reaction,canvas.Screen,2_36_0_2,2022-06-30T15:15:02.270Z,,,1,AV,131.5500000002794,response,stim_detected,mousedown,1077341.4000000001,1077339.2000000002,1077190.973,1077192.9000000001,1077207.65,1077357.74,,grey
Trial,flow.Sequence,2_36_0,2022-06-30T15:15:02.270Z,,,1,AV,2716.6550000002608,completion,,,1077341.8,1077339.2000000002,1074605.868,1074611.7000000002,1074622.545,1077357.74,,grey
Frame,canvas.Frame,2_36,2022-06-30T15:15:02.270Z,,,1,AV,2719.4550000000745,,,,1077342.2000000002,1077342,1074605.868,1074610.7000000002,1074622.545,1077357.74,,grey
Fixation,canvas.Screen,2_37_0_0,2022-06-30T15:15:03.855Z,,,1,AV,1584.2090000000317,timeout,,,1078926.8,1078925.273,1077341.063,1077343.2000000002,1077357.74,1078941.949,,grey
Stimulus,canvas.Screen,2_37_0_1,2022-06-30T15:15:03.955Z,,,1,AV,100.15599999995902,timeout,,,1079026.7000000002,1079025.429,1078925.273,1078927,1078941.949,1079042.105,,grey
Reaction,canvas.Screen,2_37_0_2,2022-06-30T15:15:04.162Z,,,1,AV,190.0950000002049,response,stim_detected,mousedown,1079233.8,1079232.2000000002,1079025.429,1079026.9000000001,1079042.105,1079242.286,,grey
Trial,flow.Sequence,2_37_0,2022-06-30T15:15:04.163Z,,,1,AV,1874.4600000001956,completion,,,1079234.3,1079232.2000000002,1077341.063,1077343.1,1077357.74,1079242.286,,grey
Frame,canvas.Frame,2_37,2022-06-30T15:15:04.163Z,,,1,AV,1876.7600000000093,,,,1079234.7000000002,1079234.5,1077341.063,1077342.4000000001,1077357.74,1079242.286,,grey
Fixation,canvas.Screen,2_38_0_0,2022-06-30T15:15:06.241Z,,,0,V,2085.5509999999776,timeout,,,1081312.8,1081311.153,1079225.609,1079236.1,1079242.286,1081327.837,,grey
Stimulus,canvas.Screen,2_38_0_1,2022-06-30T15:15:06.340Z,,,0,V,99.2609999999404,timeout,,,1081411.8,1081410.2,1081311.153,1081313.1,1081327.837,1081427.098,,grey
Reaction,canvas.Screen,2_38_0_2,2022-06-30T15:15:06.489Z,,,0,V,132.002000000095,response,stim_detected,mousedown,1081560.9000000001,1081559.1,1081410.2,1081412,1081427.098,1081577.191,,grey
Trial,flow.Sequence,2_38_0,2022-06-30T15:15:06.490Z,,,0,V,2316.814000000013,completion,,,1081561.5,1081559.1,1079225.609,1079236,1079242.286,1081577.191,,grey
Frame,canvas.Frame,2_38,2022-06-30T15:15:06.490Z,,,0,V,2319.414000000106,,,,1081561.9000000001,1081561.7000000002,1079225.609,1079234.9000000001,1079242.286,1081577.191,,grey
Fixation,canvas.Screen,2_39_0_0,2022-06-30T15:15:08.307Z,,,0,V,1817.65699999989,timeout,,,1083378.9000000001,1083378.172,1081560.514,1081587,1081577.191,1083394.848,,grey
Stimulus,canvas.Screen,2_39_0_1,2022-06-30T15:15:08.407Z,,,0,V,99.50300000002608,timeout,,,1083479,1083477.68,1083378.172,1083379.3,1083394.848,1083494.351,,grey
Reaction,canvas.Screen,2_39_0_2,2022-06-30T15:15:08.591Z,,,0,V,166.64899999997579,response,stim_detected,mousedown,1083662.7000000002,1083661,1083477.68,1083479.2000000002,1083494.351,1083678.579,,grey
Trial,flow.Sequence,2_39_0,2022-06-30T15:15:08.591Z,,,0,V,2083.808999999892,completion,,,1083663.2000000002,1083661,1081560.514,1081586.9000000001,1081577.191,1083678.579,,grey
Frame,canvas.Frame,2_39,2022-06-30T15:15:08.592Z,,,0,V,2086.1089999999385,,,,1083663.5,1083663.3,1081560.514,1081562.1,1081577.191,1083678.579,,grey
Fixation,canvas.Screen,2_40_0_0,2022-06-30T15:15:10.343Z,,,1,AV,1751.6360000001732,timeout,,,1085415,1085413.533,1083661.901,1083664.6,1083678.579,1085430.215,,grey
Stimulus,canvas.Screen,2_40_0_1,2022-06-30T15:15:10.442Z,,,1,AV,99.30899999989197,timeout,,,1085514,1085512.849,1085413.533,1085415.3,1085430.215,1085529.524,,grey
Reaction,canvas.Screen,2_40_0_2,2022-06-30T15:15:10.600Z,,,1,AV,140.57600000011735,response,stim_detected,mousedown,1085672.1,1085670.1,1085512.849,1085514.2000000002,1085529.524,1085679.895,,grey
Trial,flow.Sequence,2_40_0,2022-06-30T15:15:10.601Z,,,1,AV,1991.5210000001825,completion,,,1085672.5,1085670.1,1083661.901,1083664.5,1083678.579,1085679.895,,grey
Frame,canvas.Frame,2_40,2022-06-30T15:15:10.601Z,,,1,AV,1994.0210000001825,,,,1085672.7000000002,1085672.6,1083661.901,1083663.6,1083678.579,1085679.895,,grey
Fixation,canvas.Screen,2_41_0_0,2022-06-30T15:15:12.727Z,,,0,V,2134.101000000024,timeout,,,1087798.1,1087797.323,1085663.218,1085673.9000000001,1085679.895,1087813.996,,grey
Stimulus,canvas.Screen,2_41_0_1,2022-06-30T15:15:12.828Z,,,0,V,100.73600000003353,timeout,,,1087899,1087898.054,1087797.323,1087798.3,1087813.996,1087914.732,,grey
Reaction,canvas.Screen,2_41_0_2,2022-06-30T15:15:13.018Z,,,0,V,172.26799999992363,response,stim_detected,mousedown,1088088.6,1088087,1087898.054,1087899.3,1087914.732,1088098.1,,grey
Trial,flow.Sequence,2_41_0,2022-06-30T15:15:13.018Z,,,0,V,2407.1049999999814,completion,,,1088089,1088087,1085663.218,1085673.8,1085679.895,1088098.1,,grey
Frame,canvas.Frame,2_41,2022-06-30T15:15:13.018Z,,,0,V,2409.2050000000745,,,,1088089.3,1088089.1,1085663.218,1085673,1085679.895,1088098.1,,grey
Fixation,canvas.Screen,2_42_0_0,2022-06-30T15:15:15.047Z,,,0,V,2035.1609999998473,timeout,,,1090118.2000000002,1090116.58,1088081.424,1088091.8,1088098.1,1090133.261,,grey
Stimulus,canvas.Screen,2_42_0_1,2022-06-30T15:15:15.146Z,,,0,V,99.67700000014156,timeout,,,1090217.2000000002,1090216.259,1090116.58,1090118.4000000001,1090133.261,1090232.938,,grey
Reaction,canvas.Screen,2_42_0_2,2022-06-30T15:15:15.323Z,,,0,V,159.96200000005774,response,stim_detected,mousedown,1090394.5,1090392.9000000001,1090216.259,1090217.4000000001,1090232.938,1090416.348,,grey
Trial,flow.Sequence,2_42_0,2022-06-30T15:15:15.324Z,,,0,V,2294.8000000000466,completion,,,1090394.9000000001,1090392.9000000001,1088081.424,1088091.7000000002,1088098.1,1090416.348,,grey
Frame,canvas.Frame,2_42,2022-06-30T15:15:15.324Z,,,0,V,2296.899999999907,,,,1090395.3,1090395,1088081.424,1088089.6,1088098.1,1090416.348,,grey
Fixation,canvas.Screen,2_43_0_0,2022-06-30T15:15:17.464Z,,,1,A,2134.1029999998864,timeout,,,1092535.3,1092533.778,1090382.994,1090417.5,1090416.348,1092550.451,,black
Stimulus,canvas.Screen,2_43_0_1,2022-06-30T15:15:17.565Z,,,1,A,100.76300000003539,timeout,,,1092636.2000000002,1092634.536,1092533.778,1092535.6,1092550.451,1092651.214,,black
Reaction,canvas.Screen,2_43_0_2,2022-06-30T15:15:17.905Z,,,1,A,323.6860000002198,response,stim_detected,mousedown,1092976.6,1092974.9000000001,1092634.536,1092636.5,1092651.214,1092984.688,,black
Trial,flow.Sequence,2_43_0,2022-06-30T15:15:17.906Z,,,1,A,2558.5520000001416,completion,,,1092976.9000000001,1092974.9000000001,1090382.994,1090417.5,1090416.348,1092984.688,,black
Frame,canvas.Frame,2_43,2022-06-30T15:15:17.906Z,,,1,A,2560.752000000095,,,,1092977.3,1092977.1,1090382.994,1090395.4000000001,1090416.348,1092984.688,,black
Fixation,canvas.Screen,2_44_0_0,2022-06-30T15:15:19.649Z,,,1,A,1751.464999999851,timeout,,,1094720.4000000001,1094719.473,1092968.011,1092978.6,1092984.688,1094736.153,,black
Stimulus,canvas.Screen,2_44_0_1,2022-06-30T15:15:19.749Z,,,1,A,99.58100000000559,timeout,,,1094820.4000000001,1094819.058,1094719.473,1094720.7000000002,1094736.153,1094835.734,,black
Reaction,canvas.Screen,2_44_0_2,2022-06-30T15:15:20.130Z,,,1,A,364.16600000020117,response,stim_detected,mousedown,1095201.5,1095199.9000000001,1094819.058,1094820.7000000002,1094835.734,1095219.516,,black
Trial,flow.Sequence,2_44_0,2022-06-30T15:15:20.131Z,,,1,A,2215.2120000000577,completion,,,1095201.9000000001,1095199.9000000001,1092968.011,1092978.5,1092984.688,1095219.516,,black
Frame,canvas.Frame,2_44,2022-06-30T15:15:20.131Z,,,1,A,2217.412000000011,,,,1095202.2000000002,1095202.1,1092968.011,1092977.5,1092984.688,1095219.516,,black
Fixation,canvas.Screen,2_45_0_0,2022-06-30T15:15:22.269Z,,,0,V,2135.3259999998845,timeout,,,1097339.7000000002,1097338.16,1095202.839,1095203.5,1095219.516,1097354.842,,grey
Stimulus,canvas.Screen,2_45_0_1,2022-06-30T15:15:22.368Z,,,0,V,99.34600000013597,timeout,,,1097438.7000000002,1097437.512,1097338.16,1097340,1097354.842,1097454.188,,grey
Reaction,canvas.Screen,2_45_0_2,2022-06-30T15:15:22.557Z,,,0,V,172.6119999999646,response,stim_detected,mousedown,1097628.4000000001,1097626.8,1097437.512,1097439,1097454.188,1097637.785,,grey
Trial,flow.Sequence,2_45_0,2022-06-30T15:15:22.558Z,,,0,V,2407.283999999985,completion,,,1097628.8,1097626.8,1095202.839,1095203.4000000001,1095219.516,1097637.785,,grey
Frame,canvas.Frame,2_45,2022-06-30T15:15:22.558Z,,,0,V,2409.3840000000782,,,,1097629.1,1097628.9000000001,1095202.839,1095202.4000000001,1095219.516,1097637.785,,grey
Fixation,canvas.Screen,2_46_0_0,2022-06-30T15:15:24.785Z,,,1,AV,2233.8360000001267,timeout,,,1099856.6,1099854.95,1097621.108,1097630.1,1097637.785,1099871.621,,grey
Stimulus,canvas.Screen,2_46_0_1,2022-06-30T15:15:24.886Z,,,1,AV,101.05599999986589,timeout,,,1099957.5,1099955.998,1099854.95,1099856.8,1099871.621,1099972.677,,grey
Reaction,canvas.Screen,2_46_0_2,2022-06-30T15:15:25.033Z,,,1,AV,130.12300000013784,response,stim_detected,mousedown,1100104.4000000001,1100102.8,1099955.998,1099957.8,1099972.677,1100106.079,,grey
Trial,flow.Sequence,2_46_0,2022-06-30T15:15:25.034Z,,,1,AV,2465.0150000001304,completion,,,1100104.9000000001,1100102.8,1097621.108,1097629.9000000001,1097637.785,1100106.079,,grey
Frame,canvas.Frame,2_46,2022-06-30T15:15:25.034Z,,,1,AV,2467.215000000084,,,,1100105.1,1100105,1097621.108,1097629.2000000002,1097637.785,1100106.079,,grey
Fixation,canvas.Screen,2_47_0_0,2022-06-30T15:15:26.737Z,,,0,V,1718.1480000000447,timeout,,,1101808.6,1101807.546,1100089.402,1100106.3,1100106.079,1101824.227,,grey
Stimulus,canvas.Screen,2_47_0_1,2022-06-30T15:15:26.838Z,,,0,V,99.752000000095,timeout,,,1101908.6,1101907.302,1101807.546,1101808.8,1101824.227,1101923.979,,grey
Reaction,canvas.Screen,2_47_0_2,2022-06-30T15:15:27.041Z,,,0,V,185.72100000013597,response,stim_detected,mousedown,1102111.7000000002,1102109.7000000002,1101907.302,1101908.8,1101923.979,1102140.74,,grey
Trial,flow.Sequence,2_47_0,2022-06-30T15:15:27.041Z,,,0,V,2003.6210000002757,completion,,,1102112.1,1102109.7000000002,1100089.402,1100106.2000000002,1100106.079,1102140.74,,grey
Frame,canvas.Frame,2_47,2022-06-30T15:15:27.041Z,,,0,V,2006.1210000002757,,,,1102112.4000000001,1102112.2000000002,1100089.402,1100105.3,1100106.079,1102140.74,,grey
Fixation,canvas.Screen,2_48_0_0,2022-06-30T15:15:29.289Z,,,1,AV,2234.5689999999013,timeout,,,1104359.8,1104358.633,1102107.386,1102113.6,1102140.74,1104375.309,,grey
Stimulus,canvas.Screen,2_48_0_1,2022-06-30T15:15:29.389Z,,,1,AV,100.34500000020489,timeout,,,1104459.8,1104458.509,1104358.633,1104360.1,1104375.309,1104475.654,,grey
Reaction,canvas.Screen,2_48_0_2,2022-06-30T15:15:29.539Z,,,1,AV,133.0460000000894,response,stim_detected,mousedown,1104610.5,1104608.7000000002,1104458.509,1104459.9000000001,1104475.654,1104625.747,,grey
Trial,flow.Sequence,2_48_0,2022-06-30T15:15:29.540Z,,,1,AV,2467.9600000001956,completion,,,1104610.8,1104608.7000000002,1102107.386,1102113.4000000001,1102140.74,1104625.747,,grey
Frame,canvas.Frame,2_48,2022-06-30T15:15:29.540Z,,,1,AV,2470.2600000000093,,,,1104611.3,1104611,1102107.386,1102112.5,1102140.74,1104625.747,,grey
Fixation,canvas.Screen,2_49_0_0,2022-06-30T15:15:31.791Z,,,1,A,2251.2450000001118,timeout,,,1106861.8,1106860.316,1104609.07,1104612.5,1104625.747,1106876.992,,black
Stimulus,canvas.Screen,2_49_0_1,2022-06-30T15:15:31.891Z,,,1,A,100.26599999982864,timeout,,,1106961.9000000001,1106960.581,1106860.316,1106862,1106876.992,1106977.258,,black
Reaction,canvas.Screen,2_49_0_2,2022-06-30T15:15:32.071Z,,,1,A,163.3420000001788,response,stim_detected,mousedown,1107142.3,1107140.6,1106960.581,1106962.2000000002,1106977.258,1107144.029,,black
Trial,flow.Sequence,2_49_0,2022-06-30T15:15:32.072Z,,,1,A,2514.853000000119,completion,,,1107142.7000000002,1107140.6,1104609.07,1104612.4000000001,1104625.747,1107144.029,,black
Frame,canvas.Frame,2_49,2022-06-30T15:15:32.072Z,,,1,A,2517.0530000000726,,,,1107143,1107142.8,1104609.07,1104611.5,1104625.747,1107144.029,,black
Fixation,canvas.Screen,2_50_0_0,2022-06-30T15:15:33.960Z,,,1,AV,1902.497999999905,timeout,,,1109031,1109029.839,1107127.352,1107144.4000000001,1107144.029,1109046.527,,grey
Stimulus,canvas.Screen,2_50_0_1,2022-06-30T15:15:34.059Z,,,1,AV,98.61499999999069,timeout,,,1109130,1109128.467,1109029.839,1109031.4000000001,1109046.527,1109145.142,,grey
Reaction,canvas.Screen,2_50_0_2,2022-06-30T15:15:34.233Z,,,1,AV,157.45800000010058,response,stim_detected,mousedown,1109304.1,1109302.6,1109128.467,1109130.2000000002,1109145.142,1109312.091,,grey
Trial,flow.Sequence,2_50_0,2022-06-30T15:15:34.233Z,,,1,AV,2158.5709999999963,completion,,,1109304.5,1109302.6,1107127.352,1107144.2000000002,1107144.029,1109312.091,,grey
Frame,canvas.Frame,2_50,2022-06-30T15:15:34.234Z,,,1,AV,2160.5709999999963,,,,1109304.8,1109304.6,1107127.352,1107143.2000000002,1107144.029,1109312.091,,grey
Fixation,canvas.Screen,2_51_0_0,2022-06-30T15:15:35.778Z,,,1,A,1552.6019999999553,timeout,,,1110849,1110847.999,1109295.415,1109305.8,1109312.091,1110864.693,,black
Stimulus,canvas.Screen,2_51_0_1,2022-06-30T15:15:35.877Z,,,1,A,98.57199999992736,timeout,,,1110947.9000000001,1110946.561,1110847.999,1110849.2000000002,1110864.693,1110963.265,,black
Reaction,canvas.Screen,2_51_0_2,2022-06-30T15:15:36.045Z,,,1,A,151.23500000010245,response,stim_detected,mousedown,1111116.2000000002,1111114.5,1110946.561,1110948.1,1110963.265,1111130.035,,black
Trial,flow.Sequence,2_51_0,2022-06-30T15:15:36.045Z,,,1,A,1802.408999999985,completion,,,1111116.6,1111114.5,1109295.415,1109305.7000000002,1109312.091,1111130.035,,black
Frame,canvas.Frame,2_51,2022-06-30T15:15:36.046Z,,,1,A,1804.6090000001714,,,,1111116.9000000001,1111116.7000000002,1109295.415,1109304.9000000001,1109312.091,1111130.035,,black
Fixation,canvas.Screen,2_52_0_0,2022-06-30T15:15:38.244Z,,,1,A,2200.064000000013,timeout,,,1113315,1113313.431,1111113.358,1111118,1111130.035,1113330.099,,black
Stimulus,canvas.Screen,2_52_0_1,2022-06-30T15:15:38.345Z,,,1,A,101.44000000017695,timeout,,,1113416.2000000002,1113414.861,1113313.431,1113315.3,1113330.099,1113431.539,,black
Reaction,canvas.Screen,2_52_0_2,2022-06-30T15:15:38.628Z,,,1,A,265.96099999989383,response,stim_detected,mousedown,1113699.5,1113697.5,1113414.861,1113416.5,1113431.539,1113715.057,,black
Trial,flow.Sequence,2_52_0,2022-06-30T15:15:38.629Z,,,1,A,2567.465000000084,completion,,,1113700.1,1113697.5,1111113.358,1111117.9000000001,1111130.035,1113715.057,,black
Frame,canvas.Frame,2_52,2022-06-30T15:15:38.629Z,,,1,A,2570.065000000177,,,,1113700.3,1113700.1,1111113.358,1111117,1111130.035,1113715.057,,black
Fixation,canvas.Screen,2_53_0_0,2022-06-30T15:15:41.081Z,,,1,AV,2452.1459999999497,timeout,,,1116152.5,1116150.522,1113698.38,1113701.6,1113715.057,1116167.203,,grey
Stimulus,canvas.Screen,2_53_0_1,2022-06-30T15:15:41.188Z,,,1,AV,100.08600000012666,timeout,,,1116259.5,1116250.608,1116150.522,1116152.8,1116167.203,1116267.289,,grey
Reaction,canvas.Screen,2_53_0_2,2022-06-30T15:15:41.417Z,,,1,AV,219.21099999989383,response,stim_detected,mousedown,1116488.2000000002,1116486.5,1116250.608,1116259.7000000002,1116267.289,1116499.971,,grey
Trial,flow.Sequence,2_53_0,2022-06-30T15:15:41.418Z,,,1,AV,2771.44299999997,completion,,,1116488.6,1116486.5,1113698.38,1113701.5,1113715.057,1116499.971,,grey
Frame,canvas.Frame,2_53,2022-06-30T15:15:41.418Z,,,1,AV,2773.6430000001565,,,,1116489,1116488.7000000002,1113698.38,1113700.5,1113715.057,1116499.971,,grey
Fixation,canvas.Screen,2_54_0_0,2022-06-30T15:15:43.429Z,,,1,A,2016.0520000001416,timeout,,,1118500.4000000001,1118499.362,1116483.295,1116490.1,1116499.971,1118516.023,,black
Stimulus,canvas.Screen,2_54_0_1,2022-06-30T15:15:43.532Z,,,1,A,102.30199999990873,timeout,,,1118603.2000000002,1118601.648,1118499.362,1118500.6,1118516.023,1118618.325,,black
Reaction,canvas.Screen,2_54_0_2,2022-06-30T15:15:43.694Z,,,1,A,145.17500000004657,response,stim_detected,mousedown,1118765.2000000002,1118763.5,1118601.648,1118603.4000000001,1118618.325,1118768.408,,black
Trial,flow.Sequence,2_54_0,2022-06-30T15:15:43.694Z,,,1,A,2263.529000000097,completion,,,1118765.5,1118763.5,1116483.295,1116490,1116499.971,1118768.408,,black
Frame,canvas.Frame,2_54,2022-06-30T15:15:43.695Z,,,1,A,2265.62900000019,,,,1118765.8,1118765.6,1116483.295,1116489.1,1116499.971,1118768.408,,black
Fixation,canvas.Screen,2_55_0_0,2022-06-30T15:15:45.399Z,,,1,A,1717.9729999999981,timeout,,,1120470.5,1120469.702,1118751.731,1118767,1118768.408,1120486.381,,black
Stimulus,canvas.Screen,2_55_0_1,2022-06-30T15:15:45.499Z,,,1,A,99.37599999993108,timeout,,,1120570.2000000002,1120569.084,1120469.702,1120470.7000000002,1120486.381,1120585.757,,black
Reaction,canvas.Screen,2_55_0_2,2022-06-30T15:15:45.721Z,,,1,A,204.54300000006333,response,stim_detected,mousedown,1120791.9000000001,1120790.3,1120569.084,1120570.5,1120585.757,1120803.043,,black
Trial,flow.Sequence,2_55_0,2022-06-30T15:15:45.721Z,,,1,A,2021.8919999999925,completion,,,1120792.3,1120790.3,1118751.731,1118766.8,1118768.408,1120803.043,,black
Frame,canvas.Frame,2_55,2022-06-30T15:15:45.721Z,,,1,A,2023.9920000000857,,,,1120792.6,1120792.4000000001,1118751.731,1118766,1118768.408,1120803.043,,black
Fixation,canvas.Screen,2_56_0_0,2022-06-30T15:15:47.468Z,,,1,A,1751.5479999999516,timeout,,,1122539.5,1122537.91,1120786.366,1120793.6,1120803.043,1122554.591,,black
Stimulus,canvas.Screen,2_56_0_1,2022-06-30T15:15:47.567Z,,,1,A,99.50699999998324,timeout,,,1122638.4000000001,1122637.422,1122537.91,1122539.8,1122554.591,1122654.098,,black
Reaction,canvas.Screen,2_56_0_2,2022-06-30T15:15:47.988Z,,,1,A,403.20200000004843,response,stim_detected,mousedown,1123059,1123057.3,1122637.422,1122638.7000000002,1122654.098,1123071.192,,black
Trial,flow.Sequence,2_56_0,2022-06-30T15:15:47.988Z,,,1,A,2254.2569999999832,completion,,,1123059.3,1123057.3,1120786.366,1120793.5,1120803.043,1123071.192,,black
Frame,canvas.Frame,2_56,2022-06-30T15:15:47.989Z,,,1,A,2256.4569999999367,,,,1123059.6,1123059.5,1120786.366,1120792.8,1120803.043,1123071.192,,black
Fixation,canvas.Screen,2_57_0_0,2022-06-30T15:15:50.055Z,,,1,AV,2069.3859999999404,timeout,,,1125125.6,1125123.89,1123054.515,1123061.1,1123071.192,1125140.578,,grey
Stimulus,canvas.Screen,2_57_0_1,2022-06-30T15:15:50.152Z,,,1,AV,98.73300000000745,timeout,,,1125223.6,1125222.634,1125123.89,1125125.9000000001,1125140.578,1125239.311,,grey
Reaction,canvas.Screen,2_57_0_2,2022-06-30T15:15:50.365Z,,,1,AV,195.08900000015274,response,stim_detected,mousedown,1125435.8,1125434.4000000001,1125222.634,1125223.8,1125239.311,1125439.498,,grey
Trial,flow.Sequence,2_57_0,2022-06-30T15:15:50.365Z,,,1,AV,2363.2080000001006,completion,,,1125436.2000000002,1125434.4000000001,1123054.515,1123061,1123071.192,1125439.498,,grey
Frame,canvas.Frame,2_57,2022-06-30T15:15:50.365Z,,,1,AV,2365.2080000001006,,,,1125436.6,1125436.4000000001,1123054.515,1123059.8,1123071.192,1125439.498,,grey
Fixation,canvas.Screen,2_58_0_0,2022-06-30T15:15:52.820Z,,,1,AV,2467.0550000001676,timeout,,,1127890.9000000001,1127889.883,1125422.821,1125437.5,1125439.498,1127906.553,,grey
Stimulus,canvas.Screen,2_58_0_1,2022-06-30T15:15:52.922Z,,,1,AV,101.4429999999702,timeout,,,1127992.8,1127991.318,1127889.883,1127891.2000000002,1127906.553,1128007.996,,grey
Reaction,canvas.Screen,2_58_0_2,2022-06-30T15:15:53.096Z,,,1,AV,157.20400000014342,response,stim_detected,mousedown,1128166.9000000001,1128165.2000000002,1127991.318,1127993.1,1128007.996,1128191.303,,grey
Trial,flow.Sequence,2_58_0,2022-06-30T15:15:53.096Z,,,1,AV,2725.7020000002813,completion,,,1128167.3,1128165.2000000002,1125422.821,1125437.4000000001,1125439.498,1128191.303,,grey
Frame,canvas.Frame,2_58,2022-06-30T15:15:53.096Z,,,1,AV,2727.9020000002347,,,,1128167.6,1128167.4000000001,1125422.821,1125436.7000000002,1125439.498,1128191.303,,grey
Fixation,canvas.Screen,2_59_0_0,2022-06-30T15:15:54.823Z,,,0,V,1717.8569999998435,timeout,,,1129893.8,1129892.482,1128157.949,1128168.9000000001,1128191.303,1129909.16,,grey
Stimulus,canvas.Screen,2_59_0_1,2022-06-30T15:15:54.923Z,,,0,V,99.73600000003353,timeout,,,1129993.7000000002,1129992.221,1129892.482,1129894.1,1129909.16,1130008.896,,grey
Reaction,canvas.Screen,2_59_0_2,2022-06-30T15:15:55.189Z,,,0,V,249.40400000009686,response,stim_detected,mousedown,1130260.5,1130258.3,1129992.221,1129994,1130008.896,1130275.982,,grey
Trial,flow.Sequence,2_59_0,2022-06-30T15:15:55.190Z,,,0,V,2066.996999999974,completion,,,1130260.9000000001,1130258.3,1128157.949,1128168.8,1128191.303,1130275.982,,grey
Frame,canvas.Frame,2_59,2022-06-30T15:15:55.190Z,,,0,V,2069.6969999999274,,,,1130261.2000000002,1130261,1128157.949,1128167.8,1128191.303,1130275.982,,grey
Fixation,canvas.Screen,2_60_0_0,2022-06-30T15:15:57.175Z,,,1,A,1985.5439999999944,timeout,,,1132245.8,1132244.841,1130259.305,1130262.4000000001,1130275.982,1132261.526,,black
Stimulus,canvas.Screen,2_60_0_1,2022-06-30T15:15:57.273Z,,,1,A,99.16899999999441,timeout,,,1132344.5,1132343.777,1132244.841,1132246,1132261.526,1132360.695,,black
Reaction,canvas.Screen,2_60_0_2,2022-06-30T15:15:57.446Z,,,1,A,154.50500000012107,response,stim_detected,mousedown,1132516.9000000001,1132515.2000000002,1132343.777,1132344.7000000002,1132360.695,1132527.465,,black
Trial,flow.Sequence,2_60_0,2022-06-30T15:15:57.446Z,,,1,A,2239.21800000011,completion,,,1132517.2000000002,1132515.2000000002,1130259.305,1130262.3,1130275.982,1132527.465,,black
Frame,canvas.Frame,2_60,2022-06-30T15:15:57.446Z,,,1,A,2241.31799999997,,,,1132517.6,1132517.3,1130259.305,1130261.3,1130275.982,1132527.465,,black
Fixation,canvas.Screen,2_61_0_0,2022-06-30T15:15:59.610Z,,,0,V,2169.1149999999907,timeout,,,1134681,1134679.895,1132510.788,1132518.7000000002,1132527.465,1134696.58,,grey
Stimulus,canvas.Screen,2_61_0_1,2022-06-30T15:15:59.709Z,,,0,V,99.0449999999255,timeout,,,1134780.5,1134778.948,1134679.895,1134681.2000000002,1134696.58,1134795.625,,grey
Reaction,canvas.Screen,2_61_0_2,2022-06-30T15:15:59.901Z,,,0,V,174.47500000009313,response,stim_detected,mousedown,1134971.9000000001,1134970.1,1134778.948,1134780.8,1134795.625,1134979.107,,grey
Trial,flow.Sequence,2_61_0,2022-06-30T15:15:59.901Z,,,0,V,2442.6350000000093,completion,,,1134972.4000000001,1134970.1,1132510.788,1132518.6,1132527.465,1134979.107,,grey
Frame,canvas.Frame,2_61,2022-06-30T15:15:59.902Z,,,0,V,2445.034999999916,,,,1134972.7000000002,1134972.5,1132510.788,1132517.8,1132527.465,1134979.107,,grey
Fixation,canvas.Screen,2_62_0_0,2022-06-30T15:16:01.510Z,,,1,AV,1617.783999999985,timeout,,,1136580.9000000001,1136580.213,1134962.43,1134973.8,1134979.107,1136596.891,,grey
Stimulus,canvas.Screen,2_62_0_1,2022-06-30T15:16:01.610Z,,,1,AV,99.97799999988638,timeout,,,1136681.1,1136680.193,1136580.213,1136581.1,1136596.891,1136696.869,,grey
Reaction,canvas.Screen,2_62_0_2,2022-06-30T15:16:01.812Z,,,1,AV,184.2310000001453,response,stim_detected,mousedown,1136883,1136881.1,1136680.193,1136681.3,1136696.869,1136896.987,,grey
Trial,flow.Sequence,2_62_0,2022-06-30T15:16:01.812Z,,,1,AV,1901.9930000000168,completion,,,1136883.3,1136881.1,1134962.43,1134973.7000000002,1134979.107,1136896.987,,grey
Frame,canvas.Frame,2_62,2022-06-30T15:16:01.813Z,,,1,AV,1904.3929999999236,,,,1136883.7000000002,1136883.5,1134962.43,1134972.9000000001,1134979.107,1136896.987,,grey
Fixation,canvas.Screen,2_63_0_0,2022-06-30T15:16:03.596Z,,,1,AV,1785.6790000000037,timeout,,,1138667,1138665.978,1136880.311,1136884.8,1136896.987,1138682.666,,grey
Stimulus,canvas.Screen,2_63_0_1,2022-06-30T15:16:03.695Z,,,1,AV,98.97800000011921,timeout,,,1138766,1138764.967,1138665.978,1138667.3,1138682.666,1138781.644,,grey
Reaction,canvas.Screen,2_63_0_2,2022-06-30T15:16:03.867Z,,,1,AV,154.4560000000056,response,stim_detected,mousedown,1138937.7000000002,1138936.1,1138764.967,1138766.3,1138781.644,1138948.404,,grey
Trial,flow.Sequence,2_63_0,2022-06-30T15:16:03.867Z,,,1,AV,2039.1130000001285,completion,,,1138938.1,1138936.1,1136880.311,1136884.7000000002,1136896.987,1138948.404,,grey
Frame,canvas.Frame,2_63,2022-06-30T15:16:03.867Z,,,1,AV,2041.2130000002217,,,,1138938.5,1138938.2000000002,1136880.311,1136883.9000000001,1136896.987,1138948.404,,grey
Fixation,canvas.Screen,2_64_0_0,2022-06-30T15:16:05.981Z,,,1,AV,2118.723999999929,timeout,,,1141052.2000000002,1141050.445,1138931.727,1138960.4000000001,1138948.404,1141067.128,,grey
Stimulus,canvas.Screen,2_64_0_1,2022-06-30T15:16:06.080Z,,,1,AV,99.15299999993294,timeout,,,1141151.1,1141149.606,1141050.445,1141052.5,1141067.128,1141166.281,,grey
Reaction,canvas.Screen,2_64_0_2,2022-06-30T15:16:06.380Z,,,1,AV,282.719000000041,response,stim_detected,mousedown,1141451.4000000001,1141449,1141149.606,1141151.3,1141166.281,1141466.701,,grey
Trial,flow.Sequence,2_64_0,2022-06-30T15:16:06.381Z,,,1,AV,2500.595999999903,completion,,,1141451.8,1141449,1138931.727,1138960.3,1138948.404,1141466.701,,grey
Frame,canvas.Frame,2_64,2022-06-30T15:16:06.381Z,,,1,AV,2503.496000000043,,,,1141452,1141451.9000000001,1138931.727,1138938.6,1138948.404,1141466.701,,grey
Fixation,canvas.Screen,2_65_0_0,2022-06-30T15:16:07.965Z,,,0,V,1585.12900000019,timeout,,,1143036.2000000002,1143035.145,1141450.024,1141453.3,1141466.701,1143051.83,,grey
Stimulus,canvas.Screen,2_65_0_1,2022-06-30T15:16:08.064Z,,,0,V,99.22600000002421,timeout,,,1143135.3,1143134.38,1143035.145,1143036.5,1143051.83,1143151.056,,grey
Reaction,canvas.Screen,2_65_0_2,2022-06-30T15:16:08.242Z,,,0,V,161.0439999999944,response,stim_detected,mousedown,1143313.6,1143312.1,1143134.38,1143135.6,1143151.056,1143317.957,,grey
Trial,flow.Sequence,2_65_0,2022-06-30T15:16:08.243Z,,,0,V,1845.3990000002086,completion,,,1143314,1143312.1,1141450.024,1141453.2000000002,1141466.701,1143317.957,,grey
Frame,canvas.Frame,2_65,2022-06-30T15:16:08.243Z,,,0,V,1847.3990000002086,,,,1143314.2000000002,1143314.1,1141450.024,1141452.3,1141466.701,1143317.957,,grey
Fixation,canvas.Screen,2_66_0_0,2022-06-30T15:16:10.349Z,,,1,AV,2134.383000000147,timeout,,,1145420.3,1145418.99,1143301.28,1143315.3,1143317.957,1145452.34,,grey
Stimulus,canvas.Screen,2_66_0_1,2022-06-30T15:16:10.466Z,,,1,AV,100.31999999983236,timeout,,,1145537.3,1145535.984,1145418.99,1145420.5,1145452.34,1145552.66,,grey
Reaction,canvas.Screen,2_66_0_2,2022-06-30T15:16:10.694Z,,,1,AV,211.34000000008382,response,stim_detected,mousedown,1145765.6,1145764,1145535.984,1145537.6,1145552.66,1145769.57,,grey
Trial,flow.Sequence,2_66_0,2022-06-30T15:16:10.695Z,,,1,AV,2446.0430000000633,completion,,,1145766,1145764,1143301.28,1143315.2000000002,1143317.957,1145769.57,,grey
Frame,canvas.Frame,2_66,2022-06-30T15:16:10.695Z,,,1,AV,2448.1430000001565,,,,1145766.3,1145766.1,1143301.28,1143314.4000000001,1143317.957,1145769.57,,grey
Fixation,canvas.Screen,2_67_0_0,2022-06-30T15:16:12.417Z,,,1,A,1733.8159999998752,timeout,,,1147488.4000000001,1147486.714,1145752.893,1145767.5,1145769.57,1147503.386,,black
Stimulus,canvas.Screen,2_67_0_1,2022-06-30T15:16:12.517Z,,,1,A,100.82799999997951,timeout,,,1147588.1,1147587.536,1147486.714,1147488.6,1147503.386,1147604.214,,black
Reaction,canvas.Screen,2_67_0_2,2022-06-30T15:16:12.679Z,,,1,A,143.6860000002198,response,stim_detected,mousedown,1147749.5,1147747.9000000001,1147587.536,1147588.3,1147604.214,1147770.862,,black
Trial,flow.Sequence,2_67_0,2022-06-30T15:16:12.680Z,,,1,A,1978.3300000000745,completion,,,1147750,1147747.9000000001,1145752.893,1145767.5,1145769.57,1147770.862,,black
Frame,canvas.Frame,2_67,2022-06-30T15:16:12.680Z,,,1,A,1980.530000000028,,,,1147750.4000000001,1147750.1,1145752.893,1145766.5,1145769.57,1147770.862,,black
Fixation,canvas.Screen,2_68_0_0,2022-06-30T15:16:14.737Z,,,0,V,2052.06799999997,timeout,,,1149807.5,1149806.247,1147737.508,1147751.7000000002,1147770.862,1149822.93,,grey
Stimulus,canvas.Screen,2_68_0_1,2022-06-30T15:16:14.836Z,,,0,V,99.39400000008754,timeout,,,1149906.5,1149905.647,1149806.247,1149807.8,1149822.93,1149922.324,,grey
Reaction,canvas.Screen,2_68_0_2,2022-06-30T15:16:15.048Z,,,0,V,194.67599999997765,response,stim_detected,mousedown,1150118.5,1150117,1149905.647,1149906.8,1149922.324,1150122.386,,grey
Trial,flow.Sequence,2_68_0,2022-06-30T15:16:15.049Z,,,0,V,2346.1380000000354,completion,,,1150118.9000000001,1150117,1147737.508,1147751.6,1147770.862,1150122.386,,grey
Frame,canvas.Frame,2_68,2022-06-30T15:16:15.049Z,,,0,V,2348.1380000000354,,,,1150119.2000000002,1150119,1147737.508,1147750.6,1147770.862,1150122.386,,grey
Fixation,canvas.Screen,2_69_0_0,2022-06-30T15:16:16.839Z,,,1,AV,1802.5870000000577,timeout,,,1151909.5,1151908.283,1150105.71,1150120.3,1150122.386,1151924.973,,grey
Stimulus,canvas.Screen,2_69_0_1,2022-06-30T15:16:16.937Z,,,1,AV,98.5460000000894,timeout,,,1152007.6,1152006.843,1151908.283,1151909.8,1151924.973,1152023.519,,grey
Reaction,canvas.Screen,2_69_0_2,2022-06-30T15:16:17.110Z,,,1,AV,154.38100000005215,response,stim_detected,mousedown,1152179.9000000001,1152177.9000000001,1152006.843,1152007.8,1152023.519,1152190.479,,grey
Trial,flow.Sequence,2_69_0,2022-06-30T15:16:17.110Z,,,1,AV,2055.5140000001993,completion,,,1152180.2000000002,1152177.9000000001,1150105.71,1150120.1,1150122.386,1152190.479,,grey
Frame,canvas.Frame,2_69,2022-06-30T15:16:17.110Z,,,1,AV,2057.914000000106,,,,1152180.5,1152180.3,1150105.71,1150119.4000000001,1150122.386,1152190.479,,grey
Fixation,canvas.Screen,2_70_0_0,2022-06-30T15:16:19.324Z,,,1,AV,2218.3319999999367,timeout,,,1154393.6,1154392.132,1152173.802,1152181.9000000001,1152190.479,1154408.811,,grey
Stimulus,canvas.Screen,2_70_0_1,2022-06-30T15:16:19.424Z,,,1,AV,99.83100000000559,timeout,,,1154493.8,1154491.965,1154392.132,1154394,1154408.811,1154508.642,,grey
Reaction,canvas.Screen,2_70_0_2,2022-06-30T15:16:19.558Z,,,1,AV,117.25800000014715,response,stim_detected,mousedown,1154627.7000000002,1154625.9000000001,1154491.965,1154494.1,1154508.642,1154642.096,,grey
Trial,flow.Sequence,2_70_0,2022-06-30T15:16:19.558Z,,,1,AV,2435.4210000000894,completion,,,1154628.1,1154625.9000000001,1152173.802,1152181.7000000002,1152190.479,1154642.096,,grey
Frame,canvas.Frame,2_70,2022-06-30T15:16:19.558Z,,,1,AV,2437.721000000136,,,,1154628.4000000001,1154628.2000000002,1152173.802,1152180.7000000002,1152190.479,1154642.096,,grey
Fixation,canvas.Screen,2_71_0_0,2022-06-30T15:16:21.876Z,,,1,A,2318.7100000001956,timeout,,,1156945.7000000002,1156944.125,1154625.419,1154629.5,1154642.096,1156960.806,,black
Stimulus,canvas.Screen,2_71_0_1,2022-06-30T15:16:21.975Z,,,1,A,99.13500000000931,timeout,,,1157044.8,1157043.267,1156944.125,1156946,1156960.806,1157059.941,,black
Reaction,canvas.Screen,2_71_0_2,2022-06-30T15:16:22.122Z,,,1,A,130.75900000007823,response,stim_detected,mousedown,1157192.4000000001,1157190.7000000002,1157043.267,1157045.1,1157059.941,1157193.784,,black
Trial,flow.Sequence,2_71_0,2022-06-30T15:16:22.123Z,,,1,A,2548.604000000283,completion,,,1157192.7000000002,1157190.7000000002,1154625.419,1154629.4000000001,1154642.096,1157193.784,,black
Frame,canvas.Frame,2_71,2022-06-30T15:16:22.123Z,,,1,A,2550.8040000002366,,,,1157193,1157192.9000000001,1154625.419,1154628.6,1154642.096,1157193.784,,black
Fixation,canvas.Screen,2_72_0_0,2022-06-30T15:16:24.294Z,,,1,A,2185.371999999974,timeout,,,1159363.9000000001,1159362.474,1157177.107,1157194.4000000001,1157193.784,1159379.156,,black
Stimulus,canvas.Screen,2_72_0_1,2022-06-30T15:16:24.393Z,,,1,A,99.14899999997579,timeout,,,1159462.9000000001,1159461.63,1159362.474,1159364.1,1159379.156,1159478.305,,black
Reaction,canvas.Screen,2_72_0_2,2022-06-30T15:16:24.702Z,,,1,A,291.2950000001583,response,stim_detected,mousedown,1159771.7000000002,1159769.6,1159461.63,1159463.2000000002,1159478.305,1159778.829,,black
Trial,flow.Sequence,2_72_0,2022-06-30T15:16:24.702Z,,,1,A,2575.816000000108,completion,,,1159772.1,1159769.6,1157177.107,1157194.3,1157193.784,1159778.829,,black
Frame,canvas.Frame,2_72,2022-06-30T15:16:24.702Z,,,1,A,2578.6160000001546,,,,1159772.5,1159772.4000000001,1157177.107,1157193.2000000002,1157193.784,1159778.829,,black
Fixation,canvas.Screen,2_73_0_0,2022-06-30T15:16:26.811Z,,,0,V,2117.5500000000466,timeout,,,1161881.2000000002,1161879.705,1159762.152,1159774.1,1159778.829,1161896.379,,grey
Stimulus,canvas.Screen,2_73_0_1,2022-06-30T15:16:26.911Z,,,0,V,100.21699999994598,timeout,,,1161981.3,1161979.921,1161879.705,1161881.4000000001,1161896.379,1161996.596,,grey
Reaction,canvas.Screen,2_73_0_2,2022-06-30T15:16:27.109Z,,,0,V,181.00400000019,response,stim_detected,mousedown,1162179.5,1162177.6,1161979.921,1161981.4000000001,1161996.596,1162197.089,,grey
Trial,flow.Sequence,2_73_0,2022-06-30T15:16:27.110Z,,,0,V,2398.7710000001825,completion,,,1162179.9000000001,1162177.6,1159762.152,1159773.9000000001,1159778.829,1162197.089,,grey
Frame,canvas.Frame,2_73,2022-06-30T15:16:27.110Z,,,0,V,2401.1710000000894,,,,1162180.2000000002,1162180,1159762.152,1159772.8,1159778.829,1162197.089,,grey
Fixation,canvas.Screen,2_74_0_0,2022-06-30T15:16:29.446Z,,,1,AV,2334.0069999999832,timeout,,,1164516.2000000002,1164514.424,1162180.412,1162181.6,1162197.089,1164531.096,,grey
Stimulus,canvas.Screen,2_74_0_1,2022-06-30T15:16:29.546Z,,,1,AV,100.92200000002049,timeout,,,1164616.2000000002,1164615.339,1164514.424,1164516.4000000001,1164531.096,1164632.018,,grey
Reaction,canvas.Screen,2_74_0_2,2022-06-30T15:16:29.682Z,,,1,AV,118.68200000026263,response,stim_detected,mousedown,1164752.2000000002,1164750.7000000002,1164615.339,1164616.4000000001,1164632.018,1164765.438,,grey
Trial,flow.Sequence,2_74_0,2022-06-30T15:16:29.682Z,,,1,AV,2553.6110000002664,completion,,,1164752.6,1164750.7000000002,1162180.412,1162181.5,1162197.089,1164765.438,,grey
Frame,canvas.Frame,2_74,2022-06-30T15:16:29.683Z,,,1,AV,2555.7110000001267,,,,1164752.9000000001,1164752.8,1162180.412,1162180.5,1162197.089,1164765.438,,grey
Fixation,canvas.Screen,2_75_0_0,2022-06-30T15:16:31.481Z,,,0,V,1801.586999999825,timeout,,,1166551.1,1166550.344,1164748.761,1164754,1164765.438,1166567.025,,grey
Stimulus,canvas.Screen,2_75_0_1,2022-06-30T15:16:31.581Z,,,0,V,99.3410000000149,timeout,,,1166651.1,1166649.692,1166550.344,1166551.5,1166567.025,1166666.366,,grey
Reaction,canvas.Screen,2_75_0_2,2022-06-30T15:16:31.732Z,,,0,V,134.23400000017136,response,stim_detected,mousedown,1166802.2000000002,1166800.6,1166649.692,1166651.4000000001,1166666.366,1166816.809,,grey
Trial,flow.Sequence,2_75_0,2022-06-30T15:16:31.732Z,,,0,V,2035.1620000000112,completion,,,1166802.6,1166800.6,1164748.761,1164753.8,1164765.438,1166816.809,,grey
Frame,canvas.Frame,2_75,2022-06-30T15:16:31.733Z,,,0,V,2037.2620000001043,,,,1166802.9000000001,1166802.7000000002,1164748.761,1164753.1,1164765.438,1166816.809,,grey
Fixation,canvas.Screen,2_76_0_0,2022-06-30T15:16:33.516Z,,,0,V,1785.1110000000335,timeout,,,1168586.2000000002,1168585.237,1166800.132,1166804,1166816.809,1168601.92,,grey
Stimulus,canvas.Screen,2_76_0_1,2022-06-30T15:16:33.615Z,,,0,V,99.47100000013597,timeout,,,1168685.3,1168684.393,1168585.237,1168586.5,1168601.92,1168701.391,,grey
Reaction,canvas.Screen,2_76_0_2,2022-06-30T15:16:33.797Z,,,0,V,164.10899999993853,response,stim_detected,mousedown,1168867.2000000002,1168865.5,1168684.393,1168685.5,1168701.391,1168884.838,,grey
Trial,flow.Sequence,2_76_0,2022-06-30T15:16:33.797Z,,,0,V,2048.691000000108,completion,,,1168867.6,1168865.5,1166800.132,1166803.9000000001,1166816.809,1168884.838,,grey
Frame,canvas.Frame,2_76,2022-06-30T15:16:33.798Z,,,0,V,2050.791000000201,,,,1168867.9000000001,1168867.6,1166800.132,1166803.1,1166816.809,1168884.838,,grey
Fixation,canvas.Screen,2_77_0_0,2022-06-30T15:16:35.717Z,,,0,V,1918.1159999999218,timeout,,,1170787.2000000002,1170786.275,1168868.161,1168869.2000000002,1168884.838,1170802.954,,grey
Stimulus,canvas.Screen,2_77_0_1,2022-06-30T15:16:35.817Z,,,0,V,99.57900000014342,timeout,,,1170887.3,1170885.858,1170786.275,1170787.5,1170802.954,1170902.533,,grey
Reaction,canvas.Screen,2_77_0_2,2022-06-30T15:16:35.973Z,,,0,V,138.96699999994598,response,stim_detected,mousedown,1171043.1,1171041.5,1170885.858,1170887.5,1170902.533,1171069.613,,grey
Trial,flow.Sequence,2_77_0,2022-06-30T15:16:35.973Z,,,0,V,2156.662000000011,completion,,,1171043.6,1171041.5,1168868.161,1168869.1,1168884.838,1171069.613,,grey
Frame,canvas.Frame,2_77,2022-06-30T15:16:35.974Z,,,0,V,2158.8620000001974,,,,1171043.9000000001,1171043.7000000002,1168868.161,1168868.1,1168884.838,1171069.613,,grey
Fixation,canvas.Screen,2_78_0_0,2022-06-30T15:16:38.385Z,,,1,AV,2400.8660000001546,timeout,,,1173455.5,1173453.806,1171036.259,1171045,1171069.613,1173470.479,,grey
Stimulus,canvas.Screen,2_78_0_1,2022-06-30T15:16:38.485Z,,,1,AV,100.18299999996088,timeout,,,1173555.5,1173553.989,1173453.806,1173455.8,1173470.479,1173570.662,,grey
Reaction,canvas.Screen,2_78_0_2,2022-06-30T15:16:38.632Z,,,1,AV,129.83799999998882,response,stim_detected,mousedown,1173702.2000000002,1173700.5,1173553.989,1173555.7000000002,1173570.662,1173704.649,,grey
Trial,flow.Sequence,2_78_0,2022-06-30T15:16:38.632Z,,,1,AV,2630.8870000001043,completion,,,1173702.6,1173700.5,1171036.259,1171044.9000000001,1171069.613,1173704.649,,grey
Frame,canvas.Frame,2_78,2022-06-30T15:16:38.633Z,,,1,AV,2633.0870000002906,,,,1173702.9000000001,1173702.7000000002,1171036.259,1171044.1,1171069.613,1173704.649,,grey
Fixation,canvas.Screen,2_79_0_0,2022-06-30T15:16:40.939Z,,,1,A,2318.8540000000503,timeout,,,1176008.9000000001,1176006.821,1173687.972,1173704,1173704.649,1176023.503,,black
Stimulus,canvas.Screen,2_79_0_1,2022-06-30T15:16:41.038Z,,,1,A,99.48200000007637,timeout,,,1176107.9000000001,1176106.307,1176006.821,1176009.1,1176023.503,1176122.985,,black
Reaction,canvas.Screen,2_79_0_2,2022-06-30T15:16:41.186Z,,,1,A,131.51499999989755,response,stim_detected,mousedown,1176256,1176254.5,1176106.307,1176108.1,1176122.985,1176273.04,,black
Trial,flow.Sequence,2_79_0,2022-06-30T15:16:41.186Z,,,1,A,2549.851000000024,completion,,,1176256.4000000001,1176254.5,1173687.972,1173703.9000000001,1173704.649,1176273.04,,black
Frame,canvas.Frame,2_79,2022-06-30T15:16:41.187Z,,,1,A,2551.9510000001173,,,,1176256.8,1176256.6,1173687.972,1173703,1173704.649,1176273.04,,black
Fixation,canvas.Screen,2_80_0_0,2022-06-30T15:16:43.690Z,,,1,A,2502.2069999999367,timeout,,,1178760.1,1178758.566,1176256.363,1176257.8,1176273.04,1178775.247,,black
Stimulus,canvas.Screen,2_80_0_1,2022-06-30T15:16:43.790Z,,,1,A,99.41500000003725,timeout,,,1178860.3,1178857.986,1178758.566,1178760.4000000001,1178775.247,1178874.662,,black
Reaction,canvas.Screen,2_80_0_2,2022-06-30T15:16:43.997Z,,,1,A,190.73800000012852,response,stim_detected,mousedown,1179067,1179065.4000000001,1178857.986,1178860.6,1178874.662,1179074.912,,black
Trial,flow.Sequence,2_80_0,2022-06-30T15:16:43.997Z,,,1,A,2792.3600000001024,completion,,,1179067.4000000001,1179065.4000000001,1176256.363,1176257.7000000002,1176273.04,1179074.912,,black
Frame,canvas.Frame,2_80,2022-06-30T15:16:43.998Z,,,1,A,2794.4599999999627,,,,1179067.7000000002,1179067.5,1176256.363,1176257,1176273.04,1179074.912,,black
Fixation,canvas.Screen,2_81_0_0,2022-06-30T15:16:45.824Z,,,0,V,1834.2229999999981,timeout,,,1180893.7000000002,1180892.46,1179058.235,1179069.2000000002,1179074.912,1180909.135,,grey
Stimulus,canvas.Screen,2_81_0_1,2022-06-30T15:16:45.924Z,,,0,V,100.08100000000559,timeout,,,1180993.7000000002,1180992.541,1180892.46,1180893.9000000001,1180909.135,1181009.216,,grey
Reaction,canvas.Screen,2_81_0_2,2022-06-30T15:16:46.133Z,,,0,V,192.08400000003166,response,stim_detected,mousedown,1181202.9000000001,1181201.3,1180992.541,1180993.9000000001,1181009.216,1181209.641,,grey
Trial,flow.Sequence,2_81_0,2022-06-30T15:16:46.133Z,,,0,V,2126.3880000000354,completion,,,1181203.3,1181201.3,1179058.235,1179069.1,1179074.912,1181209.641,,grey
Frame,canvas.Frame,2_81,2022-06-30T15:16:46.134Z,,,0,V,2128.587999999989,,,,1181203.6,1181203.5,1179058.235,1179067.9000000001,1179074.912,1181209.641,,grey
Fixation,canvas.Screen,2_82_0_0,2022-06-30T15:16:47.925Z,,,1,A,1800.7560000000522,timeout,,,1182994.8,1182993.723,1181192.964,1181204.9000000001,1181209.641,1183010.397,,black
Stimulus,canvas.Screen,2_82_0_1,2022-06-30T15:16:48.026Z,,,1,A,100.52299999981187,timeout,,,1183095.9000000001,1183094.242,1182993.723,1182995.1,1183010.397,1183110.92,,black
Reaction,canvas.Screen,2_82_0_2,2022-06-30T15:16:48.230Z,,,1,A,187.88000000012107,response,stim_detected,mousedown,1183300.4000000001,1183298.8,1183094.242,1183096,1183110.92,1183311.022,,black
Trial,flow.Sequence,2_82_0,2022-06-30T15:16:48.231Z,,,1,A,2089.158999999985,completion,,,1183300.8,1183298.8,1181192.964,1181204.7000000002,1181209.641,1183311.022,,black
Frame,canvas.Frame,2_82,2022-06-30T15:16:48.231Z,,,1,A,2091.3589999999385,,,,1183301.2000000002,1183301,1181192.964,1181203.8,1181209.641,1183311.022,,black
Fixation,canvas.Screen,2_83_0_0,2022-06-30T15:16:50.428Z,,,1,AV,2201.934999999823,timeout,,,1185497.9000000001,1185496.276,1183294.345,1183302.1,1183311.022,1185512.957,,grey
Stimulus,canvas.Screen,2_83_0_1,2022-06-30T15:16:50.828Z,,,1,AV,399.66599999996834,timeout,,,1185897.7000000002,1185895.947,1185496.276,1185498.1,1185512.957,1185912.623,,grey
Reaction,canvas.Screen,2_83_0_2,2022-06-30T15:16:52.328Z,,,1,AV,1501.068000000203,timeout,,,1187398.2000000002,1187397.014,1185895.947,1185898.2000000002,1185912.623,1187413.691,,grey
Trial,flow.Sequence,2_83_0,2022-06-30T15:16:52.329Z,,,1,AV,4085.991999999853,completion,,,1187398.7000000002,1187397.014,1183294.345,1183302.1,1183311.022,1187413.691,,grey
Frame,canvas.Frame,2_83,2022-06-30T15:16:52.329Z,,,1,AV,4087.777999999933,,,,1187399.1,1187398.8,1183294.345,1183301.3,1183311.022,1187430.368,,grey
Fixation,canvas.Screen,2_84_0_0,2022-06-30T15:16:54.713Z,,,1,A,2368.0100000000093,timeout,,,1189783,1189781.702,1187413.691,1187400.2000000002,1187430.368,1189798.378,,black
Stimulus,canvas.Screen,2_84_0_1,2022-06-30T15:16:54.811Z,,,1,A,97.88299999991432,timeout,,,1189881.1,1189879.6,1189781.702,1189783.4000000001,1189798.378,1189896.261,,black
Reaction,canvas.Screen,2_84_0_2,2022-06-30T15:16:54.977Z,,,1,A,148.93900000024587,response,stim_detected,mousedown,1190046.9000000001,1190045.2000000002,1189879.6,1189881.3,1189896.261,1190048.833,,black
Trial,flow.Sequence,2_84_0,2022-06-30T15:16:54.977Z,,,1,A,2614.8320000001695,completion,,,1190047.3,1190045.2000000002,1187413.691,1187400,1187430.368,1190048.833,,black
Frame,canvas.Frame,2_84,2022-06-30T15:16:54.978Z,,,1,A,2617.2320000000764,,,,1190047.8,1190047.6,1187413.691,1187399.2000000002,1187430.368,1190048.833,,black
Fixation,canvas.Screen,2_85_0_0,2022-06-30T15:16:56.813Z,,,1,AV,1850.277999999933,timeout,,,1191883.2000000002,1191882.441,1190032.156,1190049.7000000002,1190048.833,1191899.111,,grey
Stimulus,canvas.Screen,2_85_0_1,2022-06-30T15:16:56.914Z,,,1,AV,100.99900000006892,timeout,,,1191984.1,1191983.315,1191882.441,1191883.4000000001,1191899.111,1192000.11,,grey
Reaction,canvas.Screen,2_85_0_2,2022-06-30T15:16:57.057Z,,,1,AV,125.09000000008382,response,stim_detected,mousedown,1192126.8,1192125.2000000002,1191983.315,1191984.5,1192000.11,1192133.526,,grey
Trial,flow.Sequence,2_85_0,2022-06-30T15:16:57.057Z,,,1,AV,2076.3670000000857,completion,,,1192127.2000000002,1192125.2000000002,1190032.156,1190049.6,1190048.833,1192133.526,,grey
Frame,canvas.Frame,2_85,2022-06-30T15:16:57.057Z,,,1,AV,2078.567000000039,,,,1192127.6,1192127.4000000001,1190032.156,1190048.1,1190048.833,1192133.526,,grey
Fixation,canvas.Screen,2_86_0_0,2022-06-30T15:16:59.466Z,,,1,AV,2418.1679999998305,timeout,,,1194536.4000000001,1194535.017,1192116.849,1192128.9000000001,1192133.526,1194551.694,,grey
Stimulus,canvas.Screen,2_86_0_1,2022-06-30T15:16:59.566Z,,,1,AV,99.84600000013597,timeout,,,1194636.4000000001,1194634.865,1194535.017,1194536.6,1194551.694,1194651.54,,grey
Reaction,canvas.Screen,2_86_0_2,2022-06-30T15:16:59.733Z,,,1,AV,149.660000000149,response,stim_detected,mousedown,1194802.9000000001,1194801.2000000002,1194634.865,1194636.7000000002,1194651.54,1194818.621,,grey
Trial,flow.Sequence,2_86_0,2022-06-30T15:16:59.733Z,,,1,AV,2667.6740000001155,completion,,,1194803.4000000001,1194801.2000000002,1192116.849,1192128.8,1192133.526,1194818.621,,grey
Frame,canvas.Frame,2_86,2022-06-30T15:16:59.734Z,,,1,AV,2670.1740000001155,,,,1194803.8,1194803.7000000002,1192116.849,1192127.7000000002,1192133.526,1194818.621,,grey
Fixation,canvas.Screen,2_87_0_0,2022-06-30T15:17:01.918Z,,,0,V,2185.1180000000168,timeout,,,1196988.3,1196987.059,1194801.944,1194804.9000000001,1194818.621,1197003.739,,grey
Stimulus,canvas.Screen,2_87_0_1,2022-06-30T15:17:02.019Z,,,0,V,99.7269999999553,timeout,,,1197089.3,1197086.789,1196987.059,1196988.6,1197003.739,1197103.466,,grey
Reaction,canvas.Screen,2_87_0_2,2022-06-30T15:17:02.179Z,,,0,V,143.63400000007823,response,stim_detected,mousedown,1197248.7000000002,1197247.1,1197086.789,1197089.6,1197103.466,1197253.578,,grey
Trial,flow.Sequence,2_87_0,2022-06-30T15:17:02.179Z,,,0,V,2428.4790000000503,completion,,,1197249.3,1197247.1,1194801.944,1194804.8,1194818.621,1197253.578,,grey
Frame,canvas.Frame,2_87,2022-06-30T15:17:02.179Z,,,0,V,2430.779000000097,,,,1197249.6,1197249.4000000001,1194801.944,1194804,1194818.621,1197253.578,,grey
Fixation,canvas.Screen,2_88_0_0,2022-06-30T15:17:03.984Z,,,1,A,1816.221000000136,timeout,,,1199054.5,1199053.135,1197236.901,1197250.7000000002,1197253.578,1199069.799,,black
Stimulus,canvas.Screen,2_88_0_1,2022-06-30T15:17:04.086Z,,,1,A,101.86799999978393,timeout,,,1199156.4000000001,1199154.985,1199053.135,1199054.8,1199069.799,1199171.667,,black
Reaction,canvas.Screen,2_88_0_2,2022-06-30T15:17:04.479Z,,,1,A,375.3330000001006,response,stim_detected,mousedown,1199549,1199547,1199154.985,1199156.6,1199171.667,1199555.09,,black
Trial,flow.Sequence,2_88_0,2022-06-30T15:17:04.479Z,,,1,A,2293.4220000000205,completion,,,1199549.4000000001,1199547,1197236.901,1197250.6,1197253.578,1199555.09,,black
Frame,canvas.Frame,2_88,2022-06-30T15:17:04.480Z,,,1,A,2296.0220000001136,,,,1199549.8,1199549.6,1197236.901,1197249.8,1197253.578,1199555.09,,black
Fixation,canvas.Screen,2_89_0_0,2022-06-30T15:17:06.336Z,,,0,V,1866.8589999999385,timeout,,,1201406.5,1201405.279,1199538.413,1199551,1199555.09,1201421.949,,grey
Stimulus,canvas.Screen,2_89_0_1,2022-06-30T15:17:06.437Z,,,0,V,100.98600000003353,timeout,,,1201507.5,1201506.259,1201405.279,1201406.8,1201421.949,1201522.935,,grey
Reaction,canvas.Screen,2_89_0_2,2022-06-30T15:17:06.582Z,,,0,V,128.06499999994412,response,stim_detected,mousedown,1201652.6,1201651,1201506.259,1201507.8,1201522.935,1201656.447,,grey
Trial,flow.Sequence,2_89_0,2022-06-30T15:17:06.583Z,,,0,V,2095.909999999916,completion,,,1201653,1201651,1199538.413,1199550.9000000001,1199555.09,1201656.447,,grey
Frame,canvas.Frame,2_89,2022-06-30T15:17:06.583Z,,,0,V,2098.0100000000093,,,,1201653.2000000002,1201653.1,1199538.413,1199550,1199555.09,1201656.447,,grey
Fixation,canvas.Screen,2_90_0_0,2022-06-30T15:17:08.573Z,,,0,V,2002.8919999999925,timeout,,,1203643.6,1203642.649,1201639.77,1201654.3,1201656.447,1203659.339,,grey
Stimulus,canvas.Screen,2_90_0_1,2022-06-30T15:17:08.671Z,,,0,V,97.83300000010058,timeout,,,1203741.6,1203740.5,1203642.649,1203643.9000000001,1203659.339,1203757.172,,grey
Reaction,canvas.Screen,2_90_0_2,2022-06-30T15:17:08.928Z,,,0,V,239.7280000001192,response,stim_detected,mousedown,1203998.6,1203996.9000000001,1203740.5,1203741.9000000001,1203757.172,1204074.757,,grey
Trial,flow.Sequence,2_90_0,2022-06-30T15:17:08.929Z,,,0,V,2340.4530000002123,completion,,,1203999.3,1203996.9000000001,1201639.77,1201654.2000000002,1201656.447,1204074.757,,grey
Frame,canvas.Frame,2_90,2022-06-30T15:17:08.929Z,,,0,V,2342.9530000002123,,,,1203999.5,1203999.4000000001,1201639.77,1201653.5,1201656.447,1204074.757,,grey
Loop,flow.Loop,2,2022-06-30T15:17:08.930Z,,,,,215116.34000000008,completion,,,1203999.9000000001,1203999.4000000001,988833.017,988846.7000000001,988883.06,1204074.757,,
end,html.Page,3,2022-06-30T15:17:15.121Z,,,,,6114.243000000017,form submission,,,1210189.6,1210189,1204058.08,1204000.1,1204074.757,1210315.356,,
root,flow.Sequence,,2022-06-30T15:17:15.195Z,,,,,1208675.135,completion,,,1210263.7000000002,1210189,1497.189,1505.2000000000116,1513.865,1210315.356,,