sender,sender_type,sender_id,timestamp,meta,,aud,condition,duration,ended_on,response,response_action,time_commit,time_end,time_render,time_run,time_show,time_switch,url,vis
Instructions,html.Page,0,2022-06-24T12:05:25.665Z,"{""labjs_version"":""20.2.4"",""labjs_build"":{""flavor"":""production"",""commit"":""f5b4a49f956347addd546a832a3327688c2c0fef""},""location"":""file:///C:/Users/Proband%207/Desktop/RTE/index.html"",""userAgent"":""Mozilla/5.0 (Windows NT 6.1; Win64; x64) AppleWebKit/537.36 (KHTML, like Gecko) Chrome/102.0.0.0 Safari/537.36"",""platform"":""Win32"",""language"":""de-DE"",""locale"":""de"",""timeZone"":""Europe/Berlin"",""timezoneOffset"":-120,""screen_width"":1366,""screen_height"":768,""scroll_width"":1366,""scroll_height"":609,""window_innerWidth"":1366,""window_innerHeight"":657,""devicePixelRatio"":1}",,,,725536.4150000002,form submission,,,727137.1000000001,727135.7000000002,1582.612,1586,1599.285,727154.743,{},
Change Background,canvas.Screen,1,2022-06-24T12:05:28.670Z,,,,,3001.7909999999683,timeout,,,730142,730139.858,727121.389,727137.8000000003,727154.743,730156.534,,
Fixation,canvas.Screen,2_0_0_0,2022-06-24T12:05:30.705Z,,,1,AV,2034.951000000001,timeout,,,732176.7000000002,732174.807,730139.858,730143.6000000001,730156.534,732191.485,,grey
Stimulus,canvas.Screen,2_0_0_1,2022-06-24T12:05:30.804Z,,,1,AV,99.87300000002142,timeout,,,732276,732274.681,732174.807,732177.1000000001,732191.485,732291.358,,grey
Reaction,canvas.Screen,2_0_0_2,2022-06-24T12:05:31.150Z,,,1,AV,328.8420000001788,response,stim_detected,mousedown,732622.2000000002,732620.2000000002,732274.681,732276.1000000001,732291.358,732625.002,,grey
Trial,flow.Sequence,2_0_0,2022-06-24T12:05:31.151Z,,,1,AV,2463.666000000201,completion,,,732623,732620.2000000002,730139.858,730143.6000000001,730156.534,732625.002,,grey
Frame,canvas.Frame,2_0,2022-06-24T12:05:31.152Z,,,1,AV,2466.666000000201,,,,732623.7000000002,732623.2000000002,730139.858,730142.6000000001,730156.534,732625.002,,grey
Fixation,canvas.Screen,2_1_0_0,2022-06-24T12:05:32.839Z,,,0,V,1700.701000000001,timeout,,,734310.8000000003,734309.029,732608.325,732625,732625.002,734325.703,,grey
Stimulus,canvas.Screen,2_1_0_1,2022-06-24T12:05:32.939Z,,,0,V,100.63300000003073,timeout,,,734410.7000000002,734409.656,734309.029,734311.2000000002,734325.703,734426.336,,grey
Reaction,canvas.Screen,2_1_0_2,2022-06-24T12:05:33.306Z,,,0,V,349.864000000176,response,stim_detected,mousedown,734777.8000000003,734776.2000000002,734409.656,734411.2000000002,734426.336,734793.174,,grey
Trial,flow.Sequence,2_1_0,2022-06-24T12:05:33.306Z,,,0,V,2151.1980000002077,completion,,,734778.6000000001,734776.2000000002,732608.325,732624.9000000004,732625.002,734793.174,,grey
Frame,canvas.Frame,2_1,2022-06-24T12:05:33.307Z,,,0,V,2153.798000000301,,,,734779.1000000001,734778.8000000003,732608.325,732624,732625.002,734793.174,,grey
Fixation,canvas.Screen,2_2_0_0,2022-06-24T12:05:35.623Z,,,1,A,2317.1119999999646,timeout,,,737094.9000000004,737093.615,734776.497,734780.7000000002,734793.174,737110.286,,black
Stimulus,canvas.Screen,2_2_0_1,2022-06-24T12:05:35.724Z,,,1,A,101.04399999999441,timeout,,,737195.9000000004,737194.653,737093.615,737095.2000000002,737110.286,737211.33,,black
Reaction,canvas.Screen,2_2_0_2,2022-06-24T12:05:36.090Z,,,1,A,348.8700000002282,response,stim_detected,mousedown,737561.8000000003,737560.2000000002,737194.653,737196.1000000001,737211.33,737578.359,,black
Trial,flow.Sequence,2_2_0,2022-06-24T12:05:36.091Z,,,1,A,2767.026000000187,completion,,,737563.1000000001,737560.2000000002,734776.497,734780.5,734793.174,737578.359,,black
Frame,canvas.Frame,2_2,2022-06-24T12:05:36.091Z,,,1,A,2770.1260000002803,,,,737563.5,737563.3000000003,734776.497,734779.4000000004,734793.174,737578.359,,black
Fixation,canvas.Screen,2_3_0_0,2022-06-24T12:05:38.076Z,,,0,V,1984.561999999918,timeout,,,739547.9000000004,739546.244,737561.682,737564.9000000004,737578.359,739562.921,,grey
Stimulus,canvas.Screen,2_3_0_1,2022-06-24T12:05:38.176Z,,,0,V,100.20100000000093,timeout,,,739648,739646.445,739546.244,739548.2000000002,739562.921,739663.122,,grey
Reaction,canvas.Screen,2_3_0_2,2022-06-24T12:05:38.615Z,,,0,V,422.07800000021234,response,stim_detected,mousedown,740086.8000000003,740085.2000000002,739646.445,739648.4000000004,739663.122,740113.368,,grey
Trial,flow.Sequence,2_3_0,2022-06-24T12:05:38.615Z,,,0,V,2506.8410000001313,completion,,,740087.1000000001,740085.2000000002,737561.682,737564.8000000003,737578.359,740113.368,,grey
Frame,canvas.Frame,2_3,2022-06-24T12:05:38.615Z,,,0,V,2508.9410000002244,,,,740087.5,740087.3000000003,737561.682,737563.7000000002,737578.359,740113.368,,grey
Fixation,canvas.Screen,2_4_0_0,2022-06-24T12:05:40.228Z,,,1,AV,1601.621999999974,timeout,,,741700,741698.307,740080.014,740088.5,740113.368,741714.99,,grey
Stimulus,canvas.Screen,2_4_0_1,2022-06-24T12:05:40.327Z,,,1,AV,99.47600000002421,timeout,,,741799,741797.789,741698.307,741700.3000000003,741714.99,741814.466,,grey
Reaction,canvas.Screen,2_4_0_2,2022-06-24T12:05:41.287Z,,,1,AV,942.7340000001714,response,stim_detected,mousedown,742759,742757.2000000002,741797.789,741799.2000000002,741814.466,742765.122,,grey
Trial,flow.Sequence,2_4_0,2022-06-24T12:05:41.287Z,,,1,AV,2643.8320000001695,completion,,,742759.5,742757.2000000002,740080.014,740088.4000000004,740113.368,742765.122,,grey
Frame,canvas.Frame,2_4,2022-06-24T12:05:41.288Z,,,1,AV,2646.2320000000764,,,,742759.8000000003,742759.6000000001,740080.014,740087.6000000001,740113.368,742765.122,,grey
Fixation,canvas.Screen,2_5_0_0,2022-06-24T12:05:42.812Z,,,0,V,1534,timeout,,,744284.3000000003,744282.447,742748.445,742761,742765.122,744299.122,,grey
Stimulus,canvas.Screen,2_5_0_1,2022-06-24T12:05:42.912Z,,,0,V,100.39300000004005,timeout,,,744384.3000000003,744382.838,744282.447,744284.7000000002,744299.122,744399.515,,grey
Reaction,canvas.Screen,2_5_0_2,2022-06-24T12:05:43.132Z,,,0,V,203.58500000007916,response,stim_detected,mousedown,744604.6000000001,744603.1000000001,744382.838,744384.5,744399.515,744616.36,,grey
Trial,flow.Sequence,2_5_0,2022-06-24T12:05:43.133Z,,,0,V,1837.9780000001192,completion,,,744605,744603.1000000001,742748.445,742760.8000000003,742765.122,744616.36,,grey
Frame,canvas.Frame,2_5,2022-06-24T12:05:43.133Z,,,0,V,1839.9780000001192,,,,744605.2000000002,744605.1000000001,742748.445,742760,742765.122,744616.36,,grey
Fixation,canvas.Screen,2_6_0_0,2022-06-24T12:05:45.215Z,,,0,V,2085.817000000039,timeout,,,746687.2000000002,746685.491,744599.683,744606.5,744616.36,746702.177,,grey
Stimulus,canvas.Screen,2_6_0_1,2022-06-24T12:05:45.313Z,,,0,V,98.99300000001676,timeout,,,746785.4000000004,746784.31,746685.491,746687.7000000002,746702.177,746801.17,,grey
Reaction,canvas.Screen,2_6_0_2,2022-06-24T12:05:45.672Z,,,0,V,341.03000000014435,response,stim_detected,mousedown,747143.9000000004,747142.2000000002,746784.31,746785.6000000001,746801.17,747151.387,,grey
Trial,flow.Sequence,2_6_0,2022-06-24T12:05:45.672Z,,,0,V,2525.8400000002002,completion,,,747144.3000000003,747142.2000000002,744599.683,744606.4000000004,744616.36,747151.387,,grey
Frame,canvas.Frame,2_6,2022-06-24T12:05:45.673Z,,,0,V,2528.140000000014,,,,747144.7000000002,747144.5,744599.683,744605.5,744616.36,747151.387,,grey
Fixation,canvas.Screen,2_7_0_0,2022-06-24T12:05:47.633Z,,,1,AV,1968.9070000000065,timeout,,,749105.3000000003,749103.609,747134.71,747145.9000000004,747151.387,749120.294,,grey
Stimulus,canvas.Screen,2_7_0_1,2022-06-24T12:05:47.732Z,,,1,AV,99.03700000001118,timeout,,,749204.4000000004,749202.655,749103.609,749105.5,749120.294,749219.331,,grey
Reaction,canvas.Screen,2_7_0_2,2022-06-24T12:05:47.909Z,,,1,AV,160.6689999999944,response,stim_detected,mousedown,749381.5,749380,749202.655,749204.6000000001,749219.331,749386.249,,grey
Trial,flow.Sequence,2_7_0,2022-06-24T12:05:47.910Z,,,1,AV,2228.613000000012,completion,,,749381.9000000004,749380,747134.71,747145.8000000003,747151.387,749386.249,,grey
Frame,canvas.Frame,2_7,2022-06-24T12:05:47.910Z,,,1,AV,2230.613000000012,,,,749382.2000000002,749382,747134.71,747144.9000000004,747151.387,749386.249,,grey
Fixation,canvas.Screen,2_8_0_0,2022-06-24T12:05:49.934Z,,,0,V,2035.1110000000335,timeout,,,751406.4000000004,751404.679,749369.572,749383.4000000004,749386.249,751421.36,,grey
Stimulus,canvas.Screen,2_8_0_1,2022-06-24T12:05:50.033Z,,,0,V,99.51800000004005,timeout,,,751505.5,751504.202,751404.679,751406.6000000001,751421.36,751520.878,,grey
Reaction,canvas.Screen,2_8_0_2,2022-06-24T12:05:50.234Z,,,0,V,160.12199999997392,response,stim_detected,mousedown,751706.3000000003,751681,751504.202,751505.7000000002,751520.878,751721.155,,grey
Trial,flow.Sequence,2_8_0,2022-06-24T12:05:50.235Z,,,0,V,2294.7510000000475,completion,,,751706.8000000003,751681,749369.572,749383.3000000003,749386.249,751721.155,,grey
Frame,canvas.Frame,2_8,2022-06-24T12:05:50.235Z,,,0,V,2320.65100000042,,,,751707,751706.9000000004,749369.572,749382.4000000004,749386.249,751721.155,,grey
Fixation,canvas.Screen,2_9_0_0,2022-06-24T12:05:52.434Z,,,1,AV,2200.9340000000084,timeout,,,753906.6000000001,753905.415,751704.478,751708,751721.155,753922.089,,grey
Stimulus,canvas.Screen,2_9_0_1,2022-06-24T12:05:52.534Z,,,1,AV,100.10800000000745,timeout,,,754006.5,754005.523,753905.415,753906.8000000003,753922.089,754022.197,,grey
Reaction,canvas.Screen,2_9_0_2,2022-06-24T12:05:52.662Z,,,1,AV,109.90300000004936,response,stim_detected,mousedown,754133.9000000004,754132.1000000001,754005.523,754006.7000000002,754022.197,754139.409,,grey
Trial,flow.Sequence,2_9_0,2022-06-24T12:05:52.662Z,,,1,AV,2410.945000000065,completion,,,754134.2000000002,754132.1000000001,751704.478,751708,751721.155,754139.409,,grey
Frame,canvas.Frame,2_9,2022-06-24T12:05:52.662Z,,,1,AV,2413.2450000003446,,,,754134.5,754134.4000000004,751704.478,751707.2000000002,751721.155,754139.409,,grey
Fixation,canvas.Screen,2_10_0_0,2022-06-24T12:05:54.905Z,,,1,A,2252.521999999997,timeout,,,756376.7000000002,756375.246,754122.732,754135.7000000002,754139.409,756391.931,,black
Stimulus,canvas.Screen,2_10_0_1,2022-06-24T12:05:55.004Z,,,1,A,99.10699999995995,timeout,,,756475.7000000002,756474.361,756375.246,756376.9000000004,756391.931,756491.038,,black
Reaction,canvas.Screen,2_10_0_2,2022-06-24T12:05:55.458Z,,,1,A,437.0620000001509,response,stim_detected,mousedown,756929.8000000003,756928.1000000001,756474.361,756476,756491.038,756941.294,,black
Trial,flow.Sequence,2_10_0,2022-06-24T12:05:55.458Z,,,1,A,2788.691000000108,completion,,,756930.2000000002,756928.1000000001,754122.732,754135.6000000001,754139.409,756941.294,,black
Frame,canvas.Frame,2_10,2022-06-24T12:05:55.458Z,,,1,A,2790.8910000002943,,,,756930.5,756930.3000000003,754122.732,754134.7000000002,754139.409,756941.294,,black
Fixation,canvas.Screen,2_11_0_0,2022-06-24T12:05:57.423Z,,,1,A,1968.3379999999888,timeout,,,758894.8000000003,758892.952,756924.617,756932.2000000002,756941.294,758909.632,,black
Stimulus,canvas.Screen,2_11_0_1,2022-06-24T12:05:57.522Z,,,1,A,99.70299999997951,timeout,,,758993.9000000004,758992.658,758892.952,758895.1000000001,758909.632,759009.335,,black
Reaction,canvas.Screen,2_11_0_2,2022-06-24T12:05:57.682Z,,,1,A,143.76500000013039,response,stim_detected,mousedown,759154.5,759153.1000000001,758992.658,758994.1000000001,759009.335,759159.42,,black
Trial,flow.Sequence,2_11_0,2022-06-24T12:05:57.683Z,,,1,A,2211.8060000000987,completion,,,759154.9000000004,759153.1000000001,756924.617,756932.1000000001,756941.294,759159.42,,black
Frame,canvas.Frame,2_11,2022-06-24T12:05:57.683Z,,,1,A,2213.8060000000987,,,,759155.2000000002,759155.1000000001,756924.617,756930.7000000002,756941.294,759159.42,,black
Fixation,canvas.Screen,2_12_0_0,2022-06-24T12:05:59.407Z,,,1,A,1734.7609999999404,timeout,,,760878.9000000004,760877.501,759142.743,759156.3000000003,759159.42,760894.181,,black
Stimulus,canvas.Screen,2_12_0_1,2022-06-24T12:05:59.507Z,,,1,A,99.89199999999255,timeout,,,760978.9000000004,760977.394,760877.501,760879.3000000003,760894.181,760994.073,,black
Reaction,canvas.Screen,2_12_0_2,2022-06-24T12:05:59.704Z,,,1,A,179.92700000002515,response,stim_detected,mousedown,761175.7000000002,761174,760977.394,760979.2000000002,760994.073,761177.469,,black
Trial,flow.Sequence,2_12_0,2022-06-24T12:05:59.704Z,,,1,A,2014.579999999958,completion,,,761176.1000000001,761174,759142.743,759156.2000000002,759159.42,761177.469,,black
Frame,canvas.Frame,2_12,2022-06-24T12:05:59.704Z,,,1,A,2016.7800000001444,,,,761176.4000000004,761176.2000000002,759142.743,759155.4000000004,759159.42,761177.469,,black
Fixation,canvas.Screen,2_13_0_0,2022-06-24T12:06:02.076Z,,,1,AV,2385.4139999999898,timeout,,,763548,763546.202,761160.792,761177.6000000001,761177.469,763562.883,,grey
Stimulus,canvas.Screen,2_13_0_1,2022-06-24T12:06:02.175Z,,,1,AV,99.65299999993294,timeout,,,763647.1000000001,763645.858,763546.202,763548.3000000003,763562.883,763662.536,,grey
Reaction,canvas.Screen,2_13_0_2,2022-06-24T12:06:02.331Z,,,1,AV,139.46400000003632,response,stim_detected,mousedown,763803.5,763802,763645.858,763647.3000000003,763662.536,763812.569,,grey
Trial,flow.Sequence,2_13_0,2022-06-24T12:06:02.332Z,,,1,AV,2624.530999999959,completion,,,763804,763802,761160.792,761177.5,761177.469,763812.569,,grey
Frame,canvas.Frame,2_13,2022-06-24T12:06:02.332Z,,,1,AV,2626.631000000052,,,,763804.3000000003,763804.1000000001,761160.792,761176.7000000002,761177.469,763812.569,,grey
Fixation,canvas.Screen,2_14_0_0,2022-06-24T12:06:04.377Z,,,1,A,2051.954999999958,timeout,,,765849.1000000001,765847.842,763795.892,763805.3000000003,763812.569,765864.524,,black
Stimulus,canvas.Screen,2_14_0_1,2022-06-24T12:06:04.476Z,,,1,A,99.4780000000028,timeout,,,765948.1000000001,765946.712,765847.842,765849.3000000003,765864.524,765964.002,,black
Reaction,canvas.Screen,2_14_0_2,2022-06-24T12:06:04.635Z,,,1,A,141.89800000039395,response,stim_detected,mousedown,766107.5,766105.9000000004,765946.712,765948.3000000003,765964.002,766114.095,,black
Trial,flow.Sequence,2_14_0,2022-06-24T12:06:04.636Z,,,1,A,2293.331000000355,completion,,,766107.9000000004,766105.9000000004,763795.892,763805.3000000003,763812.569,766114.095,,black
Frame,canvas.Frame,2_14,2022-06-24T12:06:04.636Z,,,1,A,2295.5310000000754,,,,766108.2000000002,766108.1000000001,763795.892,763804.4000000004,763812.569,766114.095,,black
Fixation,canvas.Screen,2_15_0_0,2022-06-24T12:06:06.678Z,,,1,A,2051.9259999999776,timeout,,,768150.2000000002,768149.339,766097.418,766109.3000000003,766114.095,768166.021,,black
Stimulus,canvas.Screen,2_15_0_1,2022-06-24T12:06:06.778Z,,,1,A,99.38500000000931,timeout,,,768250.1000000001,768248.73,768149.339,768150.5,768166.021,768265.406,,black
Reaction,canvas.Screen,2_15_0_2,2022-06-24T12:06:06.907Z,,,1,A,112.49400000041351,response,stim_detected,mousedown,768379.4000000004,768377.9000000004,768248.73,768250.4000000004,768265.406,768398.979,,black
Trial,flow.Sequence,2_15_0,2022-06-24T12:06:06.908Z,,,1,A,2263.8050000004005,completion,,,768379.9000000004,768377.9000000004,766097.418,766109.2000000002,766114.095,768398.979,,black
Frame,canvas.Frame,2_15,2022-06-24T12:06:06.908Z,,,1,A,2265.905000000028,,,,768380.2000000002,768380,766097.418,766108.4000000004,766114.095,768398.979,,black
Fixation,canvas.Screen,2_16_0_0,2022-06-24T12:06:08.628Z,,,0,V,1717.1599999999162,timeout,,,770100.3000000003,770099.467,768365.625,768381.5,768398.979,770116.139,,grey
Stimulus,canvas.Screen,2_16_0_1,2022-06-24T12:06:08.729Z,,,0,V,100.75300000002608,timeout,,,770201.2000000002,770200.213,770099.467,770100.7000000002,770116.139,770216.892,,grey
Reaction,canvas.Screen,2_16_0_2,2022-06-24T12:06:09.110Z,,,0,V,364.00800000038,response,stim_detected,mousedown,770582.4000000004,770580.9000000004,770200.213,770201.5,770216.892,770600.401,,grey
Trial,flow.Sequence,2_16_0,2022-06-24T12:06:09.111Z,,,0,V,2181.9210000003222,completion,,,770582.8000000003,770580.9000000004,768365.625,768381.3000000003,768398.979,770600.401,,grey
Frame,canvas.Frame,2_16,2022-06-24T12:06:09.111Z,,,0,V,2183.9210000003222,,,,770583.2000000002,770582.9000000004,768365.625,768380.4000000004,768398.979,770600.401,,grey
Fixation,canvas.Screen,2_17_0_0,2022-06-24T12:06:11.381Z,,,1,AV,2268.404000000097,timeout,,,772853.4000000004,772852.126,770583.724,770584.4000000004,770600.401,772868.805,,grey
Stimulus,canvas.Screen,2_17_0_1,2022-06-24T12:06:11.481Z,,,1,AV,99.93699999991804,timeout,,,772953.4000000004,772952.063,772852.126,772853.7000000002,772868.805,772968.742,,grey
Reaction,canvas.Screen,2_17_0_2,2022-06-24T12:06:11.660Z,,,1,AV,161.958000000217,response,stim_detected,mousedown,773131.6000000001,773130.7000000002,772952.063,772953.6000000001,772968.742,773135.469,,grey
Trial,flow.Sequence,2_17_0,2022-06-24T12:06:11.660Z,,,1,AV,2530.299000000232,completion,,,773131.8000000003,773130.7000000002,770583.724,770584.3000000003,770600.401,773135.469,,grey
Frame,canvas.Frame,2_17,2022-06-24T12:06:11.660Z,,,1,AV,2531.399000000325,,,,773132,773131.8000000003,770583.724,770583.4000000004,770600.401,773135.469,,grey
Fixation,canvas.Screen,2_18_0_0,2022-06-24T12:06:14.084Z,,,0,V,2435.3249999999534,timeout,,,775555.6000000001,775554.114,773118.792,773132.8000000003,773135.469,775570.794,,grey
Stimulus,canvas.Screen,2_18_0_1,2022-06-24T12:06:14.183Z,,,0,V,99.69900000002235,timeout,,,775654.7000000002,775653.592,775554.114,775555.8000000003,775570.794,775670.493,,grey
Reaction,canvas.Screen,2_18_0_2,2022-06-24T12:06:14.468Z,,,0,V,268.30700000026263,response,stim_detected,mousedown,775940.4000000004,775938.8000000003,775653.592,775654.9000000004,775670.493,775954.002,,grey
Trial,flow.Sequence,2_18_0,2022-06-24T12:06:14.469Z,,,0,V,2803.3310000002384,completion,,,775940.9000000004,775938.8000000003,773118.792,773132.8000000003,773135.469,775954.002,,grey
Frame,canvas.Frame,2_18,2022-06-24T12:06:14.469Z,,,0,V,2805.631000000052,,,,775941.3000000003,775941.1000000001,773118.792,773132,773135.469,775954.002,,grey
Fixation,canvas.Screen,2_19_0_0,2022-06-24T12:06:16.701Z,,,1,AV,2234.4259999999776,timeout,,,778172.7000000002,778171.753,775937.325,775942.3000000003,775954.002,778188.428,,grey
Stimulus,canvas.Screen,2_19_0_1,2022-06-24T12:06:16.801Z,,,1,AV,100.55900000000838,timeout,,,778273.6000000001,778272.309,778171.753,778173,778188.428,778288.987,,grey
Reaction,canvas.Screen,2_19_0_2,2022-06-24T12:06:16.985Z,,,1,AV,166.91300000040792,response,stim_detected,mousedown,778457.3000000003,778455.9000000004,778272.309,778273.8000000003,778288.987,778472.349,,grey
Trial,flow.Sequence,2_19_0,2022-06-24T12:06:16.986Z,,,1,AV,2501.898000000394,completion,,,778457.7000000002,778455.9000000004,775937.325,775942.2000000002,775954.002,778472.349,,grey
Frame,canvas.Frame,2_19,2022-06-24T12:06:16.986Z,,,1,AV,2503.898000000394,,,,778458,778457.9000000004,775937.325,775941.4000000004,775954.002,778472.349,,grey
Fixation,canvas.Screen,2_20_0_0,2022-06-24T12:06:19.021Z,,,1,AV,2035.5,timeout,,,780492.8000000003,780491.165,778455.672,778459,778472.349,780507.849,,grey
Stimulus,canvas.Screen,2_20_0_1,2022-06-24T12:06:19.120Z,,,1,AV,98.9639999999199,timeout,,,780591.9000000004,780590.138,780491.165,780493.1000000001,780507.849,780606.813,,grey
Reaction,canvas.Screen,2_20_0_2,2022-06-24T12:06:19.271Z,,,1,AV,135.087000000407,response,stim_detected,mousedown,780743.3000000003,780741.9000000004,780590.138,780592.1000000001,780606.813,780757.223,,grey
Trial,flow.Sequence,2_20_0,2022-06-24T12:06:19.272Z,,,1,AV,2269.551000000327,completion,,,780743.8000000003,780741.9000000004,778455.672,778458.9000000004,778472.349,780757.223,,grey
Frame,canvas.Frame,2_20,2022-06-24T12:06:19.272Z,,,1,AV,2271.4510000002338,,,,780744,780743.8000000003,778455.672,778458.1000000001,778472.349,780757.223,,grey
Fixation,canvas.Screen,2_21_0_0,2022-06-24T12:06:21.156Z,,,0,V,1885.2240000000456,timeout,,,782626.8000000003,782625.764,780740.546,780745.1000000001,780757.223,782642.447,,grey
Stimulus,canvas.Screen,2_21_0_1,2022-06-24T12:06:21.255Z,,,0,V,99.21299999998882,timeout,,,782725.9000000004,782724.985,782625.764,782627.1000000001,782642.447,782741.66,,grey
Reaction,canvas.Screen,2_21_0_2,2022-06-24T12:06:21.471Z,,,0,V,199.1400000002468,response,stim_detected,mousedown,782942.2000000002,782940.8000000003,782724.985,782726.1000000001,782741.66,782958.667,,grey
Trial,flow.Sequence,2_21_0,2022-06-24T12:06:21.472Z,,,0,V,2183.5770000002813,completion,,,782942.6000000001,782940.8000000003,780740.546,780745,780757.223,782958.667,,grey
Frame,canvas.Frame,2_21,2022-06-24T12:06:21.472Z,,,0,V,2185.477000000188,,,,782943,782942.7000000002,780740.546,780744.3000000003,780757.223,782958.667,,grey
Fixation,canvas.Screen,2_22_0_0,2022-06-24T12:06:23.725Z,,,1,A,2252.4619999999413,timeout,,,785196.1000000001,785194.445,782941.99,782944.4000000004,782958.667,785211.129,,black
Stimulus,canvas.Screen,2_22_0_1,2022-06-24T12:06:23.824Z,,,1,A,99.04899999999907,timeout,,,785294.9000000004,785293.501,785194.445,785196.5,785211.129,785310.178,,black
Reaction,canvas.Screen,2_22_0_2,2022-06-24T12:06:24.047Z,,,1,A,206.62200000032317,response,stim_detected,mousedown,785518.3000000003,785516.8000000003,785293.501,785295.2000000002,785310.178,785527.093,,black
Trial,flow.Sequence,2_22_0,2022-06-24T12:06:24.048Z,,,1,A,2558.1330000002636,completion,,,785518.7000000002,785516.8000000003,782941.99,782944.3000000003,782958.667,785527.093,,black
Frame,canvas.Frame,2_22,2022-06-24T12:06:24.048Z,,,1,A,2560.2330000003567,,,,785519.1000000001,785518.9000000004,782941.99,782943.3000000003,782958.667,785527.093,,black
Fixation,canvas.Screen,2_23_0_0,2022-06-24T12:06:26.242Z,,,1,A,2201.366000000038,timeout,,,787713.2000000002,787711.782,785510.416,785520.7000000002,785527.093,787728.459,,black
Stimulus,canvas.Screen,2_23_0_1,2022-06-24T12:06:26.343Z,,,1,A,100.13699999998789,timeout,,,787813.6000000001,787811.919,787711.782,787713.4000000004,787728.459,787828.596,,black
Reaction,canvas.Screen,2_23_0_2,2022-06-24T12:06:26.545Z,,,1,A,186.1040000001667,response,stim_detected,mousedown,788016.1000000001,788014.7000000002,787811.919,787813.9000000004,787828.596,788028.765,,black
Trial,flow.Sequence,2_23_0,2022-06-24T12:06:26.545Z,,,1,A,2487.607000000193,completion,,,788016.6000000001,788014.7000000002,785510.416,785520.6000000001,785527.093,788028.765,,black
Frame,canvas.Frame,2_23,2022-06-24T12:06:26.546Z,,,1,A,2489.607000000193,,,,788016.9000000004,788016.7000000002,785510.416,785519.4000000004,785527.093,788028.765,,black
Fixation,canvas.Screen,2_24_0_0,2022-06-24T12:06:28.077Z,,,1,AV,1534.576999999932,timeout,,,789548.2000000002,789546.662,788012.088,788018,788028.765,789563.342,,grey
Stimulus,canvas.Screen,2_24_0_1,2022-06-24T12:06:28.176Z,,,1,AV,99.81300000008196,timeout,,,789647.2000000002,789646.369,789546.662,789548.5,789563.342,789663.155,,grey
Reaction,canvas.Screen,2_24_0_2,2022-06-24T12:06:28.360Z,,,1,AV,166.64500000025146,response,stim_detected,mousedown,789831.1000000001,789829.8000000003,789646.369,789647.5,789663.155,789846.602,,grey
Trial,flow.Sequence,2_24_0,2022-06-24T12:06:28.360Z,,,1,AV,1801.0350000002654,completion,,,789831.5,789829.8000000003,788012.088,788017.8000000003,788028.765,789846.602,,grey
Frame,canvas.Frame,2_24,2022-06-24T12:06:28.361Z,,,1,AV,1802.8350000000792,,,,789831.9000000004,789831.6000000001,788012.088,788017.1000000001,788028.765,789846.602,,grey
Fixation,canvas.Screen,2_25_0_0,2022-06-24T12:06:30.178Z,,,0,V,1818.173000000068,timeout,,,791649.4000000004,791648.095,789829.925,789833.2000000002,789846.602,791664.775,,grey
Stimulus,canvas.Screen,2_25_0_1,2022-06-24T12:06:30.278Z,,,0,V,99.88500000000931,timeout,,,791749.4000000004,791747.981,791648.095,791649.7000000002,791664.775,791764.66,,grey
Reaction,canvas.Screen,2_25_0_2,2022-06-24T12:06:30.468Z,,,0,V,172.3399999999674,response,stim_detected,mousedown,791938.8000000003,791937,791747.981,791749.7000000002,791764.66,791948.042,,grey
Trial,flow.Sequence,2_25_0,2022-06-24T12:06:30.468Z,,,0,V,2090.3980000000447,completion,,,791939.2000000002,791937,789829.925,789833.1000000001,789846.602,791948.042,,grey
Frame,canvas.Frame,2_25,2022-06-24T12:06:30.468Z,,,0,V,2092.7980000004172,,,,791939.6000000001,791939.4000000004,789829.925,789832.1000000001,789846.602,791948.042,,grey
Fixation,canvas.Screen,2_26_0_0,2022-06-24T12:06:32.646Z,,,1,AV,2185.125,timeout,,,794117.5,794116.487,791931.365,791940.7000000002,791948.042,794133.167,,grey
Stimulus,canvas.Screen,2_26_0_1,2022-06-24T12:06:32.746Z,,,1,AV,99.7149999999674,timeout,,,794217.4000000004,794216.205,794116.487,794117.6000000001,794133.167,794232.882,,grey
Reaction,canvas.Screen,2_26_0_2,2022-06-24T12:06:32.933Z,,,1,AV,169.81800000020303,response,stim_detected,mousedown,794404,794402.7000000002,794216.205,794217.6000000001,794232.882,794416.357,,grey
Trial,flow.Sequence,2_26_0,2022-06-24T12:06:32.933Z,,,1,AV,2454.6580000001704,completion,,,794404.5,794402.7000000002,791931.365,791940.5,791948.042,794416.357,,grey
Frame,canvas.Frame,2_26,2022-06-24T12:06:32.934Z,,,1,AV,2456.5580000000773,,,,794404.9000000004,794404.6000000001,791931.365,791939.7000000002,791948.042,794416.357,,grey
Fixation,canvas.Screen,2_27_0_0,2022-06-24T12:06:34.681Z,,,1,A,1751.9040000000969,timeout,,,796152.3000000003,796151.577,794399.68,794406.1000000001,794416.357,796168.261,,black
Stimulus,canvas.Screen,2_27_0_1,2022-06-24T12:06:34.781Z,,,1,A,99.13099999993574,timeout,,,796252.1000000001,796250.717,796151.577,796152.5,796168.261,796267.392,,black
Reaction,canvas.Screen,2_27_0_2,2022-06-24T12:06:34.993Z,,,1,A,196.00800000037998,response,stim_detected,mousedown,796464.2000000002,796463.4000000004,796250.717,796252.2000000002,796267.392,796467.685,,black
Trial,flow.Sequence,2_27_0,2022-06-24T12:06:34.993Z,,,1,A,2047.0430000004126,completion,,,796464.3000000003,796463.4000000004,794399.68,794405.9000000004,794416.357,796467.685,,black
Frame,canvas.Frame,2_27,2022-06-24T12:06:34.993Z,,,1,A,2048.0430000004126,,,,796464.4000000004,796464.4000000004,794399.68,794405.1000000001,794416.357,796467.685,,black
Fixation,canvas.Screen,2_28_0_0,2022-06-24T12:06:36.900Z,,,0,V,1917.857999999891,timeout,,,798370.7000000002,798368.866,796451.008,796464.9000000004,796467.685,798385.543,,grey
Stimulus,canvas.Screen,2_28_0_1,2022-06-24T12:06:37.000Z,,,0,V,100.1830000000773,timeout,,,798470.6000000001,798469.049,798368.866,798371,798385.543,798485.726,,grey
Reaction,canvas.Screen,2_28_0_2,2022-06-24T12:06:37.257Z,,,0,V,240.97400000016205,response,stim_detected,mousedown,798728.1000000001,798726.7000000002,798469.049,798470.8000000003,798485.726,798735.913,,grey
Trial,flow.Sequence,2_28_0,2022-06-24T12:06:37.257Z,,,0,V,2259.0150000001304,completion,,,798728.5,798726.7000000002,796451.008,796464.9000000004,796467.685,798735.913,,grey
Frame,canvas.Frame,2_28,2022-06-24T12:06:37.258Z,,,0,V,2261.0150000001304,,,,798728.9000000004,798728.7000000002,796451.008,796464.5,796467.685,798735.913,,grey
Fixation,canvas.Screen,2_29_0_0,2022-06-24T12:06:38.850Z,,,0,V,1600.6460000000661,timeout,,,800320.7000000002,800319.885,798719.236,798729.9000000004,798735.913,800336.559,,grey
Stimulus,canvas.Screen,2_29_0_1,2022-06-24T12:06:38.951Z,,,0,V,100.40399999998044,timeout,,,800421.7000000002,800420.286,800319.885,800321,800336.559,800436.963,,grey
Reaction,canvas.Screen,2_29_0_2,2022-06-24T12:06:39.151Z,,,0,V,183.73700000019744,response,stim_detected,mousedown,800622.2000000002,800620.7000000002,800420.286,800421.9000000004,800436.963,800637.187,,grey
Trial,flow.Sequence,2_29_0,2022-06-24T12:06:39.152Z,,,0,V,1884.787000000244,completion,,,800622.6000000001,800620.7000000002,798719.236,798729.9000000004,798735.913,800637.187,,grey
Frame,canvas.Frame,2_29,2022-06-24T12:06:39.152Z,,,0,V,1886.8870000003371,,,,800623,800622.8000000003,798719.236,798729.1000000001,798735.913,800637.187,,grey
Fixation,canvas.Screen,2_30_0_0,2022-06-24T12:06:41.336Z,,,0,V,2185.140999999945,timeout,,,802806.8000000003,802805.648,800620.51,800624.1000000001,800637.187,802822.328,,grey
Stimulus,canvas.Screen,2_30_0_1,2022-06-24T12:06:41.436Z,,,0,V,99.63800000003539,timeout,,,802906.8000000003,802905.289,802805.648,802807.1000000001,802822.328,802921.966,,grey
Reaction,canvas.Screen,2_30_0_2,2022-06-24T12:06:41.653Z,,,0,V,200.63400000007823,response,stim_detected,mousedown,803124,803122.6000000001,802905.289,802907.2000000002,802921.966,803138.856,,grey
Trial,flow.Sequence,2_30_0,2022-06-24T12:06:41.653Z,,,0,V,2485.4130000000587,completion,,,803124.4000000004,803122.6000000001,800620.51,800624,800637.187,803138.856,,grey
Frame,canvas.Frame,2_30,2022-06-24T12:06:41.654Z,,,0,V,2487.4130000000587,,,,803124.8000000003,803124.6000000001,800620.51,800623.1000000001,800637.187,803138.856,,grey
Fixation,canvas.Screen,2_31_0_0,2022-06-24T12:06:44.004Z,,,1,AV,2351.780999999959,timeout,,,805474.9000000004,805473.958,803122.179,803126.3000000003,803138.856,805490.637,,grey
Stimulus,canvas.Screen,2_31_0_1,2022-06-24T12:06:44.104Z,,,1,AV,99.2839999999851,timeout,,,805575.1000000001,805573.247,805473.958,805475.2000000002,805490.637,805589.921,,grey
Reaction,canvas.Screen,2_31_0_2,2022-06-24T12:06:44.284Z,,,1,AV,163.579000000027,response,stim_detected,mousedown,805754.9000000004,805753.5,805573.247,805575.4000000004,805589.921,805757.273,,grey
Trial,flow.Sequence,2_31_0,2022-06-24T12:06:44.284Z,,,1,AV,2614.643999999971,completion,,,805755.4000000004,805753.5,803122.179,803126.3000000003,803138.856,805757.273,,grey
Frame,canvas.Frame,2_31,2022-06-24T12:06:44.285Z,,,1,AV,2616.7440000000643,,,,805755.8000000003,805755.6000000001,803122.179,803125.1000000001,803138.856,805757.273,,grey
Fixation,canvas.Screen,2_32_0_0,2022-06-24T12:06:46.322Z,,,1,A,2051.1350000000093,timeout,,,807793.1000000001,807791.732,805740.596,805756.8000000003,805757.273,807808.408,,black
Stimulus,canvas.Screen,2_32_0_1,2022-06-24T12:06:46.422Z,,,1,A,100.36299999989569,timeout,,,807893.2000000002,807892.093,807791.732,807793.4000000004,807808.408,807908.771,,black
Reaction,canvas.Screen,2_32_0_2,2022-06-24T12:06:46.620Z,,,1,A,180.12900000042282,response,stim_detected,mousedown,808090.7000000002,808088.9000000004,807892.093,807893.5,807908.771,808108.812,,black
Trial,flow.Sequence,2_32_0,2022-06-24T12:06:46.620Z,,,1,A,2331.627000000328,completion,,,808091.1000000001,808088.9000000004,805740.596,805756.7000000002,805757.273,808108.812,,black
Frame,canvas.Frame,2_32,2022-06-24T12:06:46.621Z,,,1,A,2334.0270000002347,,,,808091.6000000001,808091.3000000003,805740.596,805756,805757.273,808108.812,,black
Fixation,canvas.Screen,2_33_0_0,2022-06-24T12:06:48.941Z,,,0,V,2318.984999999986,timeout,,,810412.5,810411.114,808092.135,808093.3000000003,808108.812,810427.797,,grey
Stimulus,canvas.Screen,2_33_0_1,2022-06-24T12:06:49.040Z,,,0,V,99.31200000003446,timeout,,,810511.4000000004,810509.885,810411.114,810412.8000000003,810427.797,810527.109,,grey
Reaction,canvas.Screen,2_33_0_2,2022-06-24T12:06:49.228Z,,,0,V,170.39099999994505,response,stim_detected,mousedown,810699,810697.5,810509.885,810511.6000000001,810527.109,810710.556,,grey
Trial,flow.Sequence,2_33_0,2022-06-24T12:06:49.228Z,,,0,V,2588.6879999999655,completion,,,810699.5,810697.5,808092.135,808093.3000000003,808108.812,810710.556,,grey
Frame,canvas.Frame,2_33,2022-06-24T12:06:49.229Z,,,0,V,2590.7880000000587,,,,810699.8000000003,810699.6000000001,808092.135,808091.8000000003,808108.812,810710.556,,grey
Fixation,canvas.Screen,2_34_0_0,2022-06-24T12:06:51.426Z,,,1,AV,2202.280000000028,timeout,,,812897.3000000003,812896.152,810693.879,810701,810710.556,812912.836,,grey
Stimulus,canvas.Screen,2_34_0_1,2022-06-24T12:06:51.525Z,,,1,AV,98.45499999995809,timeout,,,812996.3000000003,812994.619,812896.152,812897.6000000001,812912.836,813011.291,,grey
Reaction,canvas.Screen,2_34_0_2,2022-06-24T12:06:51.688Z,,,1,AV,146.3090000001248,response,stim_detected,mousedown,813159.1000000001,813157.6000000001,812994.619,812996.6000000001,813011.291,813162.237,,grey
Trial,flow.Sequence,2_34_0,2022-06-24T12:06:51.688Z,,,1,AV,2447.044000000111,completion,,,813159.5,813157.6000000001,810693.879,810700.9000000004,810710.556,813162.237,,grey
Frame,canvas.Frame,2_34,2022-06-24T12:06:51.689Z,,,1,AV,2449.144000000204,,,,813159.9000000004,813159.7000000002,810693.879,810700.1000000001,810710.556,813162.237,,grey
Fixation,canvas.Screen,2_35_0_0,2022-06-24T12:06:53.493Z,,,1,A,1817.4300000000512,timeout,,,814964.4000000004,814962.993,813145.56,813160.9000000004,813162.237,814979.667,,black
Stimulus,canvas.Screen,2_35_0_1,2022-06-24T12:06:53.593Z,,,1,A,100.5339999999851,timeout,,,815064.4000000004,815063.523,814962.993,814964.7000000002,814979.667,815080.201,,black
Reaction,canvas.Screen,2_35_0_2,2022-06-24T12:06:53.797Z,,,1,A,186.29899999999907,response,stim_detected,mousedown,815267.9000000004,815266.5,815063.523,815064.7000000002,815080.201,815280.304,,black
Trial,flow.Sequence,2_35_0,2022-06-24T12:06:53.797Z,,,1,A,2104.2630000000354,completion,,,815268.3000000003,815266.5,813145.56,813160.8000000003,813162.237,815280.304,,black
Frame,canvas.Frame,2_35,2022-06-24T12:06:53.797Z,,,1,A,2106.163000000408,,,,815268.6000000001,815268.4000000004,813145.56,813160,813162.237,815280.304,,black
Fixation,canvas.Screen,2_36_0_0,2022-06-24T12:06:55.528Z,,,0,V,1734.6450000000186,timeout,,,816999.5,816998.27,815263.627,815269.7000000002,815280.304,817014.949,,grey
Stimulus,canvas.Screen,2_36_0_1,2022-06-24T12:06:55.628Z,,,0,V,99.89799999992829,timeout,,,817099.4000000004,817098.17,816998.27,816999.8000000003,817014.949,817114.847,,grey
Reaction,canvas.Screen,2_36_0_2,2022-06-24T12:06:55.850Z,,,0,V,204.65300000004936,response,stim_detected,mousedown,817321,817319.5,817098.17,817099.7000000002,817114.847,817331.684,,grey
Trial,flow.Sequence,2_36_0,2022-06-24T12:06:55.850Z,,,0,V,2039.1959999999963,completion,,,817321.3000000003,817319.5,815263.627,815269.6000000001,815280.304,817331.684,,grey
Frame,canvas.Frame,2_36,2022-06-24T12:06:55.851Z,,,0,V,2041.1959999999963,,,,817321.7000000002,817321.5,815263.627,815268.8000000003,815280.304,817331.684,,grey
Fixation,canvas.Screen,2_37_0_0,2022-06-24T12:06:58.147Z,,,1,AV,2301.594999999972,timeout,,,819617.7000000002,819616.601,817315.007,817323,817331.684,819633.279,,grey
Stimulus,canvas.Screen,2_37_0_1,2022-06-24T12:06:58.247Z,,,1,AV,99.75600000005215,timeout,,,819717.6000000001,819716.359,819616.601,819617.9000000004,819633.279,819733.035,,grey
Reaction,canvas.Screen,2_37_0_2,2022-06-24T12:06:58.410Z,,,1,AV,146.56500000006054,response,stim_detected,mousedown,819881,819879.6000000001,819716.359,819717.9000000004,819733.035,819883.39,,grey
Trial,flow.Sequence,2_37_0,2022-06-24T12:06:58.410Z,,,1,AV,2547.9160000000848,completion,,,819881.4000000004,819879.6000000001,817315.007,817323,817331.684,819883.39,,grey
Frame,canvas.Frame,2_37,2022-06-24T12:06:58.411Z,,,1,AV,2549.8159999999916,,,,819881.7000000002,819881.5,817315.007,817321.8000000003,817331.684,819883.39,,grey
Fixation,canvas.Screen,2_38_0_0,2022-06-24T12:06:59.948Z,,,1,AV,1550.6579999999376,timeout,,,821418.7000000002,821417.374,819866.713,819882.7000000002,819883.39,821434.048,,grey
Stimulus,canvas.Screen,2_38_0_1,2022-06-24T12:07:00.048Z,,,1,AV,100.45200000004843,timeout,,,821518.7000000002,821517.823,821417.374,821418.9000000004,821434.048,821534.5,,grey
Reaction,canvas.Screen,2_38_0_2,2022-06-24T12:07:00.268Z,,,1,AV,203,response,stim_detected,mousedown,821738.8000000003,821737.5,821517.823,821519,821534.5,821751.304,,grey
Trial,flow.Sequence,2_38_0,2022-06-24T12:07:00.268Z,,,1,AV,1854.109999999986,completion,,,821739.3000000003,821737.5,819866.713,819882.6000000001,819883.39,821751.304,,grey
Frame,canvas.Frame,2_38,2022-06-24T12:07:00.268Z,,,1,AV,1856.0100000003586,,,,821739.6000000001,821739.4000000004,819866.713,819881.9000000004,819883.39,821751.304,,grey
Fixation,canvas.Screen,2_39_0_0,2022-06-24T12:07:02.350Z,,,1,AV,2084.780000000028,timeout,,,823821,823819.406,821734.627,821740.5,821751.304,823836.084,,grey
Stimulus,canvas.Screen,2_39_0_1,2022-06-24T12:07:02.450Z,,,1,AV,99.86699999996927,timeout,,,823920.8000000003,823919.275,823819.406,823821.3000000003,823836.084,823935.951,,grey
Reaction,canvas.Screen,2_39_0_2,2022-06-24T12:07:02.608Z,,,1,AV,141.4490000003716,response,stim_detected,mousedown,824078.8000000003,824077.4000000004,823919.275,823921,823935.951,824086.193,,grey
Trial,flow.Sequence,2_39_0,2022-06-24T12:07:02.608Z,,,1,AV,2326.096000000369,completion,,,824079.2000000002,824077.4000000004,821734.627,821740.4000000004,821751.304,824086.193,,grey
Frame,canvas.Frame,2_39,2022-06-24T12:07:02.608Z,,,1,AV,2328.096000000369,,,,824079.5,824079.4000000004,821734.627,821739.7000000002,821751.304,824086.193,,grey
Fixation,canvas.Screen,2_40_0_0,2022-06-24T12:07:04.101Z,,,1,A,1500.628000000026,timeout,,,825571.9000000004,825570.147,824069.516,824080.6000000001,824086.193,825586.821,,black
Stimulus,canvas.Screen,2_40_0_1,2022-06-24T12:07:04.201Z,,,1,A,100.22499999997672,timeout,,,825671.9000000004,825670.371,825570.147,825572.2000000002,825586.821,825687.046,,black
Reaction,canvas.Screen,2_40_0_2,2022-06-24T12:07:04.413Z,,,1,A,195.35400000039954,response,stim_detected,mousedown,825883.9000000004,825882.4000000004,825670.371,825672.6000000001,825687.046,825887.377,,black
Trial,flow.Sequence,2_40_0,2022-06-24T12:07:04.413Z,,,1,A,1796.2070000004023,completion,,,825884.3000000003,825882.4000000004,824069.516,824080.5,824086.193,825887.377,,black
Frame,canvas.Frame,2_40,2022-06-24T12:07:04.413Z,,,1,A,1798.2070000004023,,,,825884.6000000001,825884.4000000004,824069.516,824079.8000000003,824086.193,825887.377,,black
Fixation,canvas.Screen,2_41_0_0,2022-06-24T12:07:06.069Z,,,0,V,1668.3950000000186,timeout,,,827540,827539.089,825870.7,825885.6000000001,825887.377,827555.772,,grey
Stimulus,canvas.Screen,2_41_0_1,2022-06-24T12:07:06.169Z,,,0,V,99.45900000003166,timeout,,,827640,827638.554,827539.089,827540.2000000002,827555.772,827655.231,,grey
Reaction,canvas.Screen,2_41_0_2,2022-06-24T12:07:06.417Z,,,0,V,231.16900000034366,response,stim_detected,mousedown,827887.9000000004,827886.4000000004,827638.554,827640.3000000003,827655.231,827905.403,,grey
Trial,flow.Sequence,2_41_0,2022-06-24T12:07:06.417Z,,,0,V,1999.023000000394,completion,,,827888.3000000003,827886.4000000004,825870.7,825885.6000000001,825887.377,827905.403,,grey
Frame,canvas.Frame,2_41,2022-06-24T12:07:06.417Z,,,0,V,2001.023000000394,,,,827888.5,827888.4000000004,825870.7,825884.8000000003,825887.377,827905.403,,grey
Fixation,canvas.Screen,2_42_0_0,2022-06-24T12:07:08.336Z,,,1,AV,1916.9299999999348,timeout,,,829807.1000000001,829805.663,827888.726,827890.2000000002,827905.403,829822.333,,grey
Stimulus,canvas.Screen,2_42_0_1,2022-06-24T12:07:08.437Z,,,1,AV,101.14399999997113,timeout,,,829908.1000000001,829906.797,829805.663,829807.3000000003,829822.333,829923.477,,grey
Reaction,canvas.Screen,2_42_0_2,2022-06-24T12:07:08.581Z,,,1,AV,126.92300000041723,response,stim_detected,mousedown,830051.9000000004,830050.4000000004,829906.797,829908.3000000003,829923.477,830056.81,,grey
Trial,flow.Sequence,2_42_0,2022-06-24T12:07:08.581Z,,,1,AV,2144.997000000323,completion,,,830052.4000000004,830050.4000000004,827888.726,827890,827905.403,830056.81,,grey
Frame,canvas.Frame,2_42,2022-06-24T12:07:08.582Z,,,1,AV,2147.0969999999506,,,,830052.7000000002,830052.5,827888.726,827888.9000000004,827905.403,830056.81,,grey
Fixation,canvas.Screen,2_43_0_0,2022-06-24T12:07:10.556Z,,,1,AV,1985.3549999999814,timeout,,,832027.2000000002,832025.482,830040.133,830053.8000000003,830056.81,832042.165,,grey
Stimulus,canvas.Screen,2_43_0_1,2022-06-24T12:07:10.655Z,,,1,AV,99.48399999993853,timeout,,,832126.1000000001,832124.971,832025.482,832027.4000000004,832042.165,832141.649,,grey
Reaction,canvas.Screen,2_43_0_2,2022-06-24T12:07:10.802Z,,,1,AV,129.6510000003036,response,stim_detected,mousedown,832273.1000000001,832271.3000000003,832124.971,832126.4000000004,832141.649,832275.017,,grey
Trial,flow.Sequence,2_43_0,2022-06-24T12:07:10.802Z,,,1,AV,2214.4900000002235,completion,,,832273.4000000004,832271.3000000003,830040.133,830053.8000000003,830056.81,832275.017,,grey
Frame,canvas.Frame,2_43,2022-06-24T12:07:10.803Z,,,1,AV,2216.7900000000373,,,,832273.7000000002,832273.6000000001,830040.133,830052.9000000004,830056.81,832275.017,,grey
Fixation,canvas.Screen,2_44_0_0,2022-06-24T12:07:12.506Z,,,1,A,1717.734000000055,timeout,,,833977.2000000002,833976.074,832258.34,832274.9000000004,832275.017,833992.751,,black
Stimulus,canvas.Screen,2_44_0_1,2022-06-24T12:07:12.606Z,,,1,A,99.57099999999627,timeout,,,834077.4000000004,834075.65,833976.074,833977.6000000001,833992.751,834092.322,,black
Reaction,canvas.Screen,2_44_0_2,2022-06-24T12:07:12.791Z,,,1,A,167.97800000023562,response,stim_detected,mousedown,834261.7000000002,834260.3000000003,834075.65,834077.6000000001,834092.322,834276.353,,black
Trial,flow.Sequence,2_44_0,2022-06-24T12:07:12.791Z,,,1,A,1985.2830000002868,completion,,,834262.1000000001,834260.3000000003,832258.34,832274.7000000002,832275.017,834276.353,,black
Frame,canvas.Frame,2_44,2022-06-24T12:07:12.791Z,,,1,A,1987.2830000002868,,,,834262.6000000001,834262.3000000003,832258.34,832273.9000000004,832275.017,834276.353,,black
Fixation,canvas.Screen,2_45_0_0,2022-06-24T12:07:14.424Z,,,0,V,1634.0130000000354,timeout,,,835895.4000000004,835893.692,834259.676,834264,834276.353,835910.366,,grey
Stimulus,canvas.Screen,2_45_0_1,2022-06-24T12:07:14.524Z,,,0,V,100.48300000000745,timeout,,,835995.4000000004,835994.172,835893.692,835895.8000000003,835910.366,836010.849,,grey
Reaction,canvas.Screen,2_45_0_2,2022-06-24T12:07:14.633Z,,,0,V,91.45100000023376,response,stim_detected,mousedown,836104.1000000001,836102.3000000003,835994.172,835995.6000000001,836010.849,836110.929,,grey
Trial,flow.Sequence,2_45_0,2022-06-24T12:07:14.633Z,,,0,V,1825.9470000002766,completion,,,836104.4000000004,836102.3000000003,834259.676,834263.8000000003,834276.353,836110.929,,grey
Frame,canvas.Frame,2_45,2022-06-24T12:07:14.634Z,,,0,V,1828.1469999999972,,,,836104.7000000002,836104.5,834259.676,834262.7000000002,834276.353,836110.929,,grey
Fixation,canvas.Screen,2_46_0_0,2022-06-24T12:07:16.927Z,,,0,V,2301.579999999958,timeout,,,838397.6000000001,838395.831,836094.252,836105.8000000003,836110.929,838412.509,,grey
Stimulus,canvas.Screen,2_46_0_1,2022-06-24T12:07:17.025Z,,,0,V,99.32400000002235,timeout,,,838496.5,838495.16,838395.831,838397.8000000003,838412.509,838511.833,,grey
Reaction,canvas.Screen,2_46_0_2,2022-06-24T12:07:17.166Z,,,0,V,123.46700000029523,response,stim_detected,mousedown,838636.7000000002,838635.3000000003,838495.16,838496.8000000003,838511.833,838645.898,,grey
Trial,flow.Sequence,2_46_0,2022-06-24T12:07:17.166Z,,,0,V,2524.3710000002757,completion,,,838637.1000000001,838635.3000000003,836094.252,836105.6000000001,836110.929,838645.898,,grey
Frame,canvas.Frame,2_46,2022-06-24T12:07:17.166Z,,,0,V,2526.3710000002757,,,,838637.4000000004,838637.3000000003,836094.252,836104.8000000003,836110.929,838645.898,,grey
Fixation,canvas.Screen,2_47_0_0,2022-06-24T12:07:19.127Z,,,0,V,1968.1539999999804,timeout,,,840598.5,840597.373,838629.221,838638.4000000004,838645.898,840614.052,,grey
Stimulus,canvas.Screen,2_47_0_1,2022-06-24T12:07:19.227Z,,,0,V,100.01199999998789,timeout,,,840698.5,840697.384,840597.373,840598.8000000003,840614.052,840714.064,,grey
Reaction,canvas.Screen,2_47_0_2,2022-06-24T12:07:19.344Z,,,0,V,99.13600000017323,response,stim_detected,mousedown,840814.7000000002,840813.2000000002,840697.384,840698.9000000004,840714.064,840830.734,,grey
Trial,flow.Sequence,2_47_0,2022-06-24T12:07:19.344Z,,,0,V,2167.3020000001416,completion,,,840815.1000000001,840813.2000000002,838629.221,838638.3000000003,838645.898,840830.734,,grey
Frame,canvas.Frame,2_47,2022-06-24T12:07:19.344Z,,,0,V,2169.3020000001416,,,,840815.4000000004,840815.2000000002,838629.221,838637.6000000001,838645.898,840830.734,,grey
Fixation,canvas.Screen,2_48_0_0,2022-06-24T12:07:21.162Z,,,1,AV,1817.798999999999,timeout,,,842632.7000000002,842631.856,840814.057,840816.4000000004,840830.734,842648.533,,grey
Stimulus,canvas.Screen,2_48_0_1,2022-06-24T12:07:21.262Z,,,1,AV,99.45999999996275,timeout,,,842732.7000000002,842731.321,842631.856,842632.9000000004,842648.533,842747.993,,grey
Reaction,canvas.Screen,2_48_0_2,2022-06-24T12:07:21.395Z,,,1,AV,116.30700000026263,response,stim_detected,mousedown,842865.7000000002,842864.3000000003,842731.321,842733,842747.993,842882.061,,grey
Trial,flow.Sequence,2_48_0,2022-06-24T12:07:21.396Z,,,1,AV,2033.5660000002244,completion,,,842866.1000000001,842864.3000000003,840814.057,840816.3000000003,840830.734,842882.061,,grey
Frame,canvas.Frame,2_48,2022-06-24T12:07:21.396Z,,,1,AV,2035.4660000001313,,,,842866.3000000003,842866.2000000002,840814.057,840815.5,840830.734,842882.061,,grey
Fixation,canvas.Screen,2_49_0_0,2022-06-24T12:07:23.214Z,,,0,V,1818.0420000000158,timeout,,,844684.8000000003,844683.424,842865.384,842867.3000000003,842882.061,844700.103,,grey
Stimulus,canvas.Screen,2_49_0_1,2022-06-24T12:07:23.314Z,,,0,V,100.02800000004936,timeout,,,844784.7000000002,844783.452,844683.424,844685,844700.103,844800.131,,grey
Reaction,canvas.Screen,2_49_0_2,2022-06-24T12:07:23.418Z,,,0,V,87.06900000013411,response,stim_detected,mousedown,844888.7000000002,844887.2000000002,844783.452,844785,844800.131,844900.121,,grey
Trial,flow.Sequence,2_49_0,2022-06-24T12:07:23.419Z,,,0,V,2005.1390000001993,completion,,,844889.1000000001,844887.2000000002,842865.384,842867.3000000003,842882.061,844900.121,,grey
Frame,canvas.Frame,2_49,2022-06-24T12:07:23.419Z,,,0,V,2007.1390000001993,,,,844889.3000000003,844889.2000000002,842865.384,842866.5,842882.061,844900.121,,grey
Fixation,canvas.Screen,2_50_0_0,2022-06-24T12:07:25.249Z,,,1,A,1834.6919999999227,timeout,,,846719.9000000004,846718.134,844883.444,844912.3000000003,844900.121,846734.813,,black
Stimulus,canvas.Screen,2_50_0_1,2022-06-24T12:07:25.348Z,,,1,A,99.95799999998417,timeout,,,846818.9000000004,846818.094,846718.134,846720.2000000002,846734.813,846834.771,,black
Reaction,canvas.Screen,2_50_0_2,2022-06-24T12:07:25.530Z,,,1,A,164.42900000023656,response,stim_detected,mousedown,847000.7000000002,846999.2000000002,846818.094,846819.1000000001,846834.771,847018.203,,black
Trial,flow.Sequence,2_50_0,2022-06-24T12:07:25.531Z,,,1,A,2099.0790000001434,completion,,,847001.1000000001,846999.2000000002,844883.444,844912.2000000002,844900.121,847018.203,,black
Frame,canvas.Frame,2_50,2022-06-24T12:07:25.531Z,,,1,A,2101.1790000002366,,,,847001.4000000004,847001.3000000003,844883.444,844889.5,844900.121,847018.203,,black
Fixation,canvas.Screen,2_51_0_0,2022-06-24T12:07:27.349Z,,,1,AV,1817.048000000068,timeout,,,848820,848818.58,847001.526,847003,847018.203,848835.251,,grey
Stimulus,canvas.Screen,2_51_0_1,2022-06-24T12:07:27.450Z,,,1,AV,100.93599999998696,timeout,,,848921,848919.509,848818.58,848820.1000000001,848835.251,848936.187,,grey
Reaction,canvas.Screen,2_51_0_2,2022-06-24T12:07:27.577Z,,,1,AV,110.0130000001518,response,stim_detected,mousedown,849047.6000000001,849046.2000000002,848919.509,848921.2000000002,848936.187,849052.874,,grey
Trial,flow.Sequence,2_51_0,2022-06-24T12:07:27.577Z,,,1,AV,2027.9970000002068,completion,,,849048,849046.2000000002,847001.526,847002.8000000003,847018.203,849052.874,,grey
Frame,canvas.Frame,2_51,2022-06-24T12:07:27.578Z,,,1,AV,2029.7970000000205,,,,849048.2000000002,849048,847001.526,847001.6000000001,847018.203,849052.874,,grey
Fixation,canvas.Screen,2_52_0_0,2022-06-24T12:07:29.536Z,,,1,AV,1968.6480000000447,timeout,,,851006.1000000001,851004.839,849036.197,849049.3000000003,849052.874,851021.522,,grey
Stimulus,canvas.Screen,2_52_0_1,2022-06-24T12:07:29.635Z,,,1,AV,99.07900000002701,timeout,,,851105,851103.926,851004.839,851006.3000000003,851021.522,851120.601,,grey
Reaction,canvas.Screen,2_52_0_2,2022-06-24T12:07:29.776Z,,,1,AV,124.59900000016205,response,stim_detected,mousedown,851246.6000000001,851245.2000000002,851103.926,851105.3000000003,851120.601,851254.375,,grey
Trial,flow.Sequence,2_52_0,2022-06-24T12:07:29.776Z,,,1,AV,2192.3260000002338,completion,,,851247,851245.2000000002,849036.197,849049.2000000002,849052.874,851254.375,,grey
Frame,canvas.Frame,2_52,2022-06-24T12:07:29.777Z,,,1,AV,2194.2260000001406,,,,851247.2000000002,851247.1000000001,849036.197,849048.4000000004,849052.874,851254.375,,grey
Fixation,canvas.Screen,2_53_0_0,2022-06-24T12:07:31.752Z,,,1,A,1983.6539999999804,timeout,,,853222.2000000002,853221.359,851237.698,851248.5,851254.375,853238.029,,black
Stimulus,canvas.Screen,2_53_0_1,2022-06-24T12:07:31.854Z,,,1,A,101.07900000002701,timeout,,,853324.2000000002,853322.43,853221.359,853222.4000000004,853238.029,853339.108,,black
Reaction,canvas.Screen,2_53_0_2,2022-06-24T12:07:32.156Z,,,1,A,286.0920000001788,response,stim_detected,mousedown,853626.9000000004,853625.2000000002,853322.43,853324.5,853339.108,853639.281,,black
Trial,flow.Sequence,2_53_0,2022-06-24T12:07:32.157Z,,,1,A,2370.8250000001863,completion,,,853627.3000000003,853625.2000000002,851237.698,851248.3000000003,851254.375,853639.281,,black
Frame,canvas.Frame,2_53,2022-06-24T12:07:32.157Z,,,1,A,2373.125,,,,853627.6000000001,853627.5,851237.698,851247.5,851254.375,853639.281,,black
Fixation,canvas.Screen,2_54_0_0,2022-06-24T12:07:34.239Z,,,1,AV,2084.9210000000894,timeout,,,855709.4000000004,855707.523,853622.604,853628.7000000002,853639.281,855724.202,,grey
Stimulus,canvas.Screen,2_54_0_1,2022-06-24T12:07:34.338Z,,,1,AV,99.49099999992177,timeout,,,855808.6000000001,855807.018,855707.523,855709.7000000002,855724.202,855823.693,,grey
Reaction,canvas.Screen,2_54_0_2,2022-06-24T12:07:34.474Z,,,1,AV,119.40700000012293,response,stim_detected,mousedown,855944.4000000004,855943.1000000001,855807.018,855808.8000000003,855823.693,855957.511,,grey
Trial,flow.Sequence,2_54_0,2022-06-24T12:07:34.474Z,,,1,AV,2303.819000000134,completion,,,855944.9000000004,855943.1000000001,853622.604,853628.6000000001,853639.281,855957.511,,grey
Frame,canvas.Frame,2_54,2022-06-24T12:07:34.475Z,,,1,AV,2305.719000000041,,,,855945.1000000001,855945,853622.604,853627.8000000003,853639.281,855957.511,,grey
Fixation,canvas.Screen,2_55_0_0,2022-06-24T12:07:36.873Z,,,1,A,2400.7089999999152,timeout,,,858343.1000000001,858341.548,855940.834,855946.2000000002,855957.511,858358.22,,black
Stimulus,canvas.Screen,2_55_0_1,2022-06-24T12:07:36.973Z,,,1,A,100.89100000006147,timeout,,,858443.5,858442.434,858341.548,858343.3000000003,858358.22,858459.111,,black
Reaction,canvas.Screen,2_55_0_2,2022-06-24T12:07:37.239Z,,,1,A,248.9890000000596,response,stim_detected,mousedown,858709.5,858708.1000000001,858442.434,858443.8000000003,858459.111,858725.978,,black
Trial,flow.Sequence,2_55_0,2022-06-24T12:07:37.239Z,,,1,A,2750.5890000000363,completion,,,858709.9000000004,858708.1000000001,855940.834,855946.1000000001,855957.511,858725.978,,black
Frame,canvas.Frame,2_55,2022-06-24T12:07:37.240Z,,,1,A,2752.3890000003157,,,,858710.1000000001,858709.9000000004,855940.834,855945.3000000003,855957.511,858725.978,,black
Fixation,canvas.Screen,2_56_0_0,2022-06-24T12:07:39.059Z,,,1,A,1819.0829999999842,timeout,,,860529.5,860528.374,858709.301,858711.2000000002,858725.978,860545.061,,black
Stimulus,canvas.Screen,2_56_0_1,2022-06-24T12:07:39.158Z,,,1,A,98.77500000002328,timeout,,,860628.5,860627.16,860528.374,860529.7000000002,860545.061,860643.836,,black
Reaction,canvas.Screen,2_56_0_2,2022-06-24T12:07:39.289Z,,,1,A,114.26400000008289,response,stim_detected,mousedown,860759.5,860758.1000000001,860627.16,860628.8000000003,860643.836,860760.71,,black
Trial,flow.Sequence,2_56_0,2022-06-24T12:07:39.289Z,,,1,A,2032.1220000000903,completion,,,860759.9000000004,860758.1000000001,858709.301,858711.1000000001,858725.978,860760.71,,black
Frame,canvas.Frame,2_56,2022-06-24T12:07:39.290Z,,,1,A,2034.0219999999972,,,,860760.1000000001,860760,858709.301,858710.3000000003,858725.978,860760.71,,black
Fixation,canvas.Screen,2_57_0_0,2022-06-24T12:07:41.126Z,,,1,A,1851.7540000000736,timeout,,,862596.6000000001,862595.782,860744.033,860761.2000000002,860760.71,862612.464,,black
Stimulus,canvas.Screen,2_57_0_1,2022-06-24T12:07:41.226Z,,,1,A,99.23999999999069,timeout,,,862696.6000000001,862695.029,862595.782,862596.8000000003,862612.464,862711.704,,black
Reaction,canvas.Screen,2_57_0_2,2022-06-24T12:07:41.367Z,,,1,A,124.29599999997299,response,stim_detected,mousedown,862837.5,862836,862695.029,862696.8000000003,862711.704,862845.413,,black
Trial,flow.Sequence,2_57_0,2022-06-24T12:07:41.367Z,,,1,A,2075.2900000000373,completion,,,862837.9000000004,862836,860744.033,860761,860760.71,862845.413,,black
Frame,canvas.Frame,2_57,2022-06-24T12:07:41.368Z,,,1,A,2077.2900000000373,,,,862838.2000000002,862838,860744.033,860760.3000000003,860760.71,862845.413,,black
Fixation,canvas.Screen,2_58_0_0,2022-06-24T12:07:43.579Z,,,1,A,2219.66100000008,timeout,,,865049.9000000004,865048.385,862828.736,862839.1000000001,862845.413,865065.074,,black
Stimulus,canvas.Screen,2_58_0_1,2022-06-24T12:07:43.677Z,,,1,A,97.62199999997392,timeout,,,865147.8000000003,865146.025,865048.385,865050.2000000002,865065.074,865162.696,,black
Reaction,canvas.Screen,2_58_0_2,2022-06-24T12:07:43.810Z,,,1,A,116.30400000000373,response,stim_detected,mousedown,865280.6000000001,865279,865146.025,865148.1000000001,865162.696,865297.064,,black
Trial,flow.Sequence,2_58_0,2022-06-24T12:07:43.811Z,,,1,A,2433.5870000000577,completion,,,865281,865279,862828.736,862839.1000000001,862845.413,865297.064,,black
Frame,canvas.Frame,2_58,2022-06-24T12:07:43.812Z,,,1,A,2436.4870000004303,,,,865282.2000000002,865281.9000000004,862828.736,862838.3000000003,862845.413,865297.064,,black
Fixation,canvas.Screen,2_59_0_0,2022-06-24T12:07:45.762Z,,,1,A,1951.3390000000363,timeout,,,867232.9000000004,867231.725,865280.387,865283.2000000002,865297.064,867248.403,,black
Stimulus,canvas.Screen,2_59_0_1,2022-06-24T12:07:45.862Z,,,1,A,100.05299999995623,timeout,,,867332.8000000003,867331.779,867231.725,867233.2000000002,867248.403,867348.456,,black
Reaction,canvas.Screen,2_59_0_2,2022-06-24T12:07:45.995Z,,,1,A,115.64400000008754,response,stim_detected,mousedown,867465.5,867464.1000000001,867331.779,867333.1000000001,867348.456,867481.835,,black
Trial,flow.Sequence,2_59_0,2022-06-24T12:07:45.995Z,,,1,A,2167.03600000008,completion,,,867465.8000000003,867464.1000000001,865280.387,865283.1000000001,865297.064,867481.835,,black
Frame,canvas.Frame,2_59,2022-06-24T12:07:45.996Z,,,1,A,2168.935999999987,,,,867466.1000000001,867466,865280.387,865282.4000000004,865297.064,867481.835,,black
Fixation,canvas.Screen,2_60_0_0,2022-06-24T12:07:48.415Z,,,0,V,2418.7970000000205,timeout,,,869885.1000000001,869883.951,867465.158,867467.1000000001,867481.835,869900.632,,grey
Stimulus,canvas.Screen,2_60_0_1,2022-06-24T12:07:48.514Z,,,0,V,99.66800000006333,timeout,,,869984.9000000004,869983.622,869883.951,869885.5,869900.632,870000.3,,grey
Reaction,canvas.Screen,2_60_0_2,2022-06-24T12:07:48.801Z,,,0,V,269.69999999995343,response,stim_detected,mousedown,870271.5,870270,869983.622,869985.1000000001,870000.3,870283.74,,grey
Trial,flow.Sequence,2_60_0,2022-06-24T12:07:48.801Z,,,0,V,2788.1650000000373,completion,,,870271.9000000004,870270,867465.158,867467.1000000001,867481.835,870283.74,,grey
Frame,canvas.Frame,2_60,2022-06-24T12:07:48.802Z,,,0,V,2790.1650000000373,,,,870272.2000000002,870272,867465.158,867466.3000000003,867481.835,870283.74,,grey
Fixation,canvas.Screen,2_61_0_0,2022-06-24T12:07:50.349Z,,,0,V,1551.0829999999842,timeout,,,871819.1000000001,871818.145,870267.063,870273.3000000003,870283.74,871834.823,,grey
Stimulus,canvas.Screen,2_61_0_1,2022-06-24T12:07:50.449Z,,,0,V,100.00400000007357,timeout,,,871919.1000000001,871918.15,871818.145,871819.3000000003,871834.823,871934.827,,grey
Reaction,canvas.Screen,2_61_0_2,2022-06-24T12:07:50.648Z,,,0,V,182.0730000003241,response,stim_detected,mousedown,872118.3000000003,872116.9000000004,871918.15,871919.3000000003,871934.827,872134.978,,grey
Trial,flow.Sequence,2_61_0,2022-06-24T12:07:50.648Z,,,0,V,1833.1600000003818,completion,,,872118.7000000002,872116.9000000004,870267.063,870273.2000000002,870283.74,872134.978,,grey
Frame,canvas.Frame,2_61,2022-06-24T12:07:50.649Z,,,0,V,1835.1600000003818,,,,872119,872118.9000000004,870267.063,870272.4000000004,870283.74,872134.978,,grey
Fixation,canvas.Screen,2_62_0_0,2022-06-24T12:07:52.967Z,,,1,A,2317.6530000000494,timeout,,,874437.2000000002,874435.957,872118.301,872120.4000000004,872134.978,874452.631,,black
Stimulus,canvas.Screen,2_62_0_1,2022-06-24T12:07:53.068Z,,,1,A,100.64599999994971,timeout,,,874538.2000000002,874536.6,874435.957,874437.6000000001,874452.631,874553.277,,black
Reaction,canvas.Screen,2_62_0_2,2022-06-24T12:07:53.242Z,,,1,A,157.62300000037067,response,stim_detected,mousedown,874712.6000000001,874710.9000000004,874536.6,874538.5,874553.277,874720.034,,black
Trial,flow.Sequence,2_62_0,2022-06-24T12:07:53.243Z,,,1,A,2575.9220000003697,completion,,,874713.1000000001,874710.9000000004,872118.301,872120.3000000003,872134.978,874720.034,,black
Frame,canvas.Frame,2_62,2022-06-24T12:07:53.243Z,,,1,A,2578.3220000002766,,,,874713.6000000001,874713.3000000003,872118.301,872119.2000000002,872134.978,874720.034,,black
Fixation,canvas.Screen,2_63_0_0,2022-06-24T12:07:55.153Z,,,1,A,1918.3819999999832,timeout,,,876623.2000000002,876621.735,874703.357,874714.7000000002,874720.034,876638.416,,black
Stimulus,canvas.Screen,2_63_0_1,2022-06-24T12:07:55.252Z,,,1,A,99.67399999999907,timeout,,,876722.3000000003,876721.413,876621.735,876623.5,876638.416,876738.09,,black
Reaction,canvas.Screen,2_63_0_2,2022-06-24T12:07:55.423Z,,,1,A,153.710000000312,response,stim_detected,mousedown,876893.2000000002,876891.8000000003,876721.413,876722.8000000003,876738.09,876904.835,,black
Trial,flow.Sequence,2_63_0,2022-06-24T12:07:55.423Z,,,1,A,2171.7660000002943,completion,,,876893.5,876891.8000000003,874703.357,874714.6000000001,874720.034,876904.835,,black
Frame,canvas.Frame,2_63,2022-06-24T12:07:55.423Z,,,1,A,2173.666000000201,,,,876893.8000000003,876893.7000000002,874703.357,874713.8000000003,874720.034,876904.835,,black
Fixation,canvas.Screen,2_64_0_0,2022-06-24T12:07:57.571Z,,,0,V,2151.488000000012,timeout,,,879041.5,879039.645,876888.158,876895,876904.835,879056.323,,grey
Stimulus,canvas.Screen,2_64_0_1,2022-06-24T12:07:57.671Z,,,0,V,100.04899999999907,timeout,,,879141.5,879139.695,879039.645,879041.7000000002,879056.323,879156.372,,grey
Reaction,canvas.Screen,2_64_0_2,2022-06-24T12:07:57.940Z,,,0,V,252.5280000003986,response,stim_detected,mousedown,879410.4000000004,879408.9000000004,879139.695,879141.7000000002,879156.372,879423.154,,grey
Trial,flow.Sequence,2_64_0,2022-06-24T12:07:57.940Z,,,0,V,2504.06500000041,completion,,,879410.7000000002,879408.9000000004,876888.158,876894.9000000004,876904.835,879423.154,,grey
Frame,canvas.Frame,2_64,2022-06-24T12:07:57.941Z,,,0,V,2505.9650000003166,,,,879411,879410.8000000003,876888.158,876894.1000000001,876904.835,879423.154,,grey
Fixation,canvas.Screen,2_65_0_0,2022-06-24T12:07:59.822Z,,,0,V,1884.8989999999758,timeout,,,881292.6000000001,881291.373,879406.477,879412,879423.154,881308.053,,grey
Stimulus,canvas.Screen,2_65_0_1,2022-06-24T12:07:59.922Z,,,0,V,99.86300000001211,timeout,,,881392.4000000004,881391.238,881291.373,881292.9000000004,881308.053,881407.916,,grey
Reaction,canvas.Screen,2_65_0_2,2022-06-24T12:08:00.104Z,,,0,V,164.9840000004042,response,stim_detected,mousedown,881574.4000000004,881572.9000000004,881391.238,881392.6000000001,881407.916,881591.293,,grey
Trial,flow.Sequence,2_65_0,2022-06-24T12:08:00.104Z,,,0,V,2149.746000000392,completion,,,881574.8000000003,881572.9000000004,879406.477,879412,879423.154,881591.293,,grey
Frame,canvas.Frame,2_65,2022-06-24T12:08:00.105Z,,,0,V,2151.8460000000196,,,,881575.1000000001,881575,879406.477,879411.2000000002,879423.154,881591.293,,grey
Fixation,canvas.Screen,2_66_0_0,2022-06-24T12:08:02.424Z,,,1,A,2318.704000000027,timeout,,,883894.6000000001,883893.316,881574.616,881576.2000000002,881591.293,883909.997,,black
Stimulus,canvas.Screen,2_66_0_1,2022-06-24T12:08:02.524Z,,,1,A,99.66700000001583,timeout,,,883994.8000000003,883992.986,883893.316,883894.8000000003,883909.997,884009.664,,black
Reaction,canvas.Screen,2_66_0_2,2022-06-24T12:08:02.736Z,,,1,A,195.23600000038277,response,stim_detected,mousedown,884206.4000000004,884204.9000000004,883992.986,883995,884009.664,884209.694,,black
Trial,flow.Sequence,2_66_0,2022-06-24T12:08:02.736Z,,,1,A,2613.6070000004256,completion,,,884206.6000000001,884204.9000000004,881574.616,881576.1000000001,881591.293,884209.694,,black
Frame,canvas.Frame,2_66,2022-06-24T12:08:02.736Z,,,1,A,2615.5070000003325,,,,884206.9000000004,884206.8000000003,881574.616,881575.3000000003,881591.293,884209.694,,black
Fixation,canvas.Screen,2_67_0_0,2022-06-24T12:08:04.676Z,,,1,AV,1951.954000000027,timeout,,,886146.7000000002,886144.965,884193.017,884208,884209.694,886161.648,,grey
Stimulus,canvas.Screen,2_67_0_1,2022-06-24T12:08:04.775Z,,,1,AV,99.35999999998603,timeout,,,886245.7000000002,886244.331,886144.965,886147,886161.648,886261.008,,grey
Reaction,canvas.Screen,2_67_0_2,2022-06-24T12:08:04.906Z,,,1,AV,113.8920000003418,response,stim_detected,mousedown,886376.3000000003,886374.9000000004,886244.331,886246,886261.008,886394.48,,grey
Trial,flow.Sequence,2_67_0,2022-06-24T12:08:04.906Z,,,1,AV,2165.206000000355,completion,,,886376.6000000001,886374.9000000004,884193.017,884207.9000000004,884209.694,886394.48,,grey
Frame,canvas.Frame,2_67,2022-06-24T12:08:04.906Z,,,1,AV,2167.0060000001686,,,,886376.9000000004,886376.7000000002,884193.017,884207.1000000001,884209.694,886394.48,,grey
Fixation,canvas.Screen,2_68_0_0,2022-06-24T12:08:06.944Z,,,1,AV,2035.9930000000168,timeout,,,888414.9000000004,888413.785,886361.126,886378.1000000001,886394.48,888430.473,,grey
Stimulus,canvas.Screen,2_68_0_1,2022-06-24T12:08:07.043Z,,,1,AV,98.60800000000745,timeout,,,888513.8000000003,888512.405,888413.785,888415.2000000002,888430.473,888529.081,,grey
Reaction,canvas.Screen,2_68_0_2,2022-06-24T12:08:07.180Z,,,1,AV,119.71900000027381,response,stim_detected,mousedown,888650.3000000003,888648.8000000003,888512.405,888514,888529.081,888662.701,,grey
Trial,flow.Sequence,2_68_0,2022-06-24T12:08:07.180Z,,,1,AV,2254.320000000298,completion,,,888650.7000000002,888648.8000000003,886361.126,886378,886394.48,888662.701,,grey
Frame,canvas.Frame,2_68,2022-06-24T12:08:07.180Z,,,1,AV,2256.320000000298,,,,888650.9000000004,888650.8000000003,886361.126,886377.1000000001,886394.48,888662.701,,grey
Fixation,canvas.Screen,2_69_0_0,2022-06-24T12:08:09.045Z,,,1,A,1868.1990000000224,timeout,,,890516,890514.22,888646.024,888652,888662.701,890530.9,,black
Stimulus,canvas.Screen,2_69_0_1,2022-06-24T12:08:09.144Z,,,1,A,99.4649999999674,timeout,,,890614.9000000004,890613.69,890514.22,890516.2000000002,890530.9,890630.365,,black
Reaction,canvas.Screen,2_69_0_2,2022-06-24T12:08:09.340Z,,,1,A,178.4350000002887,response,stim_detected,mousedown,890810.3000000003,890808.8000000003,890613.69,890615.2000000002,890630.365,890814.138,,black
Trial,flow.Sequence,2_69_0,2022-06-24T12:08:09.340Z,,,1,A,2146.0990000002785,completion,,,890810.6000000001,890808.8000000003,888646.024,888652,888662.701,890814.138,,black
Frame,canvas.Frame,2_69,2022-06-24T12:08:09.340Z,,,1,A,2147.9990000001853,,,,890810.8000000003,890810.7000000002,888646.024,888651.1000000001,888662.701,890814.138,,black
Fixation,canvas.Screen,2_70_0_0,2022-06-24T12:08:11.245Z,,,1,AV,1917.4729999999981,timeout,,,892716,892714.937,890797.461,890812.7000000002,890814.138,892731.611,,grey
Stimulus,canvas.Screen,2_70_0_1,2022-06-24T12:08:11.347Z,,,1,AV,100.4419999999227,timeout,,,892817,892815.376,892714.937,892716.3000000003,892731.611,892832.053,,grey
Reaction,canvas.Screen,2_70_0_2,2022-06-24T12:08:11.518Z,,,1,AV,154.64700000023004,response,stim_detected,mousedown,892988.3000000003,892986.7000000002,892815.376,892817.3000000003,892832.053,892998.9,,grey
Trial,flow.Sequence,2_70_0,2022-06-24T12:08:11.518Z,,,1,AV,2172.562000000151,completion,,,892988.7000000002,892986.7000000002,890797.461,890812.6000000001,890814.138,892998.9,,grey
Frame,canvas.Frame,2_70,2022-06-24T12:08:11.518Z,,,1,AV,2174.662000000244,,,,892989,892988.8000000003,890797.461,890811,890814.138,892998.9,,grey
Fixation,canvas.Screen,2_71_0_0,2022-06-24T12:08:13.666Z,,,1,A,2152.4009999999544,timeout,,,895136.2000000002,895134.616,892982.223,892989.9000000004,892998.9,895151.301,,black
Stimulus,canvas.Screen,2_71_0_1,2022-06-24T12:08:13.765Z,,,1,A,99.04899999999907,timeout,,,895235.3000000003,895233.673,895134.616,895136.4000000004,895151.301,895250.35,,black
Reaction,canvas.Screen,2_71_0_2,2022-06-24T12:08:13.887Z,,,1,A,105.35000000020955,response,stim_detected,mousedown,895357.2000000002,895355.7000000002,895233.673,895235.6000000001,895250.35,895367.19,,black
Trial,flow.Sequence,2_71_0,2022-06-24T12:08:13.887Z,,,1,A,2356.800000000163,completion,,,895357.5,895355.7000000002,892982.223,892989.9000000004,892998.9,895367.19,,black
Frame,canvas.Frame,2_71,2022-06-24T12:08:13.887Z,,,1,A,2358.800000000163,,,,895357.9000000004,895357.7000000002,892982.223,892989.2000000002,892998.9,895367.19,,black
Fixation,canvas.Screen,2_72_0_0,2022-06-24T12:08:16.300Z,,,1,A,2418.3210000001127,timeout,,,897770.3000000003,897768.833,895350.513,895358.9000000004,895367.19,897785.511,,black
Stimulus,canvas.Screen,2_72_0_1,2022-06-24T12:08:16.400Z,,,1,A,99.98799999989569,timeout,,,897870.5,897868.822,897768.833,897770.6000000001,897785.511,897885.499,,black
Reaction,canvas.Screen,2_72_0_2,2022-06-24T12:08:16.610Z,,,1,A,193.20100000023376,response,stim_detected,mousedown,898080.3000000003,898078.7000000002,897868.822,897870.8000000003,897885.499,898085.658,,black
Trial,flow.Sequence,2_72_0,2022-06-24T12:08:16.610Z,,,1,A,2711.510000000242,completion,,,898080.9000000004,898078.7000000002,895350.513,895358.8000000003,895367.19,898085.658,,black
Frame,canvas.Frame,2_72,2022-06-24T12:08:16.611Z,,,1,A,2713.910000000149,,,,898081.2000000002,898081.1000000001,895350.513,895358.1000000001,895367.19,898085.658,,black
Fixation,canvas.Screen,2_73_0_0,2022-06-24T12:08:18.518Z,,,0,V,1918.247999999905,timeout,,,899988.4000000004,899987.226,898068.981,898082.4000000004,898085.658,900003.906,,grey
Stimulus,canvas.Screen,2_73_0_1,2022-06-24T12:08:18.618Z,,,0,V,99.64199999999255,timeout,,,900088.4000000004,900086.872,899987.226,899988.8000000003,900003.906,900103.548,,grey
Reaction,canvas.Screen,2_73_0_2,2022-06-24T12:08:18.862Z,,,0,V,227.25200000032783,response,stim_detected,mousedown,900332.2000000002,900330.8000000003,900086.872,900088.6000000001,900103.548,900337.168,,grey
Trial,flow.Sequence,2_73_0,2022-06-24T12:08:18.862Z,,,0,V,2245.1420000002254,completion,,,900332.7000000002,900330.8000000003,898068.981,898082.3000000003,898085.658,900337.168,,grey
Frame,canvas.Frame,2_73,2022-06-24T12:08:18.863Z,,,0,V,2247.2420000003185,,,,900333.1000000001,900332.9000000004,898068.981,898081.4000000004,898085.658,900337.168,,grey
Fixation,canvas.Screen,2_74_0_0,2022-06-24T12:08:20.653Z,,,0,V,1801.3800000000047,timeout,,,902123.5,902121.869,900320.491,900334.3000000003,900337.168,902138.548,,grey
Stimulus,canvas.Screen,2_74_0_1,2022-06-24T12:08:20.753Z,,,0,V,99.87300000002142,timeout,,,902223.5,902221.744,902121.869,902123.7000000002,902138.548,902238.421,,grey
Reaction,canvas.Screen,2_74_0_2,2022-06-24T12:08:20.920Z,,,0,V,150.27900000021327,response,stim_detected,mousedown,902390.1000000001,902388.7000000002,902221.744,902223.7000000002,902238.421,902405.18,,grey
Trial,flow.Sequence,2_74_0,2022-06-24T12:08:20.920Z,,,0,V,2051.5320000002393,completion,,,902390.6000000001,902388.7000000002,900320.491,900334.1000000001,900337.168,902405.18,,grey
Frame,canvas.Frame,2_74,2022-06-24T12:08:20.920Z,,,0,V,2053.5320000002393,,,,902391,902390.7000000002,900320.491,900333.4000000004,900337.168,902405.18,,grey
Fixation,canvas.Screen,2_75_0_0,2022-06-24T12:08:22.489Z,,,1,AV,1568.6139999999432,timeout,,,903958.5,903957.108,902388.503,902392.1000000001,902405.18,903973.794,,grey
Stimulus,canvas.Screen,2_75_0_1,2022-06-24T12:08:22.588Z,,,1,AV,99.09799999999814,timeout,,,904057.6000000001,904056.216,903957.108,903958.8000000003,903973.794,904072.892,,grey
Reaction,canvas.Screen,2_75_0_2,2022-06-24T12:08:22.699Z,,,1,AV,93.80800000019372,response,stim_detected,mousedown,904168.2000000002,904166.7000000002,904056.216,904057.9000000004,904072.892,904173.083,,grey
Trial,flow.Sequence,2_75_0,2022-06-24T12:08:22.699Z,,,1,AV,1761.520000000135,completion,,,904168.6000000001,904166.7000000002,902388.503,902391.9000000004,902405.18,904173.083,,grey
Frame,canvas.Frame,2_75,2022-06-24T12:08:22.700Z,,,1,AV,1763.520000000135,,,,904168.9000000004,904168.7000000002,902388.503,902391.1000000001,902405.18,904173.083,,grey
Fixation,canvas.Screen,2_76_0_0,2022-06-24T12:08:24.539Z,,,1,AV,1851.2750000000233,timeout,,,906008.6000000001,906007.68,904156.406,904170,904173.083,906024.358,,grey
Stimulus,canvas.Screen,2_76_0_1,2022-06-24T12:08:24.639Z,,,1,AV,99.82400000002235,timeout,,,906108.6000000001,906107.506,906007.68,906008.9000000004,906024.358,906124.182,,grey
Reaction,canvas.Screen,2_76_0_2,2022-06-24T12:08:24.758Z,,,1,AV,101.51800000015646,response,stim_detected,mousedown,906227.1000000001,906225.7000000002,906107.506,906109,906124.182,906241.125,,grey
Trial,flow.Sequence,2_76_0,2022-06-24T12:08:24.758Z,,,1,AV,2052.617000000202,completion,,,906227.5,906225.7000000002,904156.406,904169.9000000004,904173.083,906241.125,,grey
Frame,canvas.Frame,2_76,2022-06-24T12:08:24.758Z,,,1,AV,2054.517000000109,,,,906227.8000000003,906227.6000000001,904156.406,904169.1000000001,904173.083,906241.125,,grey
Fixation,canvas.Screen,2_77_0_0,2022-06-24T12:08:26.823Z,,,1,AV,2067.408000000054,timeout,,,908292.7000000002,908291.86,906224.448,906228.9000000004,906241.125,908308.533,,grey
Stimulus,canvas.Screen,2_77_0_1,2022-06-24T12:08:26.924Z,,,1,AV,100.76299999991897,timeout,,,908393.8000000003,908392.616,908291.86,908293,908308.533,908409.296,,grey
Reaction,canvas.Screen,2_77_0_2,2022-06-24T12:08:27.068Z,,,1,AV,126.30400000012014,response,stim_detected,mousedown,908537.1000000001,908535.6000000001,908392.616,908394.1000000001,908409.296,908542.648,,grey
Trial,flow.Sequence,2_77_0,2022-06-24T12:08:27.068Z,,,1,AV,2294.475000000093,completion,,,908537.4000000004,908535.6000000001,906224.448,906228.8000000003,906241.125,908542.648,,grey
Frame,canvas.Frame,2_77,2022-06-24T12:08:27.068Z,,,1,AV,2296.475000000093,,,,908537.7000000002,908537.6000000001,906224.448,906227.9000000004,906241.125,908542.648,,grey
Fixation,canvas.Screen,2_78_0_0,2022-06-24T12:08:28.709Z,,,0,V,1651.7389999999432,timeout,,,910178.9000000004,910177.703,908525.971,908538.7000000002,908542.648,910194.387,,grey
Stimulus,canvas.Screen,2_78_0_1,2022-06-24T12:08:28.809Z,,,0,V,99.42399999999907,timeout,,,910277.9000000004,910276.774,910177.703,910179.1000000001,910194.387,910293.811,,grey
Reaction,canvas.Screen,2_78_0_2,2022-06-24T12:08:29.017Z,,,0,V,190.8890000001993,response,stim_detected,mousedown,910486.2000000002,910484.7000000002,910276.774,910278.2000000002,910293.811,910510.612,,grey
Trial,flow.Sequence,2_78_0,2022-06-24T12:08:29.017Z,,,0,V,1942.0520000001416,completion,,,910486.6000000001,910484.7000000002,908525.971,908538.7000000002,908542.648,910510.612,,grey
Frame,canvas.Frame,2_78,2022-06-24T12:08:29.018Z,,,0,V,1944.0520000001416,,,,910487,910486.7000000002,908525.971,908537.9000000004,908542.648,910510.612,,grey
Fixation,canvas.Screen,2_79_0_0,2022-06-24T12:08:31.395Z,,,0,V,2369.216000000015,timeout,,,912864.1000000001,912863.144,910477.258,910487.9000000004,910510.612,912879.828,,grey
Stimulus,canvas.Screen,2_79_0_1,2022-06-24T12:08:31.493Z,,,0,V,99.08499999996275,timeout,,,912962.7000000002,912962.109,912863.144,912864.4000000004,912879.828,912978.913,,grey
Reaction,canvas.Screen,2_79_0_2,2022-06-24T12:08:31.669Z,,,0,V,157.68700000015087,response,stim_detected,mousedown,913138.4000000004,913136.6000000001,912962.109,912962.7000000002,912978.913,913145.683,,grey
Trial,flow.Sequence,2_79_0,2022-06-24T12:08:31.669Z,,,0,V,2625.9880000001285,completion,,,913138.8000000003,913136.6000000001,910477.258,910487.8000000003,910510.612,913145.683,,grey
Frame,canvas.Frame,2_79,2022-06-24T12:08:31.670Z,,,0,V,2628.288000000408,,,,913139.1000000001,913138.9000000004,910477.258,910487.1000000001,910510.612,913145.683,,grey
Fixation,canvas.Screen,2_80_0_0,2022-06-24T12:08:33.380Z,,,0,V,1718.6030000000028,timeout,,,914849.1000000001,914847.601,913129.006,913140.1000000001,913145.683,914864.286,,grey
Stimulus,canvas.Screen,2_80_0_1,2022-06-24T12:08:33.479Z,,,0,V,99.23800000001211,timeout,,,914948,914946.847,914847.601,914849.3000000003,914864.286,914963.524,,grey
Reaction,canvas.Screen,2_80_0_2,2022-06-24T12:08:33.677Z,,,0,V,180.97600000002421,response,stim_detected,mousedown,915146,915144.5,914946.847,914948.3000000003,914963.524,915163.745,,grey
Trial,flow.Sequence,2_80_0,2022-06-24T12:08:33.677Z,,,0,V,1998.8170000000391,completion,,,915146.4000000004,915144.5,913129.006,913140.1000000001,913145.683,915163.745,,grey
Frame,canvas.Frame,2_80,2022-06-24T12:08:33.677Z,,,0,V,2000.8170000000391,,,,915146.6000000001,915146.5,913129.006,913139.3000000003,913145.683,915163.745,,grey
Fixation,canvas.Screen,2_81_0_0,2022-06-24T12:08:35.748Z,,,1,AV,2068.4890000000596,timeout,,,917217.1000000001,917215.553,915147.068,915147.7000000002,915163.745,917232.234,,grey
Stimulus,canvas.Screen,2_81_0_1,2022-06-24T12:08:35.847Z,,,1,AV,99.54799999995157,timeout,,,917316.2000000002,917315.105,917215.553,917217.4000000004,917232.234,917331.782,,grey
Reaction,canvas.Screen,2_81_0_2,2022-06-24T12:08:37.348Z,,,1,AV,1500.9919999999693,timeout,,,918817.4000000004,918816.097,917315.105,917316.4000000004,917331.782,918832.774,,grey
Trial,flow.Sequence,2_81_0,2022-06-24T12:08:37.348Z,,,1,AV,3652.3519999999553,completion,,,918817.7000000002,918816.097,915147.068,915147.5,915163.745,918832.774,,grey
Frame,canvas.Frame,2_81,2022-06-24T12:08:37.349Z,,,1,AV,3654.155000000377,,,,918818,918817.9000000004,915147.068,915146.9000000004,915163.745,918849.451,,grey
Fixation,canvas.Screen,2_82_0_0,2022-06-24T12:08:39.700Z,,,1,A,2334.890999999945,timeout,,,921169.4000000004,921167.665,918832.774,918819.1000000001,918849.451,921184.342,,black
Stimulus,canvas.Screen,2_82_0_1,2022-06-24T12:08:39.797Z,,,1,A,97.03900000010617,timeout,,,921266.4000000004,921264.725,921167.665,921169.7000000002,921184.342,921281.381,,black
Reaction,canvas.Screen,2_82_0_2,2022-06-24T12:08:40.061Z,,,1,A,247.11899999994785,response,stim_detected,mousedown,921530.6000000001,921528.5,921264.725,921266.6000000001,921281.381,921534.652,,black
Trial,flow.Sequence,2_82_0,2022-06-24T12:08:40.062Z,,,1,A,2679.048999999999,completion,,,921531.2000000002,921528.5,918832.774,918819,918849.451,921534.652,,black
Frame,canvas.Frame,2_82,2022-06-24T12:08:40.062Z,,,1,A,2681.8490000002785,,,,921531.4000000004,921531.3000000003,918832.774,918818.2000000002,918849.451,921534.652,,black
Fixation,canvas.Screen,2_83_0_0,2022-06-24T12:08:41.951Z,,,1,A,1901.1779999999562,timeout,,,923420.6000000001,923419.153,921517.975,921532.6000000001,921534.652,923435.83,,black
Stimulus,canvas.Screen,2_83_0_1,2022-06-24T12:08:42.051Z,,,1,A,100.18900000001304,timeout,,,923520.5,923519.342,923419.153,923421,923435.83,923536.019,,black
Reaction,canvas.Screen,2_83_0_2,2022-06-24T12:08:42.183Z,,,1,A,115.3810000004014,response,stim_detected,mousedown,923652.8000000003,923651.4000000004,923519.342,923520.8000000003,923536.019,923669.437,,black
Trial,flow.Sequence,2_83_0,2022-06-24T12:08:42.184Z,,,1,A,2116.7480000003707,completion,,,923653.3000000003,923651.4000000004,921517.975,921532.5,921534.652,923669.437,,black
Frame,canvas.Frame,2_83,2022-06-24T12:08:42.184Z,,,1,A,2118.7480000003707,,,,923653.5,923653.4000000004,921517.975,921531.6000000001,921534.652,923669.437,,black
Fixation,canvas.Screen,2_84_0_0,2022-06-24T12:08:44.420Z,,,1,AV,2235.280999999959,timeout,,,925889.6000000001,925888.037,923652.76,923654.7000000002,923669.437,925904.718,,grey
Stimulus,canvas.Screen,2_84_0_1,2022-06-24T12:08:44.519Z,,,1,AV,99.23499999998603,timeout,,,925988.8000000003,925987.278,925888.037,925889.9000000004,925904.718,926003.953,,grey
Reaction,canvas.Screen,2_84_0_2,2022-06-24T12:08:44.675Z,,,1,AV,138.5470000000205,response,stim_detected,mousedown,926143.9000000004,926142.5,925987.278,925989,926003.953,926154.435,,grey
Trial,flow.Sequence,2_84_0,2022-06-24T12:08:44.675Z,,,1,AV,2473.0629999999655,completion,,,926144.3000000003,926142.5,923652.76,923654.5,923669.437,926154.435,,grey
Frame,canvas.Frame,2_84,2022-06-24T12:08:44.675Z,,,1,AV,2474.963000000338,,,,926144.6000000001,926144.4000000004,923652.76,923653.7000000002,923669.437,926154.435,,grey
Fixation,canvas.Screen,2_85_0_0,2022-06-24T12:08:46.937Z,,,1,A,2266.7519999999786,timeout,,,928406.3000000003,928404.519,926137.758,926145.6000000001,926154.435,928421.187,,black
Stimulus,canvas.Screen,2_85_0_1,2022-06-24T12:08:47.038Z,,,1,A,101.5559999999823,timeout,,,928507.9000000004,928506.063,928404.519,928406.6000000001,928421.187,928522.743,,black
Reaction,canvas.Screen,2_85_0_2,2022-06-24T12:08:47.250Z,,,1,A,194.65700000035577,response,stim_detected,mousedown,928718.9000000004,928717.4000000004,928506.063,928508.2000000002,928522.743,928722.781,,black
Trial,flow.Sequence,2_85_0,2022-06-24T12:08:47.250Z,,,1,A,2562.9650000003166,completion,,,928719.3000000003,928717.4000000004,926137.758,926145.5,926154.435,928722.781,,black
Frame,canvas.Frame,2_85,2022-06-24T12:08:47.250Z,,,1,A,2564.9650000003166,,,,928719.6000000001,928719.4000000004,926137.758,926144.8000000003,926154.435,928722.781,,black
Fixation,canvas.Screen,2_86_0_0,2022-06-24T12:08:48.940Z,,,1,A,1702,timeout,,,930409.8000000003,930408.095,928706.104,928720.7000000002,928722.781,930424.781,,black
Stimulus,canvas.Screen,2_86_0_1,2022-06-24T12:08:49.039Z,,,1,A,99.07200000004377,timeout,,,930508.8000000003,930507.177,930408.095,930410,930424.781,930523.853,,black
Reaction,canvas.Screen,2_86_0_2,2022-06-24T12:08:49.185Z,,,1,A,129.54700000036974,response,stim_detected,mousedown,930654.9000000004,930653.4000000004,930507.177,930509.1000000001,930523.853,930657.454,,black
Trial,flow.Sequence,2_86_0,2022-06-24T12:08:49.186Z,,,1,A,1930.6190000004135,completion,,,930655.2000000002,930653.4000000004,928706.104,928720.5,928722.781,930657.454,,black
Frame,canvas.Frame,2_86,2022-06-24T12:08:49.186Z,,,1,A,1932.6190000004135,,,,930655.5,930655.4000000004,928706.104,928719.8000000003,928722.781,930657.454,,black
Fixation,canvas.Screen,2_87_0_0,2022-06-24T12:08:51.274Z,,,0,V,2101.3159999999916,timeout,,,932742.9000000004,932742.093,930640.777,930656.5,930657.454,932758.77,,grey
Stimulus,canvas.Screen,2_87_0_1,2022-06-24T12:08:51.374Z,,,0,V,100.1589999999851,timeout,,,932843,932841.746,932742.093,932743.2000000002,932758.77,932858.929,,grey
Reaction,canvas.Screen,2_87_0_2,2022-06-24T12:08:51.653Z,,,0,V,261.5709999999963,response,stim_detected,mousedown,933122,933120.5,932841.746,932843.2000000002,932858.929,933125.761,,grey
Trial,flow.Sequence,2_87_0,2022-06-24T12:08:51.653Z,,,0,V,2463.045999999973,completion,,,933122.5,933120.5,930640.777,930656.4000000004,930657.454,933125.761,,grey
Frame,canvas.Frame,2_87,2022-06-24T12:08:51.653Z,,,0,V,2465.146000000066,,,,933122.7000000002,933122.6000000001,930640.777,930655.7000000002,930657.454,933125.761,,grey
Fixation,canvas.Screen,2_88_0_0,2022-06-24T12:08:53.658Z,,,1,AV,2017.076999999932,timeout,,,935127.2000000002,935126.167,933109.084,933123.8000000003,933125.761,935142.838,,grey
Stimulus,canvas.Screen,2_88_0_1,2022-06-24T12:08:53.759Z,,,1,AV,100.90200000000186,timeout,,,935228.2000000002,935227.063,935126.167,935127.4000000004,935142.838,935243.74,,grey
Reaction,canvas.Screen,2_88_0_2,2022-06-24T12:08:53.877Z,,,1,AV,101.66000000038184,response,stim_detected,mousedown,935346.7000000002,935345.4000000004,935227.063,935228.4000000004,935243.74,935360.591,,grey
Trial,flow.Sequence,2_88_0,2022-06-24T12:08:53.878Z,,,1,AV,2219.6390000003157,completion,,,935347.1000000001,935345.4000000004,933109.084,933123.7000000002,933125.761,935360.591,,grey
Frame,canvas.Frame,2_88,2022-06-24T12:08:53.878Z,,,1,AV,2221.4390000001295,,,,935347.4000000004,935347.2000000002,933109.084,933123,933125.761,935360.591,,grey
Fixation,canvas.Screen,2_89_0_0,2022-06-24T12:08:56.027Z,,,0,V,2150.5109999999404,timeout,,,937496.2000000002,937494.431,935343.914,935348.4000000004,935360.591,937511.102,,grey
Stimulus,canvas.Screen,2_89_0_1,2022-06-24T12:08:56.127Z,,,0,V,100.99100000003818,timeout,,,937596.2000000002,937594.739,937494.431,937496.6000000001,937511.102,937612.093,,grey
Reaction,canvas.Screen,2_89_0_2,2022-06-24T12:08:56.323Z,,,0,V,178.30700000037905,response,stim_detected,mousedown,937792,937790.4000000004,937594.739,937596.4000000004,937612.093,937795.54,,grey
Trial,flow.Sequence,2_89_0,2022-06-24T12:08:56.323Z,,,0,V,2429.8090000003576,completion,,,937792.4000000004,937790.4000000004,935343.914,935348.4000000004,935360.591,937795.54,,grey
Frame,canvas.Frame,2_89,2022-06-24T12:08:56.323Z,,,0,V,2431.908999999985,,,,937792.8000000003,937792.5,935343.914,935347.6000000001,935360.591,937795.54,,grey
Fixation,canvas.Screen,2_90_0_0,2022-06-24T12:08:57.996Z,,,1,A,1684.719999999972,timeout,,,939465.3000000003,939463.58,937778.863,937793.8000000003,937795.54,939480.26,,black
Stimulus,canvas.Screen,2_90_0_1,2022-06-24T12:08:58.095Z,,,1,A,99.8399999999674,timeout,,,939564.3000000003,939563.423,939463.58,939465.5,939480.26,939580.1,,black
Reaction,canvas.Screen,2_90_0_2,2022-06-24T12:08:58.489Z,,,1,A,377.2000000003027,response,stim_detected,mousedown,939958.8000000003,939957.3000000003,939563.423,939564.5,939580.1,939980.341,,black
Trial,flow.Sequence,2_90_0,2022-06-24T12:08:58.490Z,,,1,A,2161.760000000242,completion,,,939959.1000000001,939957.3000000003,937778.863,937793.7000000002,937795.54,939980.341,,black
Frame,canvas.Frame,2_90,2022-06-24T12:08:58.490Z,,,1,A,2163.660000000149,,,,939959.4000000004,939959.2000000002,937778.863,937792.9000000004,937795.54,939980.341,,black
Loop,flow.Loop,2,2022-06-24T12:08:58.490Z,,,,,209802.6660000002,completion,,,939959.8000000003,939959.2000000002,730139.858,730142.4000000004,730156.534,939980.341,,
end,html.Page,3,2022-06-24T12:09:04.824Z,,,,,6312.359000000171,form submission,,,946293.4000000004,946292.7000000002,939963.664,939960,939980.341,946287.545,,
root,flow.Sequence,,2022-06-24T12:09:04.825Z,,,,,944693.4150000002,completion,,,946294.4000000004,946292.7000000002,1582.612,1585.8000000002794,1599.285,946287.545,,