sender,sender_type,sender_id,timestamp,meta,,aud,condition,duration,ended_on,response,response_action,time_commit,time_end,time_render,time_run,time_show,time_switch,url,vis
Instructions,html.Page,0,2022-07-01T11:47:00.373Z,"{""labjs_version"":""20.2.4"",""labjs_build"":{""flavor"":""production"",""commit"":""f5b4a49f956347addd546a832a3327688c2c0fef""},""location"":""file:///C:/Users/Proband%207/Desktop/RTE/index.html"",""userAgent"":""Mozilla/5.0 (Windows NT 6.1; Win64; x64) AppleWebKit/537.36 (KHTML, like Gecko) Chrome/102.0.0.0 Safari/537.36"",""platform"":""Win32"",""language"":""de-DE"",""locale"":""de"",""timeZone"":""Europe/Berlin"",""timezoneOffset"":-120,""screen_width"":1366,""screen_height"":768,""scroll_width"":795,""scroll_height"":568,""window_innerWidth"":795,""window_innerHeight"":616,""devicePixelRatio"":1}",,,,593957.804,form submission,,,597954.2000000001,597953.3,3945.472,3957.1999999999825,3995.496,597979.332,{},
Change Background,canvas.Screen,1,2022-07-01T11:47:03.383Z,,,,,3000.350999999908,timeout,,,600964.3,600963.007,597962.628,597954.6,597979.332,600979.683,,
Fixation,canvas.Screen,2_0_0_0,2022-07-01T11:47:05.158Z,,,0,V,1774.9440000000177,timeout,,,602738.9,602737.992,600963.007,600966,600979.683,602754.627,,grey
Stimulus,canvas.Screen,2_0_0_1,2022-07-01T11:47:05.251Z,,,0,V,93.02000000001863,timeout,,,602832.3,602830.97,602737.992,602739.1,602754.627,602847.647,,grey
Reaction,canvas.Screen,2_0_0_2,2022-07-01T11:47:05.487Z,,,0,V,218.3530000000028,response,stim_detected,mousedown,603067.3,603066,602830.97,602832.8,602847.647,603078.367,,grey
Trial,flow.Sequence,2_0_0,2022-07-01T11:47:05.487Z,,,0,V,2086.317000000039,completion,,,603067.7000000001,603066,600963.007,600966,600979.683,603078.367,,grey
Frame,canvas.Frame,2_0,2022-07-01T11:47:05.487Z,,,0,V,2088.1170000000857,,,,603068,603067.8,600963.007,600964.6,600979.683,603078.367,,grey
Fixation,canvas.Screen,2_1_0_0,2022-07-01T11:47:07.510Z,,,1,AV,2028.3360000000102,timeout,,,605091.1,605090.034,603061.847,603069.3,603078.367,605106.703,,grey
Stimulus,canvas.Screen,2_1_0_1,2022-07-01T11:47:07.603Z,,,1,AV,92.57099999999627,timeout,,,605183.7000000001,605182.587,605090.034,605091.5,605106.703,605199.274,,grey
Reaction,canvas.Screen,2_1_0_2,2022-07-01T11:47:07.863Z,,,1,AV,243.32600000000093,response,stim_detected,mousedown,605444.3,605442.6,605182.587,605183.9,605199.274,605449.342,,grey
Trial,flow.Sequence,2_1_0,2022-07-01T11:47:07.864Z,,,1,AV,2364.2330000000075,completion,,,605445.2000000001,605442.6,603061.847,603069.1,603078.367,605449.342,,grey
Frame,canvas.Frame,2_1,2022-07-01T11:47:07.865Z,,,1,AV,2367.033000000054,,,,605445.5,605445.4,603061.847,603068.2000000001,603078.367,605449.342,,grey
Fixation,canvas.Screen,2_2_0_0,2022-07-01T11:47:09.939Z,,,0,V,2084.627000000095,timeout,,,607519.4,607517.292,605432.665,605446.5,605449.342,607533.969,,grey
Stimulus,canvas.Screen,2_2_0_1,2022-07-01T11:47:10.038Z,,,0,V,100.07399999990594,timeout,,,607618.7000000001,607617.366,607517.292,607519.7000000001,607533.969,607634.043,,grey
Reaction,canvas.Screen,2_2_0_2,2022-07-01T11:47:10.210Z,,,0,V,155.75700000009965,response,stim_detected,mousedown,607790.7000000001,607789.8,607617.366,607618.9,607634.043,607800.879,,grey
Trial,flow.Sequence,2_2_0,2022-07-01T11:47:10.210Z,,,0,V,2340.4580000001006,completion,,,607791,607789.8,605432.665,605446.5,605449.342,607800.879,,grey
Frame,canvas.Frame,2_2,2022-07-01T11:47:10.210Z,,,0,V,2341.658000000054,,,,607791.1,607791,605432.665,605445.8,605449.342,607800.879,,grey
Fixation,canvas.Screen,2_3_0_0,2022-07-01T11:47:12.138Z,,,0,V,1933.7580000000307,timeout,,,609718.6,609717.966,607784.202,607791.7000000001,607800.879,609734.637,,grey
Stimulus,canvas.Screen,2_3_0_1,2022-07-01T11:47:12.239Z,,,0,V,100.87899999995716,timeout,,,609819.7000000001,609818.839,609717.966,609718.8,609734.637,609835.516,,grey
Reaction,canvas.Screen,2_3_0_2,2022-07-01T11:47:12.351Z,,,0,V,94.58400000003166,response,stim_detected,mousedown,609931.6,609930.1,609818.839,609819.7000000001,609835.516,609935.55,,grey
Trial,flow.Sequence,2_3_0,2022-07-01T11:47:12.351Z,,,0,V,2129.2210000000196,completion,,,609931.9,609930.1,607784.202,607791.7000000001,607800.879,609935.55,,grey
Frame,canvas.Frame,2_3,2022-07-01T11:47:12.351Z,,,0,V,2131.121000000043,,,,609932.2000000001,609932,607784.202,607791.2000000001,607800.879,609935.55,,grey
Fixation,canvas.Screen,2_4_0_0,2022-07-01T11:47:14.441Z,,,0,V,2101.7269999999553,timeout,,,612022.2000000001,612020.597,609918.873,609933.6,609935.55,612037.277,,grey
Stimulus,canvas.Screen,2_4_0_1,2022-07-01T11:47:14.541Z,,,0,V,99.67599999997765,timeout,,,612121.6,612120.276,612020.597,612022.5,612037.277,612136.953,,grey
Reaction,canvas.Screen,2_4_0_2,2022-07-01T11:47:14.703Z,,,0,V,144.94700000004377,response,stim_detected,mousedown,612283.8,612281.9,612120.276,612121.9,612136.953,612287.084,,grey
Trial,flow.Sequence,2_4_0,2022-07-01T11:47:14.703Z,,,0,V,2346.3499999999767,completion,,,612284.2000000001,612281.9,609918.873,609933.4,609935.55,612287.084,,grey
Frame,canvas.Frame,2_4,2022-07-01T11:47:14.704Z,,,0,V,2348.8499999999767,,,,612284.5,612284.4,609918.873,609932.5,609935.55,612287.084,,grey
Fixation,canvas.Screen,2_5_0_0,2022-07-01T11:47:16.659Z,,,1,AV,1968.859999999986,timeout,,,614240.4,614239.259,612270.407,612285.9,612287.084,614255.944,,grey
Stimulus,canvas.Screen,2_5_0_1,2022-07-01T11:47:16.758Z,,,1,AV,98.73399999993853,timeout,,,614338.9,614338.004,614239.259,614240.6,614255.944,614354.678,,grey
Reaction,canvas.Screen,2_5_0_2,2022-07-01T11:47:16.898Z,,,1,AV,122.22200000006706,response,stim_detected,mousedown,614478.3,614476.9,614338.004,614338.9,614354.678,614488.535,,grey
Trial,flow.Sequence,2_5_0,2022-07-01T11:47:16.898Z,,,1,AV,2189.8159999999916,completion,,,614478.8,614476.9,612270.407,612285.7000000001,612287.084,614488.535,,grey
Frame,canvas.Frame,2_5,2022-07-01T11:47:16.898Z,,,1,AV,2191.9159999999683,,,,614479.2000000001,614479,612270.407,612284.8,612287.084,614488.535,,grey
Fixation,canvas.Screen,2_6_0_0,2022-07-01T11:47:19.194Z,,,1,A,2300.6919999999227,timeout,,,616774.5,616772.555,614471.858,614480.5,614488.535,616789.227,,black
Stimulus,canvas.Screen,2_6_0_1,2022-07-01T11:47:19.294Z,,,1,A,100.90700000000652,timeout,,,616874.6,616873.457,616772.555,616775,616789.227,616890.134,,black
Reaction,canvas.Screen,2_6_0_2,2022-07-01T11:47:19.435Z,,,1,A,124.66600000008475,response,stim_detected,mousedown,617016.4,617014.8,616873.457,616874.9,616890.134,617023.49,,black
Trial,flow.Sequence,2_6_0,2022-07-01T11:47:19.436Z,,,1,A,2526.265000000014,completion,,,617016.7000000001,617014.8,614471.858,614480.4,614488.535,617023.49,,black
Frame,canvas.Frame,2_6,2022-07-01T11:47:19.436Z,,,1,A,2528.265000000014,,,,617017,617016.8,614471.858,614479.3,614488.535,617023.49,,black
Fixation,canvas.Screen,2_7_0_0,2022-07-01T11:47:20.946Z,,,1,A,1518.048999999999,timeout,,,618526.6,618524.857,617006.813,617018.7000000001,617023.49,618541.539,,black
Stimulus,canvas.Screen,2_7_0_1,2022-07-01T11:47:21.045Z,,,1,A,99.29599999997299,timeout,,,618625.3,618624.162,618524.857,618526.8,618541.539,618640.835,,black
Reaction,canvas.Screen,2_7_0_2,2022-07-01T11:47:21.173Z,,,1,A,111.96500000008382,response,stim_detected,mousedown,618754.2000000001,618752.8,618624.162,618625.6,618640.835,618774.596,,black
Trial,flow.Sequence,2_7_0,2022-07-01T11:47:21.174Z,,,1,A,1729.3100000000559,completion,,,618754.7000000001,618752.8,617006.813,617018.5,617023.49,618774.596,,black
Frame,canvas.Frame,2_7,2022-07-01T11:47:21.174Z,,,1,A,1731.3100000000559,,,,618755,618754.8,617006.813,617017.2000000001,617023.49,618774.596,,black
Fixation,canvas.Screen,2_8_0_0,2022-07-01T11:47:23.314Z,,,0,V,2135.3159999999916,timeout,,,620894.5,620893.23,618741.242,618756.2000000001,618774.596,620909.912,,grey
Stimulus,canvas.Screen,2_8_0_1,2022-07-01T11:47:23.412Z,,,0,V,98.86300000001211,timeout,,,620993.2000000001,620992.102,620893.23,620894.8,620909.912,621008.775,,grey
Reaction,canvas.Screen,2_8_0_2,2022-07-01T11:47:23.584Z,,,0,V,154.92500000004657,response,stim_detected,mousedown,621165.2000000001,621163.7000000001,620992.102,620993.5,621008.775,621176.132,,grey
Trial,flow.Sequence,2_8_0,2022-07-01T11:47:23.585Z,,,0,V,2389.1040000000503,completion,,,621165.7000000001,621163.7000000001,618741.242,618756.1,618774.596,621176.132,,grey
Frame,canvas.Frame,2_8,2022-07-01T11:47:23.585Z,,,0,V,2391.3040000000037,,,,621166.1,621165.9,618741.242,618755.1,618774.596,621176.132,,grey
Fixation,canvas.Screen,2_9_0_0,2022-07-01T11:47:25.733Z,,,1,A,2152.1940000000177,timeout,,,623313.7000000001,623311.643,621159.455,621167.4,621176.132,623328.326,,black
Stimulus,canvas.Screen,2_9_0_1,2022-07-01T11:47:25.831Z,,,1,A,99.36800000001676,timeout,,,623412.1,623411.016,623311.643,623313.9,623328.326,623427.694,,black
Reaction,canvas.Screen,2_9_0_2,2022-07-01T11:47:26.009Z,,,1,A,160.8059999999823,response,stim_detected,mousedown,623590,623588.5,623411.016,623412.2000000001,623427.694,623594.4,,black
Trial,flow.Sequence,2_9_0,2022-07-01T11:47:26.010Z,,,1,A,2412.3680000000168,completion,,,623590.4,623588.5,621159.455,621167.3,621176.132,623594.4,,black
Frame,canvas.Frame,2_9,2022-07-01T11:47:26.010Z,,,1,A,2414.3680000000168,,,,623590.8,623590.5,621159.455,621166.2000000001,621176.132,623594.4,,black
Fixation,canvas.Screen,2_10_0_0,2022-07-01T11:47:27.699Z,,,1,A,1700.8349999999627,timeout,,,625279.5,625278.56,623577.723,623592.3,623594.4,625295.235,,black
Stimulus,canvas.Screen,2_10_0_1,2022-07-01T11:47:27.800Z,,,1,A,100.32099999999627,timeout,,,625380.5,625378.848,625278.56,625279.7000000001,625295.235,625395.556,,black
Reaction,canvas.Screen,2_10_0_2,2022-07-01T11:47:27.919Z,,,1,A,102.84400000004098,response,stim_detected,mousedown,625500.2000000001,625498.4,625378.848,625380.7000000001,625395.556,625512.295,,black
Trial,flow.Sequence,2_10_0,2022-07-01T11:47:27.920Z,,,1,A,1904,completion,,,625500.6,625498.4,623577.723,623592.2000000001,623594.4,625512.295,,black
Frame,canvas.Frame,2_10,2022-07-01T11:47:27.920Z,,,1,A,1906.5,,,,625501.2000000001,625500.9,623577.723,623590.9,623594.4,625512.295,,black
Fixation,canvas.Screen,2_11_0_0,2022-07-01T11:47:30.052Z,,,0,V,2135.2119999999413,timeout,,,627632.6,627630.826,625495.618,625502.6,625512.295,627647.507,,grey
Stimulus,canvas.Screen,2_11_0_1,2022-07-01T11:47:30.151Z,,,0,V,99.29599999997299,timeout,,,627731.5,627730.128,627630.826,627632.8,627647.507,627746.803,,grey
Reaction,canvas.Screen,2_11_0_2,2022-07-01T11:47:30.368Z,,,0,V,200.59700000006706,response,stim_detected,mousedown,627949.1,627947.4,627730.128,627732.1,627746.803,627963.877,,grey
Trial,flow.Sequence,2_11_0,2022-07-01T11:47:30.369Z,,,0,V,2435.1049999999814,completion,,,627949.5,627947.4,625495.618,625502.4,625512.295,627963.877,,grey
Frame,canvas.Frame,2_11,2022-07-01T11:47:30.369Z,,,0,V,2437.304999999935,,,,627950,627949.6,625495.618,625501.3,625512.295,627963.877,,grey
Fixation,canvas.Screen,2_12_0_0,2022-07-01T11:47:32.869Z,,,1,AV,2500.7360000000335,timeout,,,630449.6,630447.941,627947.2,627951.3,627963.877,630464.613,,grey
Stimulus,canvas.Screen,2_12_0_1,2022-07-01T11:47:32.969Z,,,1,AV,100.94599999999627,timeout,,,630550.2000000001,630548.882,630447.941,630449.9,630464.613,630565.559,,grey
Reaction,canvas.Screen,2_12_0_2,2022-07-01T11:47:33.109Z,,,1,AV,122.74100000003818,response,stim_detected,mousedown,630690,630688.3,630548.882,630550.3,630565.559,630698.94,,grey
Trial,flow.Sequence,2_12_0,2022-07-01T11:47:33.110Z,,,1,AV,2724.423000000068,completion,,,630690.5,630688.3,627947.2,627951.2000000001,627963.877,630698.94,,grey
Frame,canvas.Frame,2_12,2022-07-01T11:47:33.110Z,,,1,AV,2726.722999999998,,,,630690.9,630690.6,627947.2,627950.2000000001,627963.877,630698.94,,grey
Fixation,canvas.Screen,2_13_0_0,2022-07-01T11:47:34.672Z,,,1,A,1568.752000000095,timeout,,,632252.7000000001,632251.004,630682.263,630692.1,630698.94,632267.692,,black
Stimulus,canvas.Screen,2_13_0_1,2022-07-01T11:47:34.770Z,,,1,A,98.68499999993946,timeout,,,632351,632349.703,632251.004,632253.2000000001,632267.692,632366.377,,black
Reaction,canvas.Screen,2_13_0_2,2022-07-01T11:47:35.045Z,,,1,A,257.82300000009127,response,stim_detected,mousedown,632625.8,632624.2000000001,632349.703,632351.4,632366.377,632633.491,,black
Trial,flow.Sequence,2_13_0,2022-07-01T11:47:35.045Z,,,1,A,1925.2600000001257,completion,,,632626.1,632624.2000000001,630682.263,630692,630698.94,632633.491,,black
Frame,canvas.Frame,2_13,2022-07-01T11:47:35.046Z,,,1,A,1927.2600000001257,,,,632626.5,632626.2000000001,630682.263,630691,630698.94,632633.491,,black
Fixation,canvas.Screen,2_14_0_0,2022-07-01T11:47:37.522Z,,,1,AV,2484.8919999999925,timeout,,,635102.8,635101.706,632616.815,632627.7000000001,632633.491,635118.383,,grey
Stimulus,canvas.Screen,2_14_0_1,2022-07-01T11:47:37.623Z,,,1,AV,100.23300000000745,timeout,,,635203.9,635201.937,635101.706,635103,635118.383,635218.616,,grey
Reaction,canvas.Screen,2_14_0_2,2022-07-01T11:47:37.782Z,,,1,AV,143.38399999996182,response,stim_detected,mousedown,635363.3,635362,635201.937,635204.2000000001,635218.616,635368.63,,grey
Trial,flow.Sequence,2_14_0,2022-07-01T11:47:37.783Z,,,1,AV,2728.508999999962,completion,,,635363.6,635362,632616.815,632627.6,632633.491,635368.63,,grey
Frame,canvas.Frame,2_14,2022-07-01T11:47:37.783Z,,,1,AV,2730.2090000000317,,,,635363.8,635363.7000000001,632616.815,632626.7000000001,632633.491,635368.63,,grey
Fixation,canvas.Screen,2_15_0_0,2022-07-01T11:47:39.908Z,,,1,AV,2135.0230000000447,timeout,,,637488.3,637486.973,635351.953,635365.2000000001,635368.63,637503.653,,grey
Stimulus,canvas.Screen,2_15_0_1,2022-07-01T11:47:40.007Z,,,1,AV,99.14999999990687,timeout,,,637587.8,637586.13,637486.973,637488.5,637503.653,637602.803,,grey
Reaction,canvas.Screen,2_15_0_2,2022-07-01T11:47:40.133Z,,,1,AV,109.69700000004377,response,stim_detected,mousedown,637714.2000000001,637712.5,637586.13,637588.1,637602.803,637720.165,,grey
Trial,flow.Sequence,2_15_0,2022-07-01T11:47:40.134Z,,,1,AV,2343.8699999999953,completion,,,637714.6,637712.5,635351.953,635365.1,635368.63,637720.165,,grey
Frame,canvas.Frame,2_15,2022-07-01T11:47:40.134Z,,,1,AV,2346.070000000065,,,,637714.9,637714.7000000001,635351.953,635364,635368.63,637720.165,,grey
Fixation,canvas.Screen,2_16_0_0,2022-07-01T11:47:42.375Z,,,0,V,2250.5320000000065,timeout,,,639955.7000000001,639954.026,637703.488,637716.3,637720.165,639970.697,,grey
Stimulus,canvas.Screen,2_16_0_1,2022-07-01T11:47:42.475Z,,,0,V,100.96899999992456,timeout,,,640056,640054.618,639954.026,639956,639970.697,640071.666,,grey
Reaction,canvas.Screen,2_16_0_2,2022-07-01T11:47:42.655Z,,,0,V,162.33400000003166,response,stim_detected,mousedown,640235.5,640234,640054.618,640056.3,640071.666,640238.436,,grey
Trial,flow.Sequence,2_16_0,2022-07-01T11:47:42.655Z,,,0,V,2513.8349999999627,completion,,,640235.9,640234,637703.488,637716.2000000001,637720.165,640238.436,,grey
Frame,canvas.Frame,2_16,2022-07-01T11:47:42.655Z,,,0,V,2515.8349999999627,,,,640236.3,640236,637703.488,637715.1,637720.165,640238.436,,grey
Fixation,canvas.Screen,2_17_0_0,2022-07-01T11:47:44.611Z,,,0,V,1968.511999999988,timeout,,,642191.8,642190.266,640221.759,640237.5,640238.436,642206.948,,grey
Stimulus,canvas.Screen,2_17_0_1,2022-07-01T11:47:44.710Z,,,0,V,99.35800000000745,timeout,,,642291,642289.63,642190.266,642192,642206.948,642306.306,,grey
Reaction,canvas.Screen,2_17_0_2,2022-07-01T11:47:44.907Z,,,0,V,179.59400000004098,response,stim_detected,mousedown,642487.4,642485.9,642289.63,642291.2000000001,642306.306,642506.575,,grey
Trial,flow.Sequence,2_17_0,2022-07-01T11:47:44.907Z,,,0,V,2247.4640000000363,completion,,,642488,642485.9,640221.759,640237.4,640238.436,642506.575,,grey
Frame,canvas.Frame,2_17,2022-07-01T11:47:44.907Z,,,0,V,2249.764000000083,,,,642488.3,642488.2000000001,640221.759,640236.5,640238.436,642506.575,,grey
Fixation,canvas.Screen,2_18_0_0,2022-07-01T11:47:47.228Z,,,1,AV,2318.0810000000056,timeout,,,644809,644807.979,642473.221,642489.9,642506.575,644824.656,,grey
Stimulus,canvas.Screen,2_18_0_1,2022-07-01T11:47:47.328Z,,,1,AV,99.56800000008661,timeout,,,644908.9,644907.551,644807.979,644809.3,644824.656,644924.224,,grey
Reaction,canvas.Screen,2_18_0_2,2022-07-01T11:47:47.461Z,,,1,AV,116.57600000000093,response,stim_detected,mousedown,645042.4,645040.8,644907.551,644909.2000000001,644924.224,645058.213,,grey
Trial,flow.Sequence,2_18_0,2022-07-01T11:47:47.462Z,,,1,AV,2534.225000000093,completion,,,645042.8,645040.8,642473.221,642489.7000000001,642506.575,645058.213,,grey
Frame,canvas.Frame,2_18,2022-07-01T11:47:47.462Z,,,1,AV,2536.32500000007,,,,645043.1,645042.9,642473.221,642488.5,642506.575,645058.213,,grey
Fixation,canvas.Screen,2_19_0_0,2022-07-01T11:47:49.495Z,,,0,V,2033.408000000054,timeout,,,647075.9,647074.953,645041.536,645044.3,645058.213,647091.621,,grey
Stimulus,canvas.Screen,2_19_0_1,2022-07-01T11:47:49.597Z,,,0,V,101.32999999995809,timeout,,,647178,647176.27,647074.953,647076.2000000001,647091.621,647192.951,,grey
Reaction,canvas.Screen,2_19_0_2,2022-07-01T11:47:49.762Z,,,0,V,147.74900000006892,response,stim_detected,mousedown,647342.5,647340.7000000001,647176.27,647178.2000000001,647192.951,647359.69,,grey
Trial,flow.Sequence,2_19_0,2022-07-01T11:47:49.762Z,,,0,V,2282.487000000081,completion,,,647342.9,647340.7000000001,645041.536,645044.2000000001,645058.213,647359.69,,grey
Frame,canvas.Frame,2_19,2022-07-01T11:47:49.762Z,,,0,V,2284.787000000011,,,,647343.3,647343,645041.536,645043.3,645058.213,647359.69,,grey
Fixation,canvas.Screen,2_20_0_0,2022-07-01T11:47:51.514Z,,,1,AV,1750.7450000001118,timeout,,,649095,649093.761,647343.013,647344.3,647359.69,649110.435,,grey
Stimulus,canvas.Screen,2_20_0_1,2022-07-01T11:47:51.615Z,,,1,AV,100.45199999993201,timeout,,,649196.1,649194.21,649093.761,649095.3,649110.435,649210.887,,grey
Reaction,canvas.Screen,2_20_0_2,2022-07-01T11:47:51.755Z,,,1,AV,123.81300000008196,response,stim_detected,mousedown,649336.1,649334.7000000001,649194.21,649196.4,649210.887,649344.255,,grey
Trial,flow.Sequence,2_20_0,2022-07-01T11:47:51.756Z,,,1,AV,1975.0100000001257,completion,,,649336.5,649334.7000000001,647343.013,647344.2000000001,647359.69,649344.255,,grey
Frame,canvas.Frame,2_20,2022-07-01T11:47:51.756Z,,,1,AV,1976.9100000000326,,,,649336.9,649336.6,647343.013,647343.5,647359.69,649344.255,,grey
Fixation,canvas.Screen,2_21_0_0,2022-07-01T11:47:54.034Z,,,0,V,2286.5379999999423,timeout,,,651615.1,651614.104,649327.579,649338,649344.255,651630.793,,grey
Stimulus,canvas.Screen,2_21_0_1,2022-07-01T11:47:54.133Z,,,0,V,98.40900000010151,timeout,,,651714.3,651712.525,651614.104,651615.4,651630.793,651729.202,,grey
Reaction,canvas.Screen,2_21_0_2,2022-07-01T11:47:54.323Z,,,0,V,173.3979999999283,response,stim_detected,mousedown,651904.1,651902.6,651712.525,651714.6,651729.202,651912.625,,grey
Trial,flow.Sequence,2_21_0,2022-07-01T11:47:54.324Z,,,0,V,2558.344999999972,completion,,,651904.6,651902.6,649327.579,649337.9,649344.255,651912.625,,grey
Frame,canvas.Frame,2_21,2022-07-01T11:47:54.324Z,,,0,V,2560.445000000065,,,,651904.9,651904.7000000001,649327.579,649337,649344.255,651912.625,,grey
Fixation,canvas.Screen,2_22_0_0,2022-07-01T11:47:55.884Z,,,1,AV,1567.8540000000503,timeout,,,653465.1,653463.8,651895.948,651906.1,651912.625,653480.479,,grey
Stimulus,canvas.Screen,2_22_0_1,2022-07-01T11:47:55.984Z,,,1,AV,99.77599999995437,timeout,,,653565,653563.579,653463.8,653465.3,653480.479,653580.255,,grey
Reaction,canvas.Screen,2_22_0_2,2022-07-01T11:47:56.110Z,,,1,AV,109.24499999999534,response,stim_detected,mousedown,653691.1,653689.5,653563.579,653565.2000000001,653580.255,653697.045,,grey
Trial,flow.Sequence,2_22_0,2022-07-01T11:47:56.111Z,,,1,AV,1776.875,completion,,,653691.5,653689.5,651895.948,651906.1,651912.625,653697.045,,grey
Frame,canvas.Frame,2_22,2022-07-01T11:47:56.111Z,,,1,AV,1778.9749999999767,,,,653691.9,653691.6,651895.948,651905.1,651912.625,653697.045,,grey
Fixation,canvas.Screen,2_23_0_0,2022-07-01T11:47:57.686Z,,,1,A,1585.4719999999506,timeout,,,655267.2000000001,655265.829,653680.369,653693.1,653697.045,655282.517,,black
Stimulus,canvas.Screen,2_23_0_1,2022-07-01T11:47:57.785Z,,,1,A,99.08499999996275,timeout,,,655366.1,655364.923,655265.829,655267.5,655282.517,655381.602,,black
Reaction,canvas.Screen,2_23_0_2,2022-07-01T11:47:57.922Z,,,1,A,119.79800000006799,response,stim_detected,mousedown,655503,655501.4,655364.923,655366.3,655381.602,655531.608,,black
Trial,flow.Sequence,2_23_0,2022-07-01T11:47:57.923Z,,,1,A,1804.3549999999814,completion,,,655503.4,655501.4,653680.369,653692.9,653697.045,655531.608,,black
Frame,canvas.Frame,2_23,2022-07-01T11:47:57.923Z,,,1,A,1806.5549999999348,,,,655503.8,655503.6,653680.369,653692.1,653697.045,655531.608,,black
Fixation,canvas.Screen,2_24_0_0,2022-07-01T11:47:59.655Z,,,0,V,1718.3800000000047,timeout,,,657234.5,657233.305,655498.254,655505,655531.608,657249.988,,grey
Stimulus,canvas.Screen,2_24_0_1,2022-07-01T11:47:59.755Z,,,0,V,99.25199999997858,timeout,,,657334.2000000001,657332.565,657233.305,657234.8,657249.988,657349.24,,grey
Reaction,canvas.Screen,2_24_0_2,2022-07-01T11:47:59.906Z,,,0,V,135.1600000000326,response,stim_detected,mousedown,657485.9,657484.4,657332.565,657334.5,657349.24,657499.545,,grey
Trial,flow.Sequence,2_24_0,2022-07-01T11:47:59.907Z,,,0,V,1952.7920000000158,completion,,,657486.4,657484.4,655498.254,655504.8,655531.608,657499.545,,grey
Frame,canvas.Frame,2_24,2022-07-01T11:47:59.907Z,,,0,V,1954.8919999999925,,,,657486.7000000001,657486.5,655498.254,655504,655531.608,657499.545,,grey
Fixation,canvas.Screen,2_25_0_0,2022-07-01T11:48:01.473Z,,,0,V,1568.3709999999264,timeout,,,659052.3,659051.231,657482.868,657487.9,657499.545,659067.916,,grey
Stimulus,canvas.Screen,2_25_0_1,2022-07-01T11:48:01.573Z,,,0,V,99.40500000002794,timeout,,,659152.2000000001,659150.642,659051.231,659052.6,659067.916,659167.321,,grey
Reaction,canvas.Screen,2_25_0_2,2022-07-01T11:48:01.736Z,,,0,V,147.079000000027,response,stim_detected,mousedown,659315.8,659314.4,659150.642,659152.5,659167.321,659317.373,,grey
Trial,flow.Sequence,2_25_0,2022-07-01T11:48:01.737Z,,,0,V,1814.8549999999814,completion,,,659316.2000000001,659314.4,657482.868,657487.8,657499.545,659317.373,,grey
Frame,canvas.Frame,2_25,2022-07-01T11:48:01.737Z,,,0,V,1816.7550000000047,,,,659316.5,659316.3,657482.868,657486.9,657499.545,659317.373,,grey
Fixation,canvas.Screen,2_26_0_0,2022-07-01T11:48:03.425Z,,,0,V,1701.7899999999208,timeout,,,661004.3,661002.479,659300.696,659317.8,659317.373,661019.163,,grey
Stimulus,canvas.Screen,2_26_0_1,2022-07-01T11:48:03.524Z,,,0,V,99.07200000004377,timeout,,,661103.3,661101.561,661002.479,661004.6,661019.163,661118.235,,grey
Reaction,canvas.Screen,2_26_0_2,2022-07-01T11:48:03.688Z,,,0,V,148.06500000006054,response,stim_detected,mousedown,661267.8,661266.3,661101.561,661103.6,661118.235,661285.295,,grey
Trial,flow.Sequence,2_26_0,2022-07-01T11:48:03.689Z,,,0,V,1948.9270000000251,completion,,,661268.1,661266.3,659300.696,659317.6,659317.373,661285.295,,grey
Frame,canvas.Frame,2_26,2022-07-01T11:48:03.689Z,,,0,V,1950.9270000000251,,,,661268.5,661268.3,659300.696,659316.7000000001,659317.373,661285.295,,grey
Fixation,canvas.Screen,2_27_0_0,2022-07-01T11:48:06.044Z,,,0,V,2353.1840000000084,timeout,,,663623.3,663621.79,661268.618,661269.6,661285.295,663638.479,,grey
Stimulus,canvas.Screen,2_27_0_1,2022-07-01T11:48:06.142Z,,,0,V,98.40200000000186,timeout,,,663721.3,663720.204,663621.79,663623.5,663638.479,663736.881,,grey
Reaction,canvas.Screen,2_27_0_2,2022-07-01T11:48:06.301Z,,,0,V,142.3190000000177,response,stim_detected,mousedown,663880.7000000001,663879.2000000001,663720.204,663721.5,663736.881,663887,,grey
Trial,flow.Sequence,2_27_0,2022-07-01T11:48:06.302Z,,,0,V,2593.905000000028,completion,,,663881.2000000001,663879.2000000001,661268.618,661269.5,661285.295,663887,,grey
Frame,canvas.Frame,2_27,2022-07-01T11:48:06.302Z,,,0,V,2596.0050000000047,,,,663881.5,663881.3,661268.618,661268.7000000001,661285.295,663887,,grey
Fixation,canvas.Screen,2_28_0_0,2022-07-01T11:48:08.193Z,,,1,AV,1900.5540000000037,timeout,,,665772.4,665770.882,663870.323,663882.8,663887,665787.554,,grey
Stimulus,canvas.Screen,2_28_0_1,2022-07-01T11:48:08.294Z,,,1,AV,100.77800000004936,timeout,,,665873.4,665871.653,665770.882,665772.6,665787.554,665888.332,,grey
Reaction,canvas.Screen,2_28_0_2,2022-07-01T11:48:08.397Z,,,1,AV,86.76799999992363,response,stim_detected,mousedown,665976.6,665975.1,665871.653,665873.6,665888.332,665988.361,,grey
Trial,flow.Sequence,2_28_0,2022-07-01T11:48:08.397Z,,,1,AV,2088.0999999999767,completion,,,665976.9,665975.1,663870.323,663882.7000000001,663887,665988.361,,grey
Frame,canvas.Frame,2_28,2022-07-01T11:48:08.398Z,,,1,AV,2090,,,,665977.2000000001,665977,663870.323,663881.7000000001,663887,665988.361,,grey
Fixation,canvas.Screen,2_29_0_0,2022-07-01T11:48:10.245Z,,,0,V,1851.1520000000019,timeout,,,667824.5,667822.836,665971.684,665978.4,665988.361,667839.513,,grey
Stimulus,canvas.Screen,2_29_0_1,2022-07-01T11:48:10.345Z,,,0,V,100.07400000002235,timeout,,,667924.5,667922.91,667822.836,667824.7000000001,667839.513,667939.587,,grey
Reaction,canvas.Screen,2_29_0_2,2022-07-01T11:48:10.504Z,,,0,V,142.51299999991897,response,stim_detected,mousedown,668083.5,668082.1,667922.91,667924.6,667939.587,668106.391,,grey
Trial,flow.Sequence,2_29_0,2022-07-01T11:48:10.504Z,,,0,V,2093.738999999943,completion,,,668083.9,668082.1,665971.684,665978.3,665988.361,668106.391,,grey
Frame,canvas.Frame,2_29,2022-07-01T11:48:10.505Z,,,0,V,2095.738999999943,,,,668084.2000000001,668084.1,665971.684,665977.4,665988.361,668106.391,,grey
Fixation,canvas.Screen,2_30_0_0,2022-07-01T11:48:12.913Z,,,0,V,2401.4950000001118,timeout,,,670492.5,670491.209,668073.037,668085.3,668106.391,670507.886,,grey
Stimulus,canvas.Screen,2_30_0_1,2022-07-01T11:48:13.013Z,,,0,V,100.11399999994319,timeout,,,670592.4,670591.215,670491.209,670493.1,670507.886,670608,,grey
Reaction,canvas.Screen,2_30_0_2,2022-07-01T11:48:13.155Z,,,0,V,125,response,stim_detected,mousedown,670734.4,670733,670591.215,670592.7000000001,670608,670741.416,,grey
Trial,flow.Sequence,2_30_0,2022-07-01T11:48:13.155Z,,,0,V,2626.609000000055,completion,,,670734.8,670733,668073.037,668085.2000000001,668106.391,670741.416,,grey
Frame,canvas.Frame,2_30,2022-07-01T11:48:13.156Z,,,0,V,2628.609000000055,,,,670735.2000000001,670735,668073.037,668084.3,668106.391,670741.416,,grey
Fixation,canvas.Screen,2_31_0_0,2022-07-01T11:48:15.531Z,,,0,V,2384.362000000081,timeout,,,673110.5,673109.104,670724.739,670736.3,670741.416,673125.778,,grey
Stimulus,canvas.Screen,2_31_0_1,2022-07-01T11:48:15.632Z,,,0,V,100.625,timeout,,,673211.8,673209.725,673109.104,673110.7000000001,673125.778,673226.403,,grey
Reaction,canvas.Screen,2_31_0_2,2022-07-01T11:48:15.787Z,,,0,V,138.3969999999972,response,stim_detected,mousedown,673366.3,673364.8,673209.725,673212.2000000001,673226.403,673376.412,,grey
Trial,flow.Sequence,2_31_0,2022-07-01T11:48:15.787Z,,,0,V,2623.3840000000782,completion,,,673366.7000000001,673364.8,670724.739,670736.2000000001,670741.416,673376.412,,grey
Frame,canvas.Frame,2_31,2022-07-01T11:48:15.787Z,,,0,V,2625.2840000001015,,,,673367,673366.7000000001,670724.739,670735.3,670741.416,673376.412,,grey
Fixation,canvas.Screen,2_32_0_0,2022-07-01T11:48:17.616Z,,,1,A,1834.4839999999385,timeout,,,675195.6,675194.219,673359.735,673368.1,673376.412,675210.896,,black
Stimulus,canvas.Screen,2_32_0_1,2022-07-01T11:48:17.716Z,,,1,A,100.17399999999907,timeout,,,675295.7000000001,675294.391,675194.219,675195.9,675210.896,675311.07,,black
Reaction,canvas.Screen,2_32_0_2,2022-07-01T11:48:17.906Z,,,1,A,172.7300000000978,response,stim_detected,mousedown,675485.1,675483.8,675294.391,675295.9,675311.07,675494.462,,black
Trial,flow.Sequence,2_32_0,2022-07-01T11:48:17.906Z,,,1,A,2107.3880000000354,completion,,,675485.5,675483.8,673359.735,673368.1,673376.412,675494.462,,black
Frame,canvas.Frame,2_32,2022-07-01T11:48:17.906Z,,,1,A,2109.2880000000587,,,,675485.8,675485.7000000001,673359.735,673367.1,673376.412,675494.462,,black
Fixation,canvas.Screen,2_33_0_0,2022-07-01T11:48:20.352Z,,,1,A,2452.5719999999274,timeout,,,677931.7000000001,677930.35,675477.785,675487.1,675494.462,677947.034,,black
Stimulus,canvas.Screen,2_33_0_1,2022-07-01T11:48:20.450Z,,,1,A,98.23499999998603,timeout,,,678029.8,678028.597,677930.35,677932,677947.034,678045.269,,black
Reaction,canvas.Screen,2_33_0_2,2022-07-01T11:48:20.599Z,,,1,A,131.3310000000056,response,stim_detected,mousedown,678178.2000000001,678176.6,678028.597,678030.1,678045.269,678196.168,,black
Trial,flow.Sequence,2_33_0,2022-07-01T11:48:20.599Z,,,1,A,2682.137999999919,completion,,,678178.6,678176.6,675477.785,675487,675494.462,678196.168,,black
Frame,canvas.Frame,2_33,2022-07-01T11:48:20.599Z,,,1,A,2684.238000000012,,,,678179,678178.7000000001,675477.785,675486,675494.462,678196.168,,black
Fixation,canvas.Screen,2_34_0_0,2022-07-01T11:48:22.571Z,,,1,A,1969.8910000000615,timeout,,,680150.8,680149.365,678179.491,678180.7000000001,678196.168,680166.059,,black
Stimulus,canvas.Screen,2_34_0_1,2022-07-01T11:48:22.669Z,,,1,A,97.74300000001676,timeout,,,680248.3,680247.128,680149.365,680151,680166.059,680263.802,,black
Reaction,canvas.Screen,2_34_0_2,2022-07-01T11:48:22.864Z,,,1,A,177.79799999995157,response,stim_detected,mousedown,680443.1,680441.6,680247.128,680248.4,680263.802,680447.657,,black
Trial,flow.Sequence,2_34_0,2022-07-01T11:48:22.864Z,,,1,A,2245.43200000003,completion,,,680443.3,680441.6,678179.491,678180.5,678196.168,680447.657,,black
Frame,canvas.Frame,2_34,2022-07-01T11:48:22.864Z,,,1,A,2247.332000000053,,,,680443.6,680443.5,678179.491,678179.2000000001,678196.168,680447.657,,black
Fixation,canvas.Screen,2_35_0_0,2022-07-01T11:48:24.920Z,,,1,A,2067.814000000013,timeout,,,682499.7000000001,682498.795,680430.98,680444.4,680447.657,682515.471,,black
Stimulus,canvas.Screen,2_35_0_1,2022-07-01T11:48:25.020Z,,,1,A,100.26699999999255,timeout,,,682599.7000000001,682598.588,682498.795,682500,682515.471,682615.738,,black
Reaction,canvas.Screen,2_35_0_2,2022-07-01T11:48:25.167Z,,,1,A,129.7619999999879,response,stim_detected,mousedown,682747,682745.5,682598.588,682600,682615.738,682749.154,,black
Trial,flow.Sequence,2_35_0,2022-07-01T11:48:25.168Z,,,1,A,2297.8429999999935,completion,,,682747.4,682745.5,680430.98,680444.2000000001,680447.657,682749.154,,black
Frame,canvas.Frame,2_35,2022-07-01T11:48:25.168Z,,,1,A,2299.8429999999935,,,,682747.7000000001,682747.5,680430.98,680443.7000000001,680447.657,682749.154,,black
Fixation,canvas.Screen,2_36_0_0,2022-07-01T11:48:27.106Z,,,1,AV,1951.5659999999916,timeout,,,684685.8,684684.04,682732.477,682749.3,682749.154,684700.72,,grey
Stimulus,canvas.Screen,2_36_0_1,2022-07-01T11:48:27.205Z,,,1,AV,99.67500000004657,timeout,,,684784.6,684783.719,684684.04,684686.1,684700.72,684800.395,,grey
Reaction,canvas.Screen,2_36_0_2,2022-07-01T11:48:27.339Z,,,1,AV,117.00500000000466,response,stim_detected,mousedown,684919,684917.4,684783.719,684784.7000000001,684800.395,684933.878,,grey
Trial,flow.Sequence,2_36_0,2022-07-01T11:48:27.340Z,,,1,AV,2168.246000000043,completion,,,684919.4,684917.4,682732.477,682749.2000000001,682749.154,684933.878,,grey
Frame,canvas.Frame,2_36,2022-07-01T11:48:27.340Z,,,1,AV,2170.3460000000196,,,,684919.7000000001,684919.5,682732.477,682748,682749.154,684933.878,,grey
Fixation,canvas.Screen,2_37_0_0,2022-07-01T11:48:29.006Z,,,1,AV,1666.9259999999776,timeout,,,686585.7000000001,686584.134,684917.201,684921,684933.878,686600.804,,grey
Stimulus,canvas.Screen,2_37_0_1,2022-07-01T11:48:29.106Z,,,1,AV,100.90300000004936,timeout,,,686685.8,686684.898,686584.134,686585.9,686600.804,686701.707,,grey
Reaction,canvas.Screen,2_37_0_2,2022-07-01T11:48:29.233Z,,,1,AV,109.6929999999702,response,stim_detected,mousedown,686812.9,686811.4,686684.898,686686.1,686701.707,686818.446,,grey
Trial,flow.Sequence,2_37_0,2022-07-01T11:48:29.234Z,,,1,AV,1877.5219999999972,completion,,,686813.4,686811.4,684917.201,684920.8,684933.878,686818.446,,grey
Frame,canvas.Frame,2_37,2022-07-01T11:48:29.234Z,,,1,AV,1879.7219999999506,,,,686813.8,686813.6,684917.201,684919.9,684933.878,686818.446,,grey
Fixation,canvas.Screen,2_38_0_0,2022-07-01T11:48:30.840Z,,,0,V,1617.0219999999972,timeout,,,688419.8,688418.797,686801.769,686815,686818.446,688435.468,,grey
Stimulus,canvas.Screen,2_38_0_1,2022-07-01T11:48:30.941Z,,,0,V,100.69200000003912,timeout,,,688521,688519.483,688418.797,688420.1,688435.468,688536.16,,grey
Reaction,canvas.Screen,2_38_0_2,2022-07-01T11:48:31.115Z,,,0,V,157.3399999999674,response,stim_detected,mousedown,688694.8,688693.5,688519.483,688521.3,688536.16,688702.942,,grey
Trial,flow.Sequence,2_38_0,2022-07-01T11:48:31.116Z,,,0,V,1875.0540000000037,completion,,,688695.3,688693.5,686801.769,686814.9,686818.446,688702.942,,grey
Frame,canvas.Frame,2_38,2022-07-01T11:48:31.116Z,,,0,V,1877.0540000000037,,,,688695.7000000001,688695.5,686801.769,686813.9,686818.446,688702.942,,grey
Fixation,canvas.Screen,2_39_0_0,2022-07-01T11:48:33.561Z,,,1,A,2453.1879999999655,timeout,,,691140.9,691139.442,688686.265,688696.7000000001,688702.942,691156.13,,black
Stimulus,canvas.Screen,2_39_0_1,2022-07-01T11:48:33.659Z,,,1,A,98.45700000005309,timeout,,,691238.6,691237.91,691139.442,691141.2000000001,691156.13,691254.587,,black
Reaction,canvas.Screen,2_39_0_2,2022-07-01T11:48:33.849Z,,,1,A,172.6130000000121,response,stim_detected,mousedown,691429,691427.2000000001,691237.91,691238.7000000001,691254.587,691454.747,,black
Trial,flow.Sequence,2_39_0,2022-07-01T11:48:33.850Z,,,1,A,2724.2580000000307,completion,,,691429.4,691427.2000000001,688686.265,688696.6,688702.942,691454.747,,black
Frame,canvas.Frame,2_39,2022-07-01T11:48:33.850Z,,,1,A,2726.7580000000307,,,,691429.9,691429.7000000001,688686.265,688695.8,688702.942,691454.747,,black
Fixation,canvas.Screen,2_40_0_0,2022-07-01T11:48:35.727Z,,,0,V,1867.3209999999963,timeout,,,693307.1,693305.395,691421.393,691430.9,691454.747,693322.068,,grey
Stimulus,canvas.Screen,2_40_0_1,2022-07-01T11:48:35.827Z,,,0,V,100.60800000000745,timeout,,,693406.9,693405.998,693305.395,693307.4,693322.068,693422.676,,grey
Reaction,canvas.Screen,2_40_0_2,2022-07-01T11:48:36.054Z,,,0,V,209.42399999999907,response,stim_detected,mousedown,693633.6,693632.1,693405.998,693407.3,693422.676,693639.465,,grey
Trial,flow.Sequence,2_40_0,2022-07-01T11:48:36.054Z,,,0,V,2177.353000000003,completion,,,693634,693632.1,691421.393,691430.8,691454.747,693639.465,,grey
Frame,canvas.Frame,2_40,2022-07-01T11:48:36.055Z,,,0,V,2179.453000000096,,,,693634.4,693634.2000000001,691421.393,691430,691454.747,693639.465,,grey
Fixation,canvas.Screen,2_41_0_0,2022-07-01T11:48:38.079Z,,,0,V,2035.1269999999786,timeout,,,695659,695657.911,693622.788,693635.7000000001,693639.465,695674.592,,grey
Stimulus,canvas.Screen,2_41_0_1,2022-07-01T11:48:38.180Z,,,0,V,99.44599999999627,timeout,,,695759.3,695757.362,695657.911,695659.3,695674.592,695774.038,,grey
Reaction,canvas.Screen,2_41_0_2,2022-07-01T11:48:38.367Z,,,0,V,171.06200000003446,response,stim_detected,mousedown,695946.5,695945.1,695757.362,695759.5,695774.038,695957.657,,grey
Trial,flow.Sequence,2_41_0,2022-07-01T11:48:38.367Z,,,0,V,2305.6350000000093,completion,,,695946.9,695945.1,693622.788,693635.5,693639.465,695957.657,,grey
Frame,canvas.Frame,2_41,2022-07-01T11:48:38.368Z,,,0,V,2307.6350000000093,,,,695947.2000000001,695947.1,693622.788,693634.6,693639.465,695957.657,,grey
Fixation,canvas.Screen,2_42_0_0,2022-07-01T11:48:40.865Z,,,1,AV,2501.5500000000466,timeout,,,698444.2000000001,698442.53,695940.98,695948.9,695957.657,698459.207,,grey
Stimulus,canvas.Screen,2_42_0_1,2022-07-01T11:48:40.964Z,,,1,AV,99.5679999999702,timeout,,,698543.2000000001,698542.101,698442.53,698444.4,698459.207,698558.775,,grey
Reaction,canvas.Screen,2_42_0_2,2022-07-01T11:48:41.120Z,,,1,AV,139.22499999997672,response,stim_detected,mousedown,698699.6,698698,698542.101,698543.4,698558.775,698709.422,,grey
Trial,flow.Sequence,2_42_0,2022-07-01T11:48:41.120Z,,,1,AV,2740.3429999999935,completion,,,698699.9,698698,695940.98,695948.7000000001,695957.657,698709.422,,grey
Frame,canvas.Frame,2_42,2022-07-01T11:48:41.121Z,,,1,AV,2742.44299999997,,,,698700.3,698700.1,695940.98,695947.6,695957.657,698709.422,,grey
Fixation,canvas.Screen,2_43_0_0,2022-07-01T11:48:42.666Z,,,1,AV,1551.2759999999544,timeout,,,700245.2000000001,700244.018,698692.745,698701.7000000001,698709.422,700260.698,,grey
Stimulus,canvas.Screen,2_43_0_1,2022-07-01T11:48:42.766Z,,,1,AV,99.77000000001863,timeout,,,700345.2000000001,700343.791,700244.018,700245.5,700260.698,700360.468,,grey
Reaction,canvas.Screen,2_43_0_2,2022-07-01T11:48:42.937Z,,,1,AV,154.53200000000652,response,stim_detected,mousedown,700516.4,700515,700343.791,700345.4,700360.468,700527.24,,grey
Trial,flow.Sequence,2_43_0,2022-07-01T11:48:42.937Z,,,1,AV,1805.5779999999795,completion,,,700516.8,700515,698692.745,698701.5,698709.422,700527.24,,grey
Frame,canvas.Frame,2_43,2022-07-01T11:48:42.938Z,,,1,AV,1807.4780000000028,,,,700517.1,700516.9,698692.745,698700.4,698709.422,700527.24,,grey
Fixation,canvas.Screen,2_44_0_0,2022-07-01T11:48:44.566Z,,,0,V,1634.359999999986,timeout,,,702145.9,702144.923,700510.563,700518.4,700527.24,702161.6,,grey
Stimulus,canvas.Screen,2_44_0_1,2022-07-01T11:48:44.667Z,,,0,V,100.11900000006426,timeout,,,702246.2000000001,702245.04,702144.923,702146.1,702161.6,702261.719,,grey
Reaction,canvas.Screen,2_44_0_2,2022-07-01T11:48:44.836Z,,,0,V,152.1809999999823,response,stim_detected,mousedown,702415.4,702413.9,702245.04,702246.4,702261.719,702428.476,,grey
Trial,flow.Sequence,2_44_0,2022-07-01T11:48:44.836Z,,,0,V,1886.6600000000326,completion,,,702415.7000000001,702413.9,700510.563,700518.4,700527.24,702428.476,,grey
Frame,canvas.Frame,2_44,2022-07-01T11:48:44.837Z,,,0,V,1888.6600000000326,,,,702416.1,702415.9,700510.563,700517.3,700527.24,702428.476,,grey
Fixation,canvas.Screen,2_45_0_0,2022-07-01T11:48:46.968Z,,,1,A,2134.515999999945,timeout,,,704547.3,704546.316,702411.799,702417.3,702428.476,704562.992,,black
Stimulus,canvas.Screen,2_45_0_1,2022-07-01T11:48:47.068Z,,,1,A,100.26400000008289,timeout,,,704647.3,704646.383,704546.316,704547.5,704562.992,704663.256,,black
Reaction,canvas.Screen,2_45_0_2,2022-07-01T11:48:47.243Z,,,1,A,157.74399999994785,response,stim_detected,mousedown,704822.6,704821,704646.383,704647.6,704663.256,704830.026,,black
Trial,flow.Sequence,2_45_0,2022-07-01T11:48:47.243Z,,,1,A,2392.523999999976,completion,,,704822.9,704821,702411.799,702417.2000000001,702428.476,704830.026,,black
Frame,canvas.Frame,2_45,2022-07-01T11:48:47.244Z,,,1,A,2394.523999999976,,,,704823.2000000001,704823,702411.799,702416.3,702428.476,704830.026,,black
Fixation,canvas.Screen,2_46_0_0,2022-07-01T11:48:49.320Z,,,1,A,2084.627000000095,timeout,,,706899.5,706897.976,704813.349,704824.4,704830.026,706914.653,,black
Stimulus,canvas.Screen,2_46_0_1,2022-07-01T11:48:49.419Z,,,1,A,99.6009999999078,timeout,,,706998.9,706997.581,706897.976,706899.8,706914.653,707014.254,,black
Reaction,canvas.Screen,2_46_0_2,2022-07-01T11:48:49.588Z,,,1,A,152.34600000001956,response,stim_detected,mousedown,707168,707166.6,706997.581,706999,707014.254,707181.498,,black
Trial,flow.Sequence,2_46_0,2022-07-01T11:48:49.589Z,,,1,A,2336.5740000000224,completion,,,707168.4,707166.6,704813.349,704824.3,704830.026,707181.498,,black
Frame,canvas.Frame,2_46,2022-07-01T11:48:49.589Z,,,1,A,2338.5740000000224,,,,707168.7000000001,707168.6,704813.349,704823.4,704830.026,707181.498,,black
Fixation,canvas.Screen,2_47_0_0,2022-07-01T11:48:51.189Z,,,1,A,1602.201999999932,timeout,,,708768.6,708767.011,707164.821,707169.9,707181.498,708783.7,,black
Stimulus,canvas.Screen,2_47_0_1,2022-07-01T11:48:51.288Z,,,1,A,98.72500000009313,timeout,,,708867.3,708865.75,708767.011,708768.9,708783.7,708882.425,,black
Reaction,canvas.Screen,2_47_0_2,2022-07-01T11:48:51.432Z,,,1,A,127.27500000002328,response,stim_detected,mousedown,709011.2000000001,709009.7000000001,708865.75,708867.6,708882.425,709016.024,,black
Trial,flow.Sequence,2_47_0,2022-07-01T11:48:51.432Z,,,1,A,1828.2020000000484,completion,,,709011.5,709009.7000000001,707164.821,707169.8,707181.498,709016.024,,black
Frame,canvas.Frame,2_47,2022-07-01T11:48:51.432Z,,,1,A,1830.1019999999553,,,,709011.9,709011.6,707164.821,707168.9,707181.498,709016.024,,black
Fixation,canvas.Screen,2_48_0_0,2022-07-01T11:48:53.524Z,,,1,A,2102.335000000079,timeout,,,711103.5,711101.674,708999.347,709012.9,709016.024,711118.359,,black
Stimulus,canvas.Screen,2_48_0_1,2022-07-01T11:48:53.622Z,,,1,A,99.12099999992643,timeout,,,711201.4,711200.064,711101.674,711103.8,711118.359,711217.48,,black
Reaction,canvas.Screen,2_48_0_2,2022-07-01T11:48:53.761Z,,,1,A,121.11999999999534,response,stim_detected,mousedown,711340.1,711338.6,711200.064,711201.8,711217.48,711350.896,,black
Trial,flow.Sequence,2_48_0,2022-07-01T11:48:53.761Z,,,1,A,2322.576000000001,completion,,,711340.6,711338.6,708999.347,709012.9,709016.024,711350.896,,black
Frame,canvas.Frame,2_48,2022-07-01T11:48:53.761Z,,,1,A,2324.676000000094,,,,711340.9,711340.7000000001,708999.347,709012,709016.024,711350.896,,black
Fixation,canvas.Screen,2_49_0_0,2022-07-01T11:48:55.574Z,,,1,A,1818.1500000000233,timeout,,,713153.4,713152.366,711334.219,711342.1,711350.896,713169.046,,black
Stimulus,canvas.Screen,2_49_0_1,2022-07-01T11:48:55.674Z,,,1,A,99.51899999997113,timeout,,,713253.4,713251.89,713152.366,713153.6,713169.046,713268.565,,black
Reaction,canvas.Screen,2_49_0_2,2022-07-01T11:48:55.816Z,,,1,A,125.93500000005588,response,stim_detected,mousedown,713395.9,713394.5,713251.89,713253.6,713268.565,713402.163,,black
Trial,flow.Sequence,2_49_0,2022-07-01T11:48:55.817Z,,,1,A,2043.6040000000503,completion,,,713396.3,713394.5,711334.219,711342,711350.896,713402.163,,black
Frame,canvas.Frame,2_49,2022-07-01T11:48:55.817Z,,,1,A,2045.5040000000736,,,,713396.6,713396.4,711334.219,711341.1,711350.896,713402.163,,black
Fixation,canvas.Screen,2_50_0_0,2022-07-01T11:48:57.509Z,,,1,AV,1701.9760000000242,timeout,,,715088.6,715087.454,713385.487,713397.7000000001,713402.163,715104.139,,grey
Stimulus,canvas.Screen,2_50_0_1,2022-07-01T11:48:57.609Z,,,1,AV,99.28000000002794,timeout,,,715188.6,715186.741,715087.454,715088.9,715104.139,715203.419,,grey
Reaction,canvas.Screen,2_50_0_2,2022-07-01T11:48:57.724Z,,,1,AV,99.08100000000559,response,stim_detected,mousedown,715303.9,715302.5,715186.741,715188.9,715203.419,715320.128,,grey
Trial,flow.Sequence,2_50_0,2022-07-01T11:48:57.725Z,,,1,AV,1900.3370000000577,completion,,,715304.3,715302.5,713385.487,713397.7000000001,713402.163,715320.128,,grey
Frame,canvas.Frame,2_50,2022-07-01T11:48:57.725Z,,,1,AV,1902.237000000081,,,,715304.6,715304.4,713385.487,713396.8,713402.163,715320.128,,grey
Fixation,canvas.Screen,2_51_0_0,2022-07-01T11:48:59.276Z,,,1,A,1550.7639999999665,timeout,,,716855.5,716854.217,715303.451,715305.8,715320.128,716870.892,,black
Stimulus,canvas.Screen,2_51_0_1,2022-07-01T11:48:59.376Z,,,1,A,100.17399999999907,timeout,,,716955.5,716954.39,716854.217,716855.7000000001,716870.892,716971.066,,black
Reaction,canvas.Screen,2_51_0_2,2022-07-01T11:48:59.503Z,,,1,A,107.33400000003166,response,stim_detected,mousedown,717079.8,717078.4,716954.39,716955.8,716971.066,717087.916,,black
Trial,flow.Sequence,2_51_0,2022-07-01T11:48:59.503Z,,,1,A,1758.2719999999972,completion,,,717080.1,717078.4,715303.451,715305.6,715320.128,717087.916,,black
Frame,canvas.Frame,2_51,2022-07-01T11:48:59.504Z,,,1,A,1760.1720000000205,,,,717080.5,717080.3,715303.451,715304.8,715320.128,717087.916,,black
Fixation,canvas.Screen,2_52_0_0,2022-07-01T11:49:01.329Z,,,1,AV,1834.2410000000382,timeout,,,718906.1,718905.482,717071.239,717081.7000000001,717087.916,718922.157,,grey
Stimulus,canvas.Screen,2_52_0_1,2022-07-01T11:49:01.431Z,,,1,AV,100.32299999997485,timeout,,,719007.6,719005.803,718905.482,718906.3,718922.157,719022.48,,grey
Reaction,canvas.Screen,2_52_0_2,2022-07-01T11:49:01.553Z,,,1,AV,105.82000000006519,response,stim_detected,mousedown,719129.8,719128.3,719005.803,719007.8,719022.48,719139.192,,grey
Trial,flow.Sequence,2_52_0,2022-07-01T11:49:01.554Z,,,1,AV,2040.3840000000782,completion,,,719130.3,719128.3,717071.239,717081.6,717087.916,719139.192,,grey
Frame,canvas.Frame,2_52,2022-07-01T11:49:01.554Z,,,1,AV,2042.3840000000782,,,,719130.6,719130.3,717071.239,717080.7000000001,717087.916,719139.192,,grey
Fixation,canvas.Screen,2_53_0_0,2022-07-01T11:49:03.600Z,,,0,V,2052.4070000000065,timeout,,,721176.6,721174.913,719122.516,719132.1,719139.192,721191.599,,grey
Stimulus,canvas.Screen,2_53_0_1,2022-07-01T11:49:03.698Z,,,0,V,98.8519999999553,timeout,,,721274.6,721273.775,721174.913,721176.9,721191.599,721290.451,,grey
Reaction,canvas.Screen,2_53_0_2,2022-07-01T11:49:03.971Z,,,0,V,255.74900000006892,response,stim_detected,mousedown,721547.7000000001,721546.2000000001,721273.775,721274.9,721290.451,721557.459,,grey
Trial,flow.Sequence,2_53_0,2022-07-01T11:49:03.971Z,,,0,V,2407.0080000000307,completion,,,721548.1,721546.2000000001,719122.516,719131.9,719139.192,721557.459,,grey
Frame,canvas.Frame,2_53,2022-07-01T11:49:03.972Z,,,0,V,2409.1080000000075,,,,721548.4,721548.3,719122.516,719130.8,719139.192,721557.459,,grey
Fixation,canvas.Screen,2_54_0_0,2022-07-01T11:49:06.083Z,,,1,A,2117.1239999999525,timeout,,,723659.6,723657.912,721540.782,721549.6,721557.459,723674.583,,black
Stimulus,canvas.Screen,2_54_0_1,2022-07-01T11:49:06.184Z,,,1,A,101.02100000006612,timeout,,,723760.7000000001,723758.927,723657.912,723659.9,723674.583,723775.604,,black
Reaction,canvas.Screen,2_54_0_2,2022-07-01T11:49:06.338Z,,,1,A,137.49599999992643,response,stim_detected,mousedown,723914.5,723913.1,723758.927,723761,723775.604,723925.651,,black
Trial,flow.Sequence,2_54_0,2022-07-01T11:49:06.338Z,,,1,A,2355.640999999945,completion,,,723915,723913.1,721540.782,721549.5,721557.459,723925.651,,black
Frame,canvas.Frame,2_54,2022-07-01T11:49:06.339Z,,,1,A,2357.640999999945,,,,723915.2000000001,723915.1,721540.782,721548.6,721557.459,723925.651,,black
Fixation,canvas.Screen,2_55_0_0,2022-07-01T11:49:08.469Z,,,1,A,2135.0650000000605,timeout,,,726045.7000000001,726044.036,723908.974,723916.4,723925.651,726060.716,,black
Stimulus,canvas.Screen,2_55_0_1,2022-07-01T11:49:08.568Z,,,1,A,99.62100000004284,timeout,,,726144.7000000001,726143.661,726044.036,726046,726060.716,726160.337,,black
Reaction,canvas.Screen,2_55_0_2,2022-07-01T11:49:08.727Z,,,1,A,141.76299999991897,response,stim_detected,mousedown,726303.7000000001,726302.1,726143.661,726144.9,726160.337,726310.522,,black
Trial,flow.Sequence,2_55_0,2022-07-01T11:49:08.727Z,,,1,A,2376.4490000000224,completion,,,726304.2000000001,726302.1,723908.974,723916.4,723925.651,726310.522,,black
Frame,canvas.Frame,2_55,2022-07-01T11:49:08.728Z,,,1,A,2378.649000000092,,,,726304.5,726304.3,723908.974,723915.5,723925.651,726310.522,,black
Fixation,canvas.Screen,2_56_0_0,2022-07-01T11:49:10.786Z,,,0,V,2067.146999999997,timeout,,,728362.2000000001,728360.998,726293.845,726305.6,726310.522,728377.669,,grey
Stimulus,canvas.Screen,2_56_0_1,2022-07-01T11:49:10.886Z,,,0,V,100.57499999995343,timeout,,,728462.8,728461.569,728360.998,728362.5,728377.669,728478.244,,grey
Reaction,canvas.Screen,2_56_0_2,2022-07-01T11:49:12.387Z,,,0,V,1501.2290000000503,timeout,,,729963.8,729962.796,728461.569,728463,728478.244,729979.473,,grey
Trial,flow.Sequence,2_56_0,2022-07-01T11:49:12.388Z,,,0,V,3652.273999999976,completion,,,729964.2000000001,729962.796,726293.845,726305.5,726310.522,729979.473,,grey
Frame,canvas.Frame,2_56,2022-07-01T11:49:12.388Z,,,0,V,3653.7780000000494,,,,729964.5,729964.3,726293.845,726304.7000000001,726310.522,729996.15,,grey
Fixation,canvas.Screen,2_57_0_0,2022-07-01T11:49:14.172Z,,,0,V,1767.701000000001,timeout,,,731748.9,731747.175,729979.473,729965.5,729996.15,731763.851,,grey
Stimulus,canvas.Screen,2_57_0_1,2022-07-01T11:49:14.270Z,,,0,V,98.07600000000093,timeout,,,731846.9,731845.269,731747.175,731749.1,731763.851,731861.927,,grey
Reaction,canvas.Screen,2_57_0_2,2022-07-01T11:49:14.491Z,,,0,V,203.97299999999814,response,stim_detected,mousedown,732067.4,732065.9,731845.269,731847.4,731861.927,732080.872,,grey
Trial,flow.Sequence,2_57_0,2022-07-01T11:49:14.491Z,,,0,V,2069.75,completion,,,732067.9,732065.9,729979.473,729965.4,729996.15,732080.872,,grey
Frame,canvas.Frame,2_57,2022-07-01T11:49:14.492Z,,,0,V,2071.8499999999767,,,,732068.2000000001,732068,729979.473,729964.6,729996.15,732080.872,,grey
Fixation,canvas.Screen,2_58_0_0,2022-07-01T11:49:16.642Z,,,1,A,2152.533000000054,timeout,,,734218.2000000001,734216.719,732064.195,732069.5,732080.872,734233.405,,black
Stimulus,canvas.Screen,2_58_0_1,2022-07-01T11:49:16.740Z,,,1,A,98.79099999996834,timeout,,,734316.9,734315.52,734216.719,734218.4,734233.405,734332.196,,black
Reaction,canvas.Screen,2_58_0_2,2022-07-01T11:49:16.908Z,,,1,A,151.50400000007357,response,stim_detected,mousedown,734485.1,734483.7000000001,734315.52,734317.2000000001,734332.196,734499.117,,black
Trial,flow.Sequence,2_58_0,2022-07-01T11:49:16.909Z,,,1,A,2402.828000000096,completion,,,734485.6,734483.7000000001,732064.195,732069.3,732080.872,734499.117,,black
Frame,canvas.Frame,2_58,2022-07-01T11:49:16.909Z,,,1,A,2404.828000000096,,,,734486,734485.7000000001,732064.195,732068.4,732080.872,734499.117,,black
Fixation,canvas.Screen,2_59_0_0,2022-07-01T11:49:19.210Z,,,1,AV,2302.734000000055,timeout,,,736786.8,736785.165,734482.44,734486.9,734499.117,736801.851,,grey
Stimulus,canvas.Screen,2_59_0_1,2022-07-01T11:49:19.307Z,,,1,AV,97.8859999999404,timeout,,,736884.2000000001,736883.066,736785.165,736786.9,736801.851,736899.737,,grey
Reaction,canvas.Screen,2_59_0_2,2022-07-01T11:49:19.516Z,,,1,AV,191.96300000010524,response,stim_detected,mousedown,737092.9,737091.7000000001,736883.066,736884.4,736899.737,737100.756,,grey
Trial,flow.Sequence,2_59_0,2022-07-01T11:49:19.517Z,,,1,AV,2592.5830000001006,completion,,,737093.2000000001,737091.7000000001,734482.44,734486.8,734499.117,737100.756,,grey
Frame,canvas.Frame,2_59,2022-07-01T11:49:19.517Z,,,1,AV,2594.1830000000773,,,,737093.4,737093.3,734482.44,734486.1,734499.117,737100.756,,grey
Fixation,canvas.Screen,2_60_0_0,2022-07-01T11:49:21.895Z,,,1,AV,2385.284999999916,timeout,,,739471.2000000001,739469.361,737084.079,737094.4,737100.756,739486.041,,grey
Stimulus,canvas.Screen,2_60_0_1,2022-07-01T11:49:21.993Z,,,1,AV,99.75199999997858,timeout,,,739570.1,739569.115,739469.361,739471.5,739486.041,739585.793,,grey
Reaction,canvas.Screen,2_60_0_2,2022-07-01T11:49:22.163Z,,,1,AV,150.70700000005309,response,stim_detected,mousedown,739739.7000000001,739736.5,739569.115,739570.4,739585.793,739752.503,,grey
Trial,flow.Sequence,2_60_0,2022-07-01T11:49:22.163Z,,,1,AV,2635.743999999948,completion,,,739740.1,739736.5,737084.079,737094.4,737100.756,739752.503,,grey
Frame,canvas.Frame,2_60,2022-07-01T11:49:22.164Z,,,1,AV,2639.4440000000177,,,,739740.4,739740.2000000001,737084.079,737093.6,737100.756,739752.503,,grey
Fixation,canvas.Screen,2_61_0_0,2022-07-01T11:49:24.613Z,,,1,AV,2451.655000000028,timeout,,,742189.4,742187.48,739735.826,739741.6,739752.503,742204.158,,grey
Stimulus,canvas.Screen,2_61_0_1,2022-07-01T11:49:24.713Z,,,1,AV,100.00499999988824,timeout,,,742289.3,742287.291,742187.48,742189.6,742204.158,742304.163,,grey
Reaction,canvas.Screen,2_61_0_2,2022-07-01T11:49:24.874Z,,,1,AV,145.33700000005774,response,stim_detected,mousedown,742450.7000000001,742449.5,742287.291,742289.6,742304.163,742470.933,,grey
Trial,flow.Sequence,2_61_0,2022-07-01T11:49:24.874Z,,,1,AV,2696.996999999974,completion,,,742451.1,742449.5,739735.826,739741.5,739752.503,742470.933,,grey
Frame,canvas.Frame,2_61,2022-07-01T11:49:24.875Z,,,1,AV,2698.6970000000438,,,,742451.4,742451.2000000001,739735.826,739740.6,739752.503,742470.933,,grey
Fixation,canvas.Screen,2_62_0_0,2022-07-01T11:49:26.681Z,,,0,V,1801.2280000000028,timeout,,,744257.4,744255.483,742437.579,742452.4,742470.933,744272.161,,grey
Stimulus,canvas.Screen,2_62_0_1,2022-07-01T11:49:26.779Z,,,0,V,99.97500000009313,timeout,,,744355.8,744355.205,744255.483,744257.7000000001,744272.161,744372.136,,grey
Reaction,canvas.Screen,2_62_0_2,2022-07-01T11:49:26.998Z,,,0,V,201.3639999999432,response,stim_detected,mousedown,744575,744573.5,744355.205,744356,744372.136,744588.937,,grey
Trial,flow.Sequence,2_62_0,2022-07-01T11:49:26.999Z,,,0,V,2102.567000000039,completion,,,744575.4,744573.5,742437.579,742452.3,742470.933,744588.937,,grey
Frame,canvas.Frame,2_62,2022-07-01T11:49:26.999Z,,,0,V,2104.667000000016,,,,744575.7000000001,744575.6,742437.579,742451.5,742470.933,744588.937,,grey
Fixation,canvas.Screen,2_63_0_0,2022-07-01T11:49:28.766Z,,,1,A,1768.4440000000177,timeout,,,746342.2000000001,746340.698,744572.26,744577.1,744588.937,746357.381,,black
Stimulus,canvas.Screen,2_63_0_1,2022-07-01T11:49:28.865Z,,,1,A,99.25899999996182,timeout,,,746441.3,746439.965,746340.698,746342.4,746357.381,746456.64,,black
Reaction,canvas.Screen,2_63_0_2,2022-07-01T11:49:29.018Z,,,1,A,136.7600000000093,response,stim_detected,mousedown,746595,746593.4,746439.965,746441.5,746456.64,746606.883,,black
Trial,flow.Sequence,2_63_0,2022-07-01T11:49:29.019Z,,,1,A,2004.4629999999888,completion,,,746595.5,746593.4,744572.26,744577.1,744588.937,746606.883,,black
Frame,canvas.Frame,2_63,2022-07-01T11:49:29.019Z,,,1,A,2006.5629999999655,,,,746595.8,746595.5,744572.26,744575.9,744588.937,746606.883,,black
Fixation,canvas.Screen,2_64_0_0,2022-07-01T11:49:31.401Z,,,1,AV,2385.277000000002,timeout,,,748977.6,748975.48,746590.206,746596.9,746606.883,748992.16,,grey
Stimulus,canvas.Screen,2_64_0_1,2022-07-01T11:49:31.501Z,,,1,AV,99.93199999991339,timeout,,,749077.6,749075.413,748975.48,748977.8,748992.16,749092.092,,grey
Reaction,canvas.Screen,2_64_0_2,2022-07-01T11:49:31.634Z,,,1,AV,117.10800000012387,response,stim_detected,mousedown,749210.8,749209.2000000001,749075.413,749077.8,749092.092,749225.265,,grey
Trial,flow.Sequence,2_64_0,2022-07-01T11:49:31.635Z,,,1,AV,2602.317000000039,completion,,,749211.2000000001,749209.2000000001,746590.206,746596.8,746606.883,749225.265,,grey
Frame,canvas.Frame,2_64,2022-07-01T11:49:31.635Z,,,1,AV,2604.417000000016,,,,749211.5,749211.3,746590.206,746595.9,746606.883,749225.265,,grey
Fixation,canvas.Screen,2_65_0_0,2022-07-01T11:49:33.668Z,,,0,V,2034.3340000000317,timeout,,,751244.3,751242.924,749208.588,749212.9,749225.265,751259.599,,grey
Stimulus,canvas.Screen,2_65_0_1,2022-07-01T11:49:33.768Z,,,0,V,100.45499999995809,timeout,,,751344.3,751343.376,751242.924,751244.5,751259.599,751360.054,,grey
Reaction,canvas.Screen,2_65_0_2,2022-07-01T11:49:34.118Z,,,0,V,334.045999999973,response,stim_detected,mousedown,751695.1,751694.1,751343.376,751344.5,751360.054,751710.196,,grey
Trial,flow.Sequence,2_65_0,2022-07-01T11:49:34.119Z,,,0,V,2468.8349999999627,completion,,,751695.3,751694.1,749208.588,749212.8,749225.265,751710.196,,grey
Frame,canvas.Frame,2_65,2022-07-01T11:49:34.119Z,,,0,V,2470.1350000000093,,,,751695.6,751695.4,749208.588,749211.7000000001,749225.265,751710.196,,grey
Fixation,canvas.Screen,2_66_0_0,2022-07-01T11:49:35.952Z,,,1,AV,1833.408999999985,timeout,,,753528.4,753526.936,751693.519,751696.2000000001,751710.196,753543.605,,grey
Stimulus,canvas.Screen,2_66_0_1,2022-07-01T11:49:36.053Z,,,1,AV,100.99600000004284,timeout,,,753629.3,753627.925,753526.936,753528.9,753543.605,753644.601,,grey
Reaction,canvas.Screen,2_66_0_2,2022-07-01T11:49:36.208Z,,,1,AV,138.4989999999525,response,stim_detected,mousedown,753784.5,753783.1,753627.925,753629.5,753644.601,753794.858,,grey
Trial,flow.Sequence,2_66_0,2022-07-01T11:49:36.208Z,,,1,AV,2072.9039999999804,completion,,,753784.9,753783.1,751693.519,751696.1,751710.196,753794.858,,grey
Frame,canvas.Frame,2_66,2022-07-01T11:49:36.209Z,,,1,AV,2074.9039999999804,,,,753785.3,753785.1,751693.519,751695.6,751710.196,753794.858,,grey
Fixation,canvas.Screen,2_67_0_0,2022-07-01T11:49:38.055Z,,,1,A,1852.2780000000494,timeout,,,755631.4,755630.449,753778.181,753786.7000000001,753794.858,755647.136,,black
Stimulus,canvas.Screen,2_67_0_1,2022-07-01T11:49:38.154Z,,,1,A,98.55499999993481,timeout,,,755730.2000000001,755729.018,755630.449,755631.6,755647.136,755745.691,,black
Reaction,canvas.Screen,2_67_0_2,2022-07-01T11:49:38.320Z,,,1,A,149.30900000000838,response,stim_detected,mousedown,755896.7000000001,755895,755729.018,755730.4,755745.691,755912.864,,black
Trial,flow.Sequence,2_67_0,2022-07-01T11:49:38.320Z,,,1,A,2100.1419999999925,completion,,,755897.1,755895,753778.181,753786.6,753794.858,755912.864,,black
Frame,canvas.Frame,2_67,2022-07-01T11:49:38.321Z,,,1,A,2102.3420000000624,,,,755897.4,755897.2000000001,753778.181,753785.5,753794.858,755912.864,,black
Fixation,canvas.Screen,2_68_0_0,2022-07-01T11:49:40.273Z,,,0,V,1951.7330000000075,timeout,,,757849.5,757847.916,755896.187,755898.9,755912.864,757864.597,,grey
Stimulus,canvas.Screen,2_68_0_1,2022-07-01T11:49:40.372Z,,,0,V,99.57300000009127,timeout,,,757948.4,757947.493,757847.916,757849.7000000001,757864.597,757964.17,,grey
Reaction,canvas.Screen,2_68_0_2,2022-07-01T11:49:40.537Z,,,0,V,147.8299999999581,response,stim_detected,mousedown,758113.4,758112,757947.493,757948.7000000001,757964.17,758130.995,,grey
Trial,flow.Sequence,2_68_0,2022-07-01T11:49:40.537Z,,,0,V,2199.136000000057,completion,,,758113.8,758112,755896.187,755898.8,755912.864,758130.995,,grey
Frame,canvas.Frame,2_68,2022-07-01T11:49:40.538Z,,,0,V,2201.03600000008,,,,758114.2000000001,758113.9,755896.187,755897.6,755912.864,758130.995,,grey
Fixation,canvas.Screen,2_69_0_0,2022-07-01T11:49:42.858Z,,,1,A,2318.7020000000484,timeout,,,760434.4,760433.016,758114.318,758115.4,758130.995,760449.697,,black
Stimulus,canvas.Screen,2_69_0_1,2022-07-01T11:49:42.957Z,,,1,A,99.33799999998882,timeout,,,760533.2000000001,760532.359,760433.016,760434.7000000001,760449.697,760549.035,,black
Reaction,canvas.Screen,2_69_0_2,2022-07-01T11:49:43.128Z,,,1,A,153.76500000001397,response,stim_detected,mousedown,760704.4,760702.8,760532.359,760533.4,760549.035,760715.97,,black
Trial,flow.Sequence,2_69_0,2022-07-01T11:49:43.128Z,,,1,A,2571.805000000051,completion,,,760704.8,760702.8,758114.318,758115.4,758130.995,760715.97,,black
Frame,canvas.Frame,2_69,2022-07-01T11:49:43.128Z,,,1,A,2573.905000000028,,,,760705.1,760704.9,758114.318,758114.3,758130.995,760715.97,,black
Fixation,canvas.Screen,2_70_0_0,2022-07-01T11:49:45.342Z,,,1,A,2218.0500000000466,timeout,,,762918.6,762917.343,760699.293,760707.7000000001,760715.97,762934.02,,black
Stimulus,canvas.Screen,2_70_0_1,2022-07-01T11:49:45.442Z,,,1,A,99.87899999995716,timeout,,,763018.8,763017.224,762917.343,762918.8,762934.02,763033.899,,black
Reaction,canvas.Screen,2_70_0_2,2022-07-01T11:49:45.640Z,,,1,A,180.90100000007078,response,stim_detected,mousedown,763216.3,763214.8,763017.224,763019.1,763033.899,763234.28,,black
Trial,flow.Sequence,2_70_0,2022-07-01T11:49:45.640Z,,,1,A,2498.8300000000745,completion,,,763216.9,763214.8,760699.293,760707.6,760715.97,763234.28,,black
Frame,canvas.Frame,2_70,2022-07-01T11:49:45.641Z,,,1,A,2501.1300000000047,,,,763217.3,763217.1,760699.293,760705.3,760715.97,763234.28,,black
Fixation,canvas.Screen,2_71_0_0,2022-07-01T11:49:47.594Z,,,1,A,1951.4749999999767,timeout,,,765171,765169.076,763217.603,763218.8,763234.28,765185.755,,black
Stimulus,canvas.Screen,2_71_0_1,2022-07-01T11:49:47.694Z,,,1,A,99.92599999997765,timeout,,,765270.6,765269.003,765169.076,765171.4,765185.755,765285.681,,black
Reaction,canvas.Screen,2_71_0_2,2022-07-01T11:49:47.861Z,,,1,A,150.9189999999944,response,stim_detected,mousedown,765438.1,765436.6,765269.003,765270.9,765285.681,765452.341,,black
Trial,flow.Sequence,2_71_0,2022-07-01T11:49:47.862Z,,,1,A,2202.319999999949,completion,,,765438.5,765436.6,763217.603,763218.7000000001,763234.28,765452.341,,black
Frame,canvas.Frame,2_71,2022-07-01T11:49:47.862Z,,,1,A,2204.319999999949,,,,765438.8,765438.6,763217.603,763217.5,763234.28,765452.341,,black
Fixation,canvas.Screen,2_72_0_0,2022-07-01T11:49:49.479Z,,,1,AV,1618.4529999999795,timeout,,,767055.8,767054.11,765435.665,765439.9,765452.341,767070.794,,grey
Stimulus,canvas.Screen,2_72_0_1,2022-07-01T11:49:49.578Z,,,1,AV,98.9989999999525,timeout,,,767154.6,767153.119,767054.11,767056.2000000001,767070.794,767169.793,,grey
Reaction,canvas.Screen,2_72_0_2,2022-07-01T11:49:49.714Z,,,1,AV,119.90700000012293,response,stim_detected,mousedown,767291.1,767289.7000000001,767153.119,767154.9,767169.793,767303.56,,grey
Trial,flow.Sequence,2_72_0,2022-07-01T11:49:49.715Z,,,1,AV,1837.359000000055,completion,,,767291.5,767289.7000000001,765435.665,765439.9,765452.341,767303.56,,grey
Frame,canvas.Frame,2_72,2022-07-01T11:49:49.715Z,,,1,AV,1839.2589999999618,,,,767291.8,767291.6,765435.665,765438.9,765452.341,767303.56,,grey
Fixation,canvas.Screen,2_73_0_0,2022-07-01T11:49:51.897Z,,,1,A,2185.1239999999525,timeout,,,769473.7000000001,769472.004,767286.883,767293,767303.56,769488.684,,black
Stimulus,canvas.Screen,2_73_0_1,2022-07-01T11:49:51.996Z,,,1,A,99.70400000002701,timeout,,,769572.4,769571.711,769472.004,769473.9,769488.684,769588.388,,black
Reaction,canvas.Screen,2_73_0_2,2022-07-01T11:49:52.180Z,,,1,A,167.21199999994133,response,stim_detected,mousedown,769757,769755.6,769571.711,769572.4,769588.388,769771.795,,black
Trial,flow.Sequence,2_73_0,2022-07-01T11:49:52.181Z,,,1,A,2452.039999999921,completion,,,769757.4,769755.6,767286.883,767293,767303.56,769771.795,,black
Frame,canvas.Frame,2_73,2022-07-01T11:49:52.181Z,,,1,A,2453.939999999944,,,,769757.8,769757.5,767286.883,767292,767303.56,769771.795,,black
Fixation,canvas.Screen,2_74_0_0,2022-07-01T11:49:54.131Z,,,1,AV,1951.2179999999935,timeout,,,771707.8,771706.336,769755.118,769758.9,769771.795,771723.013,,grey
Stimulus,canvas.Screen,2_74_0_1,2022-07-01T11:49:54.231Z,,,1,AV,100.45899999991525,timeout,,,771807.7000000001,771806.792,771706.336,771708,771723.013,771823.472,,grey
Reaction,canvas.Screen,2_74_0_2,2022-07-01T11:49:54.369Z,,,1,AV,121.02800000004936,response,stim_detected,mousedown,771946.1,771944.5,771806.792,771807.9,771823.472,771956.544,,grey
Trial,flow.Sequence,2_74_0,2022-07-01T11:49:54.370Z,,,1,AV,2172.704999999958,completion,,,771946.6,771944.5,769755.118,769758.7000000001,769771.795,771956.544,,grey
Frame,canvas.Frame,2_74,2022-07-01T11:49:54.370Z,,,1,AV,2174.905000000028,,,,771947,771946.7000000001,769755.118,769757.9,769771.795,771956.544,,grey
Fixation,canvas.Screen,2_75_0_0,2022-07-01T11:49:56.033Z,,,1,AV,1668.6570000000065,timeout,,,773609.7000000001,773608.515,771939.867,771948.2000000001,771956.544,773625.201,,grey
Stimulus,canvas.Screen,2_75_0_1,2022-07-01T11:49:56.132Z,,,1,AV,99.10600000002887,timeout,,,773708.8,773707.631,773608.515,773610.1,773625.201,773724.307,,grey
Reaction,canvas.Screen,2_75_0_2,2022-07-01T11:49:56.284Z,,,1,AV,135.1929999999702,response,stim_detected,mousedown,773860.9,773859.5,773707.631,773709.1,773724.307,773874.425,,grey
Trial,flow.Sequence,2_75_0,2022-07-01T11:49:56.285Z,,,1,AV,1902.9560000000056,completion,,,773861.3,773859.5,771939.867,771948.1,771956.544,773874.425,,grey
Frame,canvas.Frame,2_75,2022-07-01T11:49:56.285Z,,,1,AV,1904.8560000000289,,,,773861.6,773861.4,771939.867,771947.1,771956.544,773874.425,,grey
Fixation,canvas.Screen,2_76_0_0,2022-07-01T11:49:58.284Z,,,1,AV,2001.9139999999898,timeout,,,775860.8,775859.657,773857.749,773862.8,773874.425,775876.339,,grey
Stimulus,canvas.Screen,2_76_0_1,2022-07-01T11:49:58.385Z,,,1,AV,99.54299999994691,timeout,,,775961.2000000001,775959.204,775859.657,775861.1,775876.339,775975.882,,grey
Reaction,canvas.Screen,2_76_0_2,2022-07-01T11:49:58.520Z,,,1,AV,119.41800000006333,response,stim_detected,mousedown,776096.9,776095.3,775959.204,775961.4,775975.882,776109.227,,grey
Trial,flow.Sequence,2_76_0,2022-07-01T11:49:58.521Z,,,1,AV,2220.875,completion,,,776097.6,776095.3,773857.749,773862.7000000001,773874.425,776109.227,,grey
Frame,canvas.Frame,2_76,2022-07-01T11:49:58.521Z,,,1,AV,2223.375,,,,776098,776097.8,773857.749,773861.8,773874.425,776109.227,,grey
Fixation,canvas.Screen,2_77_0_0,2022-07-01T11:50:00.422Z,,,0,V,1902.0840000000317,timeout,,,777996.1,777994.626,776092.55,776099.2000000001,776109.227,778011.311,,grey
Stimulus,canvas.Screen,2_77_0_1,2022-07-01T11:50:00.520Z,,,0,V,98.93000000005122,timeout,,,778094.9,778093.59,777994.626,777996.4,778011.311,778110.241,,grey
Reaction,canvas.Screen,2_77_0_2,2022-07-01T11:50:00.693Z,,,0,V,156.05900000000838,response,stim_detected,mousedown,778267.8,778266.3,778093.59,778095.2000000001,778110.241,778277.335,,grey
Trial,flow.Sequence,2_77_0,2022-07-01T11:50:00.694Z,,,0,V,2157.0730000000913,completion,,,778268.2000000001,778266.3,776092.55,776099,776109.227,778277.335,,grey
Frame,canvas.Frame,2_77,2022-07-01T11:50:00.694Z,,,0,V,2159.0730000000913,,,,778268.6,778268.3,776092.55,776098.2000000001,776109.227,778277.335,,grey
Fixation,canvas.Screen,2_78_0_0,2022-07-01T11:50:02.972Z,,,1,AV,2283.837999999989,timeout,,,780546.6,780544.502,778260.656,778269.9,778277.335,780561.173,,grey
Stimulus,canvas.Screen,2_78_0_1,2022-07-01T11:50:03.072Z,,,1,AV,101.00300000002608,timeout,,,780646.9,780645.499,780544.502,780546.8,780561.173,780662.176,,grey
Reaction,canvas.Screen,2_78_0_2,2022-07-01T11:50:03.203Z,,,1,AV,114.0240000000922,response,stim_detected,mousedown,780777.6,780776.2000000001,780645.499,780647.2000000001,780662.176,780778.909,,grey
Trial,flow.Sequence,2_78_0,2022-07-01T11:50:03.203Z,,,1,AV,2498.865000000107,completion,,,780777.9,780776.2000000001,778260.656,778269.8,778277.335,780778.909,,grey
Frame,canvas.Frame,2_78,2022-07-01T11:50:03.204Z,,,1,AV,2500.765000000014,,,,780778.3,780778.1,778260.656,778268.8,778277.335,780778.909,,grey
Fixation,canvas.Screen,2_79_0_0,2022-07-01T11:50:04.908Z,,,1,AV,1718.4749999999767,timeout,,,782482.3,782480.7,780762.232,780779.6,780778.909,782497.384,,grey
Stimulus,canvas.Screen,2_79_0_1,2022-07-01T11:50:05.007Z,,,1,AV,99.06400000001304,timeout,,,782581.2000000001,782579.774,782480.7,782482.6,782497.384,782596.448,,grey
Reaction,canvas.Screen,2_79_0_2,2022-07-01T11:50:05.164Z,,,1,AV,140.65200000000186,response,stim_detected,mousedown,782738.6,782737.1,782579.774,782581.4,782596.448,782746.855,,grey
Trial,flow.Sequence,2_79_0,2022-07-01T11:50:05.164Z,,,1,AV,1958.1909999999916,completion,,,782738.9,782737.1,780762.232,780779.4,780778.909,782746.855,,grey
Frame,canvas.Frame,2_79,2022-07-01T11:50:05.165Z,,,1,AV,1960.091000000015,,,,782739.3,782739,780762.232,780778.5,780778.909,782746.855,,grey
Fixation,canvas.Screen,2_80_0_0,2022-07-01T11:50:06.974Z,,,1,A,1817.0810000000056,timeout,,,784549,784547.265,782730.178,782740.3,782746.855,784563.936,,black
Stimulus,canvas.Screen,2_80_0_1,2022-07-01T11:50:07.074Z,,,1,A,100.82200000004377,timeout,,,784649,784647.534,784547.265,784549.3,784563.936,784664.758,,black
Reaction,canvas.Screen,2_80_0_2,2022-07-01T11:50:07.305Z,,,1,A,213.34199999994598,response,stim_detected,mousedown,784879.6,784878.1,784647.534,784649.2000000001,784664.758,784881.559,,black
Trial,flow.Sequence,2_80_0,2022-07-01T11:50:07.305Z,,,1,A,2131.2449999999953,completion,,,784879.9,784878.1,782730.178,782740.2000000001,782746.855,784881.559,,black
Frame,canvas.Frame,2_80,2022-07-01T11:50:07.306Z,,,1,A,2133.2449999999953,,,,784880.2000000001,784880.1,782730.178,782739.4,782746.855,784881.559,,black
Fixation,canvas.Screen,2_81_0_0,2022-07-01T11:50:09.777Z,,,0,V,2484.5439999999944,timeout,,,787351.3,787349.428,784864.882,784881.4,784881.559,787366.103,,grey
Stimulus,canvas.Screen,2_81_0_1,2022-07-01T11:50:09.876Z,,,0,V,100.11300000001211,timeout,,,787450.8,787449.541,787349.428,787351.6,787366.103,787466.216,,grey
Reaction,canvas.Screen,2_81_0_2,2022-07-01T11:50:10.064Z,,,0,V,171.48400000005495,response,stim_detected,mousedown,787638.4,787637.7000000001,787449.541,787451,787466.216,787649.959,,grey
Trial,flow.Sequence,2_81_0,2022-07-01T11:50:10.064Z,,,0,V,2756.1410000000615,completion,,,787638.6,787637.7000000001,784864.882,784881.4,784881.559,787649.959,,grey
Frame,canvas.Frame,2_81,2022-07-01T11:50:10.064Z,,,0,V,2757.1410000000615,,,,787638.7000000001,787638.7000000001,784864.882,784880.4,784881.559,787649.959,,grey
Fixation,canvas.Screen,2_82_0_0,2022-07-01T11:50:12.112Z,,,1,A,2051.2789999999804,timeout,,,789686.3,789684.561,787633.282,787639.2000000001,787649.959,789701.238,,black
Stimulus,canvas.Screen,2_82_0_1,2022-07-01T11:50:12.211Z,,,1,A,100.12800000002608,timeout,,,789785.7000000001,789784.689,789684.561,789686.5,789701.238,789801.366,,black
Reaction,canvas.Screen,2_82_0_2,2022-07-01T11:50:12.424Z,,,1,A,195.5339999999851,response,stim_detected,mousedown,789998.4,789996.9,789784.689,789785.9,789801.366,790001.48,,black
Trial,flow.Sequence,2_82_0,2022-07-01T11:50:12.424Z,,,1,A,2346.9409999999916,completion,,,789998.8,789996.9,787633.282,787639.2000000001,787649.959,790001.48,,black
Frame,canvas.Frame,2_82,2022-07-01T11:50:12.425Z,,,1,A,2348.9409999999916,,,,789999.1,789998.9,787633.282,787638.8,787649.959,790001.48,,black
Fixation,canvas.Screen,2_83_0_0,2022-07-01T11:50:14.833Z,,,1,A,2420.7900000000373,timeout,,,792407.4,792405.575,789984.803,790000.4,790001.48,792422.27,,black
Stimulus,canvas.Screen,2_83_0_1,2022-07-01T11:50:14.930Z,,,1,A,97.37199999997392,timeout,,,792504.3,792502.966,792405.575,792407.7000000001,792422.27,792519.642,,black
Reaction,canvas.Screen,2_83_0_2,2022-07-01T11:50:15.111Z,,,1,A,164.15800000005402,response,stim_detected,mousedown,792685.4,792683.8,792502.966,792504.7000000001,792519.642,792703.256,,black
Trial,flow.Sequence,2_83_0,2022-07-01T11:50:15.111Z,,,1,A,2682.320000000065,completion,,,792685.8,792683.8,789984.803,790000.3,790001.48,792703.256,,black
Frame,canvas.Frame,2_83,2022-07-01T11:50:15.112Z,,,1,A,2684.5200000000186,,,,792686.1,792686,789984.803,789999.3,790001.48,792703.256,,black
Fixation,canvas.Screen,2_84_0_0,2022-07-01T11:50:17.098Z,,,1,A,1984.4409999999916,timeout,,,794672.2000000001,794671.021,792686.579,792687.7000000001,792703.256,794687.697,,black
Stimulus,canvas.Screen,2_84_0_1,2022-07-01T11:50:17.198Z,,,1,A,100.23599999991711,timeout,,,794772.3,794771.256,794671.021,794672.5,794687.697,794787.933,,black
Reaction,canvas.Screen,2_84_0_2,2022-07-01T11:50:17.336Z,,,1,A,120.76700000010896,response,stim_detected,mousedown,794910.2000000001,794908.7000000001,794771.256,794772.6,794787.933,794921.292,,black
Trial,flow.Sequence,2_84_0,2022-07-01T11:50:17.336Z,,,1,A,2205.4440000000177,completion,,,794910.8,794908.7000000001,792686.579,792687.6,792703.256,794921.292,,black
Frame,canvas.Frame,2_84,2022-07-01T11:50:17.337Z,,,1,A,2207.643999999971,,,,794911.2000000001,794910.9,792686.579,792686.3,792703.256,794921.292,,black
Fixation,canvas.Screen,2_85_0_0,2022-07-01T11:50:19.501Z,,,1,AV,2169.2879999999423,timeout,,,797075.4,797073.894,794904.616,794912.3,794921.292,797090.58,,grey
Stimulus,canvas.Screen,2_85_0_1,2022-07-01T11:50:19.599Z,,,1,AV,98.41300000005867,timeout,,,797173.5,797172.319,797073.894,797075.7000000001,797090.58,797188.993,,grey
Reaction,canvas.Screen,2_85_0_2,2022-07-01T11:50:19.754Z,,,1,AV,137.70700000005309,response,stim_detected,mousedown,797328.1,797326.7000000001,797172.319,797173.9,797188.993,797339.592,,grey
Trial,flow.Sequence,2_85_0,2022-07-01T11:50:19.754Z,,,1,AV,2405.408000000054,completion,,,797328.5,797326.7000000001,794904.616,794912.3,794921.292,797339.592,,grey
Frame,canvas.Frame,2_85,2022-07-01T11:50:19.754Z,,,1,AV,2407.408000000054,,,,797328.9,797328.7000000001,794904.616,794911.3,794921.292,797339.592,,grey
Fixation,canvas.Screen,2_86_0_0,2022-07-01T11:50:21.652Z,,,1,AV,1901.3080000000773,timeout,,,799226.2000000001,799224.222,797322.915,797330,797339.592,799240.9,,grey
Stimulus,canvas.Screen,2_86_0_1,2022-07-01T11:50:21.750Z,,,1,AV,99.45699999993667,timeout,,,799325.1,799323.684,799224.222,799226.4,799240.9,799340.357,,grey
Reaction,canvas.Screen,2_86_0_2,2022-07-01T11:50:21.903Z,,,1,AV,136.24300000001676,response,stim_detected,mousedown,799478,799476.6,799323.684,799325.1,799340.357,799490.926,,grey
Trial,flow.Sequence,2_86_0,2022-07-01T11:50:21.904Z,,,1,AV,2137.0080000000307,completion,,,799478.5,799476.6,797322.915,797329.9,797339.592,799490.926,,grey
Frame,canvas.Frame,2_86,2022-07-01T11:50:21.904Z,,,1,AV,2139.0080000000307,,,,799478.7000000001,799478.6,797322.915,797329,797339.592,799490.926,,grey
Fixation,canvas.Screen,2_87_0_0,2022-07-01T11:50:24.386Z,,,1,AV,2485.0400000000373,timeout,,,801960.8,801959.288,799474.249,799480,799490.926,801975.966,,grey
Stimulus,canvas.Screen,2_87_0_1,2022-07-01T11:50:24.486Z,,,1,AV,100.00399999995716,timeout,,,802060.6,802059.291,801959.288,801961,801975.966,802075.97,,grey
Reaction,canvas.Screen,2_87_0_2,2022-07-01T11:50:25.987Z,,,1,AV,1500.889000000083,timeout,,,803561.6,803560.182,802059.291,802060.8,802075.97,803576.859,,grey
Trial,flow.Sequence,2_87_0,2022-07-01T11:50:25.987Z,,,1,AV,4069.256000000052,completion,,,803562.1,803560.182,799474.249,799479.9,799490.926,803576.859,,grey
Frame,canvas.Frame,2_87,2022-07-01T11:50:25.988Z,,,1,AV,4071.274000000092,,,,803562.4,803562.2000000001,799474.249,799478.9,799490.926,803593.536,,grey
Fixation,canvas.Screen,2_88_0_0,2022-07-01T11:50:28.455Z,,,1,A,2451.5840000000317,timeout,,,806029.5,806028.443,803576.859,803563.4,803593.536,806045.12,,black
Stimulus,canvas.Screen,2_88_0_1,2022-07-01T11:50:28.555Z,,,1,A,99.94499999994878,timeout,,,806129.5,806128.389,806028.443,806029.8,806045.12,806145.065,,black
Reaction,canvas.Screen,2_88_0_2,2022-07-01T11:50:28.711Z,,,1,A,139.13500000012573,response,stim_detected,mousedown,806285.8,806284.2000000001,806128.389,806129.7000000001,806145.065,806295.338,,black
Trial,flow.Sequence,2_88_0,2022-07-01T11:50:28.712Z,,,1,A,2690.664000000106,completion,,,806286.3,806284.2000000001,803576.859,803563.3,803593.536,806295.338,,black
Frame,canvas.Frame,2_88,2022-07-01T11:50:28.712Z,,,1,A,2692.8640000000596,,,,806286.6,806286.4,803576.859,803562.6,803593.536,806295.338,,black
Fixation,canvas.Screen,2_89_0_0,2022-07-01T11:50:30.640Z,,,0,V,1934.670000000042,timeout,,,808214.9,808213.33,806278.661,806288,806295.338,808230.008,,grey
Stimulus,canvas.Screen,2_89_0_1,2022-07-01T11:50:30.740Z,,,0,V,99.88699999998789,timeout,,,808314.7000000001,808313.219,808213.33,808215.1,808230.008,808329.895,,grey
Reaction,canvas.Screen,2_89_0_2,2022-07-01T11:50:30.918Z,,,0,V,160.80500000005122,response,stim_detected,mousedown,808492.2000000001,808490.7000000001,808313.219,808315,808329.895,808494.682,,grey
Trial,flow.Sequence,2_89_0,2022-07-01T11:50:30.918Z,,,0,V,2195.362000000081,completion,,,808492.6,808490.7000000001,806278.661,806287.9,806295.338,808494.682,,grey
Frame,canvas.Frame,2_89,2022-07-01T11:50:30.918Z,,,0,V,2197.362000000081,,,,808492.9,808492.7000000001,806278.661,806286.8,806295.338,808494.682,,grey
Fixation,canvas.Screen,2_90_0_0,2022-07-01T11:50:32.492Z,,,1,AV,1587.4139999999898,timeout,,,810066.6,810065.408,808478.15,808494.1,808494.682,810082.096,,grey
Stimulus,canvas.Screen,2_90_0_1,2022-07-01T11:50:32.591Z,,,1,AV,98.9199999999255,timeout,,,810165.5,810164.341,810065.408,810066.9,810082.096,810181.016,,grey
Reaction,canvas.Screen,2_90_0_2,2022-07-01T11:50:32.734Z,,,1,AV,126.1840000001248,response,stim_detected,mousedown,810308.8,810307.2000000001,810164.341,810165.8,810181.016,810331.285,,grey
Trial,flow.Sequence,2_90_0,2022-07-01T11:50:32.735Z,,,1,AV,1812.51800000004,completion,,,810309.2000000001,810307.2000000001,808478.15,808494,808494.682,810331.285,,grey
Frame,canvas.Frame,2_90,2022-07-01T11:50:32.735Z,,,1,AV,1814.7179999999935,,,,810309.5,810309.4,808478.15,808493.1,808494.682,810331.285,,grey
Loop,flow.Loop,2,2022-07-01T11:50:32.735Z,,,,,209329.71700000006,completion,,,810309.9,810309.4,600963.007,600964.6,600979.683,810331.285,,
end,html.Page,3,2022-07-01T11:50:37.957Z,,,,,5200.015000000014,form submission,,,815531.8,815531.3,810314.608,810310.1,810331.285,815534.846,,
root,flow.Sequence,,2022-07-01T11:50:37.958Z,,,,,811535.804,completion,,,815532.6,815531.3,3945.472,3956.899999999994,3995.496,815534.846,,