sender,sender_type,sender_id,timestamp,meta,,aud,condition,duration,ended_on,response,response_action,time_commit,time_end,time_render,time_run,time_show,time_switch,url,vis
Instructions,html.Page,0,2022-06-10T16:09:04.055Z,"{""labjs_version"":""20.2.4"",""labjs_build"":{""flavor"":""production"",""commit"":""f5b4a49f956347addd546a832a3327688c2c0fef""},""location"":""file:///C:/Users/Proband%207/Desktop/RTE/index.html"",""userAgent"":""Mozilla/5.0 (Windows NT 6.1; Win64; x64) AppleWebKit/537.36 (KHTML, like Gecko) Chrome/102.0.5005.115 Safari/537.36"",""platform"":""Win32"",""language"":""de-DE"",""locale"":""de"",""timeZone"":""Europe/Berlin"",""timezoneOffset"":-120,""screen_width"":1366,""screen_height"":768,""scroll_width"":1366,""scroll_height"":609,""window_innerWidth"":1366,""window_innerHeight"":657,""devicePixelRatio"":1}",,,,94103.34899999962,form submission,,,98573.5,98572.09999999963,4452.072,4462.199999999721,4468.751,98581.412,{},
Change Background,canvas.Screen,1,2022-06-10T16:09:07.050Z,,,,,3001.5580000000045,timeout,,,101568.5,101566.292,98548.038,98574.19999999972,98581.412,101582.97,,
Fixation,canvas.Screen,2_0_0_0,2022-06-10T16:09:08.627Z,,,0,V,1577.8179999999993,timeout,,,103145.5,103144.141,101566.292,101570.09999999963,101582.97,103160.788,,grey
Stimulus,canvas.Screen,2_0_0_1,2022-06-10T16:09:08.734Z,,,0,V,106.49099999999453,timeout,,,103252.29999999981,103250.602,103144.141,103145.8999999999,103160.788,103267.279,,grey
Reaction,canvas.Screen,2_0_0_2,2022-06-10T16:09:09.047Z,,,0,V,295.8209999996325,response,stim_detected,mousedown,103565.19999999972,103563.09999999963,103250.602,103252.69999999972,103267.279,103567.515,,grey
Trial,flow.Sequence,2_0_0,2022-06-10T16:09:09.047Z,,,0,V,1980.1299999996263,completion,,,103565.8999999999,103563.09999999963,101566.292,101570,101582.97,103567.515,,grey
Frame,canvas.Frame,2_0,2022-06-10T16:09:09.048Z,,,0,V,1983.2299999997194,,,,103566.59999999963,103566.19999999972,101566.292,101569,101582.97,103567.515,,grey
Fixation,canvas.Screen,2_1_0_0,2022-06-10T16:09:11.253Z,,,0,V,2219.395000000004,timeout,,,105771.3999999999,105770.224,103550.838,103568,103567.515,105786.91,,grey
Stimulus,canvas.Screen,2_1_0_1,2022-06-10T16:09:11.351Z,,,0,V,98.82099999999627,timeout,,,105869.79999999981,105869.054,105770.224,105771.69999999972,105786.91,105885.731,,grey
Reaction,canvas.Screen,2_1_0_2,2022-06-10T16:09:11.502Z,,,0,V,133.3689999996277,response,stim_detected,mousedown,106020.79999999981,106019.09999999963,105869.054,105870.09999999963,105885.731,106035.791,,grey
Trial,flow.Sequence,2_1_0,2022-06-10T16:09:11.503Z,,,0,V,2451.584999999628,completion,,,106021.8999999999,106019.09999999963,103550.838,103567.8999999999,103567.515,106035.791,,grey
Frame,canvas.Frame,2_1,2022-06-10T16:09:11.504Z,,,0,V,2454.4850000000006,,,,106022.5,106022,103550.838,103566.79999999981,103567.515,106035.791,,grey
Fixation,canvas.Screen,2_2_0_0,2022-06-10T16:09:13.371Z,,,1,A,1869.3439999999973,timeout,,,107889.69999999972,107888.446,106019.115,106024,106035.791,107905.135,,black
Stimulus,canvas.Screen,2_2_0_1,2022-06-10T16:09:13.469Z,,,1,A,98.72200000000885,timeout,,,107988,107987.179,107888.446,107890.19999999972,107905.135,108003.857,,black
Reaction,canvas.Screen,2_2_0_2,2022-06-10T16:09:13.723Z,,,1,A,236.342999999717,response,stim_detected,mousedown,108242,108240.19999999972,107987.179,107988,108003.857,108253.93,,black
Trial,flow.Sequence,2_2_0,2022-06-10T16:09:13.724Z,,,1,A,2204.408999999723,completion,,,108242.5,108240.19999999972,106019.115,106023.79999999981,106035.791,108253.93,,black
Frame,canvas.Frame,2_2,2022-06-10T16:09:13.724Z,,,1,A,2207.0089999998163,,,,108243,108242.79999999981,106019.115,106022.79999999981,106035.791,108253.93,,black
Fixation,canvas.Screen,2_3_0_0,2022-06-10T16:09:15.404Z,,,1,AV,1684.5560000000114,timeout,,,109922.5,109921.173,108237.254,108244.59999999963,108253.93,109938.486,,grey
Stimulus,canvas.Screen,2_3_0_1,2022-06-10T16:09:15.505Z,,,1,AV,100.07399999999325,timeout,,,110023.5,110021.881,109921.173,109922.79999999981,109938.486,110038.56,,grey
Reaction,canvas.Screen,2_3_0_2,2022-06-10T16:09:15.667Z,,,1,AV,145.44000000000233,response,stim_detected,mousedown,110185.69999999972,110184,110021.881,110023.8999999999,110038.56,110188.598,,grey
Trial,flow.Sequence,2_3_0,2022-06-10T16:09:15.668Z,,,1,AV,1930.070000000007,completion,,,110186.19999999972,110184,108237.254,108244.5,108253.93,110188.598,,grey
Frame,canvas.Frame,2_3,2022-06-10T16:09:15.668Z,,,1,AV,1932.4699999999139,,,,110186.69999999972,110186.3999999999,108237.254,108243.29999999981,108253.93,110188.598,,grey
Fixation,canvas.Screen,2_4_0_0,2022-06-10T16:09:18.056Z,,,0,V,2401.646999999997,timeout,,,112574.79999999981,112573.567,110171.921,110188.3999999999,110188.598,112590.245,,grey
Stimulus,canvas.Screen,2_4_0_1,2022-06-10T16:09:18.156Z,,,0,V,100.12300000000687,timeout,,,112674.79999999981,112673.689,112573.567,112575.09999999963,112590.245,112690.368,,grey
Reaction,canvas.Screen,2_4_0_2,2022-06-10T16:09:18.303Z,,,0,V,129.6319999999978,response,stim_detected,mousedown,112821.8999999999,112820,112673.689,112675.09999999963,112690.368,112823.658,,grey
Trial,flow.Sequence,2_4_0,2022-06-10T16:09:18.304Z,,,0,V,2631.402000000002,completion,,,112822.5,112820,110171.921,110188.19999999972,110188.598,112823.658,,grey
Frame,canvas.Frame,2_4,2022-06-10T16:09:18.304Z,,,0,V,2634.1019999997225,,,,112823,112822.69999999972,110171.921,110187.09999999963,110188.598,112823.658,,grey
Fixation,canvas.Screen,2_5_0_0,2022-06-10T16:09:20.574Z,,,1,A,2284.752999999997,timeout,,,115092.79999999981,115091.734,112806.981,112824.69999999972,112823.658,115108.411,,black
Stimulus,canvas.Screen,2_5_0_1,2022-06-10T16:09:20.675Z,,,1,A,100.25400000000081,timeout,,,115193.79999999981,115191.986,115091.734,115093.09999999963,115108.411,115208.665,,black
Reaction,canvas.Screen,2_5_0_2,2022-06-10T16:09:20.846Z,,,1,A,154.3350000000064,response,stim_detected,mousedown,115364.59999999963,115363,115191.986,115194.09999999963,115208.665,115375.357,,black
Trial,flow.Sequence,2_5_0,2022-06-10T16:09:20.846Z,,,1,A,2539.342000000004,completion,,,115365.09999999963,115363,112806.981,112824.59999999963,112823.658,115375.357,,black
Frame,canvas.Frame,2_5,2022-06-10T16:09:20.847Z,,,1,A,2541.641999999818,,,,115365.5,115365.29999999981,112806.981,112823.19999999972,112823.658,115375.357,,black
Fixation,canvas.Screen,2_6_0_0,2022-06-10T16:09:22.943Z,,,0,V,2101.597999999998,timeout,,,117461.79999999981,117460.276,115358.68,115367.09999999963,115375.357,117476.955,,grey
Stimulus,canvas.Screen,2_6_0_1,2022-06-10T16:09:23.043Z,,,0,V,99.87799999999697,timeout,,,117561.69999999972,117560.112,117460.276,117462.29999999981,117476.955,117576.833,,grey
Reaction,canvas.Screen,2_6_0_2,2022-06-10T16:09:23.186Z,,,0,V,126.16700000000128,response,stim_detected,mousedown,117704.69999999972,117703,117560.112,117562.09999999963,117576.833,117710.249,,grey
Trial,flow.Sequence,2_6_0,2022-06-10T16:09:23.186Z,,,0,V,2327.6429999999964,completion,,,117705.09999999963,117703,115358.68,115366.8999999999,115375.357,117710.249,,grey
Frame,canvas.Frame,2_6,2022-06-10T16:09:23.187Z,,,0,V,2329.94299999981,,,,117705.59999999963,117705.29999999981,115358.68,115365.79999999981,115375.357,117710.249,,grey
Fixation,canvas.Screen,2_7_0_0,2022-06-10T16:09:25.544Z,,,1,AV,2367.9860000000044,timeout,,,120062.8999999999,120061.559,117693.572,117707.3999999999,117710.249,120078.235,,grey
Stimulus,canvas.Screen,2_7_0_1,2022-06-10T16:09:25.644Z,,,1,AV,100.30599999999686,timeout,,,120162.79999999981,120161.864,120061.559,120063.19999999972,120078.235,120178.541,,grey
Reaction,canvas.Screen,2_7_0_2,2022-06-10T16:09:25.989Z,,,1,AV,327.35899999990943,response,stim_detected,mousedown,120507.79999999981,120505.8999999999,120161.864,120163.09999999963,120178.541,120512.087,,grey
Trial,flow.Sequence,2_7_0,2022-06-10T16:09:25.990Z,,,1,AV,2795.6509999999107,completion,,,120508.19999999972,120505.8999999999,117693.572,117706.8999999999,117710.249,120512.087,,grey
Frame,canvas.Frame,2_7,2022-06-10T16:09:25.990Z,,,1,AV,2798.1509999999107,,,,120508.79999999981,120508.3999999999,117693.572,117705.79999999981,117710.249,120512.087,,grey
Fixation,canvas.Screen,2_8_0_0,2022-06-10T16:09:28.346Z,,,1,A,2367.471000000005,timeout,,,122864.19999999972,122862.885,120495.41,120510.09999999963,120512.087,122879.558,,black
Stimulus,canvas.Screen,2_8_0_1,2022-06-10T16:09:28.446Z,,,1,A,100.87199999998847,timeout,,,122965.09999999963,122963.752,122862.885,122864.5,122879.558,122980.43,,black
Reaction,canvas.Screen,2_8_0_2,2022-06-10T16:09:28.739Z,,,1,A,275.3699999998207,response,stim_detected,mousedown,123257.3999999999,123255.79999999981,122963.752,122965.79999999981,122980.43,123263.886,,black
Trial,flow.Sequence,2_8_0,2022-06-10T16:09:28.739Z,,,1,A,2743.712999999814,completion,,,123257.79999999981,123255.79999999981,120495.41,120510,120512.087,123263.886,,black
Frame,canvas.Frame,2_8,2022-06-10T16:09:28.740Z,,,1,A,2745.9130000000005,,,,123258.19999999972,123258,120495.41,120509,120512.087,123263.886,,black
Fixation,canvas.Screen,2_9_0_0,2022-06-10T16:09:30.597Z,,,0,V,1867.8319999999949,timeout,,,125116,125115.041,123247.209,123259.69999999972,123263.886,125131.718,,grey
Stimulus,canvas.Screen,2_9_0_1,2022-06-10T16:09:30.697Z,,,0,V,100.04800000000978,timeout,,,125216.09999999963,125215.09,125115.041,125116.19999999972,125131.718,125231.766,,grey
Reaction,canvas.Screen,2_9_0_2,2022-06-10T16:09:30.915Z,,,0,V,200.1339999999036,response,stim_detected,mousedown,125433.8999999999,125431.8999999999,125215.09,125216.3999999999,125231.766,125448.68,,grey
Trial,flow.Sequence,2_9_0,2022-06-10T16:09:30.916Z,,,0,V,2168.0139999999083,completion,,,125434.19999999972,125431.8999999999,123247.209,123259.59999999963,123263.886,125448.68,,grey
Frame,canvas.Frame,2_9,2022-06-10T16:09:30.916Z,,,0,V,2170.5139999999083,,,,125434.59999999963,125434.3999999999,123247.209,123258.5,123263.886,125448.68,,grey
Fixation,canvas.Screen,2_10_0_0,2022-06-10T16:09:32.799Z,,,1,AV,1884.7590000000055,timeout,,,127318.09999999963,127316.76,125432.003,125435.79999999981,125448.68,127333.439,,grey
Stimulus,canvas.Screen,2_10_0_1,2022-06-10T16:09:32.899Z,,,1,AV,99.86200000000827,timeout,,,127418.09999999963,127416.624,127316.76,127318.3999999999,127333.439,127433.301,,grey
Reaction,canvas.Screen,2_10_0_2,2022-06-10T16:09:33.094Z,,,1,AV,177.39899999971385,response,stim_detected,mousedown,127612.69999999972,127610.69999999972,127416.624,127418.5,127433.301,127616.79,,grey
Trial,flow.Sequence,2_10_0,2022-06-10T16:09:33.095Z,,,1,AV,2162.0199999997276,completion,,,127613.19999999972,127610.69999999972,125432.003,125435.69999999972,125448.68,127616.79,,grey
Frame,canvas.Frame,2_10,2022-06-10T16:09:33.095Z,,,1,AV,2164.719999999914,,,,127613.59999999963,127613.3999999999,125432.003,125434.79999999981,125448.68,127616.79,,grey
Fixation,canvas.Screen,2_11_0_0,2022-06-10T16:09:35.335Z,,,1,A,2251.2600000000093,timeout,,,129853.29999999981,129851.374,127600.113,127615,127616.79,129868.05,,black
Stimulus,canvas.Screen,2_11_0_1,2022-06-10T16:09:35.435Z,,,1,A,100.25299999999697,timeout,,,129953.29999999981,129951.626,129851.374,129853.5,129868.05,129968.303,,black
Reaction,canvas.Screen,2_11_0_2,2022-06-10T16:09:35.573Z,,,1,A,121.39699999972072,response,stim_detected,mousedown,130091.29999999981,130089.69999999972,129951.626,129953.59999999963,129968.303,130101.756,,black
Trial,flow.Sequence,2_11_0,2022-06-10T16:09:35.573Z,,,1,A,2472.909999999727,completion,,,130091.79999999981,130089.69999999972,127600.113,127614.79999999981,127616.79,130101.756,,black
Frame,canvas.Frame,2_11,2022-06-10T16:09:35.574Z,,,1,A,2475.2100000000064,,,,130092.29999999981,130092,127600.113,127613.8999999999,127616.79,130101.756,,black
Fixation,canvas.Screen,2_12_0_0,2022-06-10T16:09:37.119Z,,,1,AV,1550.9700000000012,timeout,,,131637.2999999998,131636.049,130085.079,130093.59999999963,130101.756,131652.726,,grey
Stimulus,canvas.Screen,2_12_0_1,2022-06-10T16:09:37.219Z,,,1,AV,100.09599999999045,timeout,,,131737.2999999998,131736.145,131636.049,131637.59999999963,131652.726,131752.822,,grey
Reaction,canvas.Screen,2_12_0_2,2022-06-10T16:09:37.380Z,,,1,AV,117.87799999973504,response,stim_detected,mousedown,131898.5,131870.69999999972,131736.145,131737.69999999972,131752.822,131902.942,,grey
Trial,flow.Sequence,2_12_0,2022-06-10T16:09:37.381Z,,,1,AV,1768.9439999997267,completion,,,131899.19999999972,131870.69999999972,130085.079,130093.3999999999,130101.756,131902.942,,grey
Frame,canvas.Frame,2_12,2022-06-10T16:09:37.381Z,,,1,AV,1797.643999999913,,,,131899.59999999963,131899.3999999999,130085.079,130092.5,130101.756,131902.942,,grey
Fixation,canvas.Screen,2_13_0_0,2022-06-10T16:09:39.721Z,,,1,A,2351.301999999996,timeout,,,134239.3999999999,134237.568,131886.265,131901.2999999998,131902.942,134254.244,,black
Stimulus,canvas.Screen,2_13_0_1,2022-06-10T16:09:39.821Z,,,1,A,100.3299999999872,timeout,,,134339.3999999999,134337.897,134237.568,134239.7999999998,134254.244,134354.574,,black
Reaction,canvas.Screen,2_13_0_2,2022-06-10T16:09:39.952Z,,,1,A,114.02599999963422,response,stim_detected,mousedown,134470.19999999972,134468.59999999963,134337.897,134339.7999999998,134354.574,134487.992,,black
Trial,flow.Sequence,2_13_0,2022-06-10T16:09:39.952Z,,,1,A,2565.6579999996175,completion,,,134470.69999999972,134468.59999999963,131886.265,131901.09999999963,131902.942,134487.992,,black
Frame,canvas.Frame,2_13,2022-06-10T16:09:39.952Z,,,1,A,2567.957999999897,,,,134471.09999999963,134470.8999999999,131886.265,131899.8999999999,131902.942,134487.992,,black
Fixation,canvas.Screen,2_14_0_0,2022-06-10T16:09:41.889Z,,,0,V,1934.5409999999974,timeout,,,136407.59999999963,136405.856,134471.315,134472.7999999998,134487.992,136422.533,,grey
Stimulus,canvas.Screen,2_14_0_1,2022-06-10T16:09:41.988Z,,,0,V,99.55400000000373,timeout,,,136506.3999999999,136505.414,136405.856,136407.8999999999,136422.533,136522.087,,grey
Reaction,canvas.Screen,2_14_0_2,2022-06-10T16:09:42.097Z,,,0,V,91.41300000000047,response,stim_detected,mousedown,136615.7999999998,136613.5,136505.414,136506.69999999972,136522.087,136622.736,,grey
Trial,flow.Sequence,2_14_0,2022-06-10T16:09:42.098Z,,,0,V,2125.5080000000016,completion,,,136616.19999999972,136613.5,134471.315,134472.59999999963,134487.992,136622.736,,grey
Frame,canvas.Frame,2_14,2022-06-10T16:09:42.098Z,,,0,V,2128.4079999999085,,,,136616.69999999972,136616.3999999999,134471.315,134471.3999999999,134487.992,136622.736,,grey
Fixation,canvas.Screen,2_15_0_0,2022-06-10T16:09:44.007Z,,,1,A,1917.9860000000044,timeout,,,138525.59999999963,138524.044,136606.059,136618.59999999963,136622.736,138540.722,,black
Stimulus,canvas.Screen,2_15_0_1,2022-06-10T16:09:44.107Z,,,1,A,99.71499999999651,timeout,,,138625.59999999963,138623.762,138524.044,138526.09999999963,138540.722,138640.437,,black
Reaction,canvas.Screen,2_15_0_2,2022-06-10T16:09:44.223Z,,,1,A,100.16299999962212,response,stim_detected,mousedown,138742.09999999963,138740.59999999963,138623.762,138625.7999999998,138640.437,138757.449,,black
Trial,flow.Sequence,2_15_0,2022-06-10T16:09:44.224Z,,,1,A,2117.863999999623,completion,,,138742.69999999972,138740.59999999963,136606.059,136618.2999999998,136622.736,138757.449,,black
Frame,canvas.Frame,2_15,2022-06-10T16:09:44.224Z,,,1,A,2120.0639999998093,,,,138743.09999999963,138742.7999999998,136606.059,136616.8999999999,136622.736,138757.449,,black
Fixation,canvas.Screen,2_16_0_0,2022-06-10T16:09:46.075Z,,,1,AV,1851.5249999999942,timeout,,,140593.69999999972,140592.294,138740.772,138744.3999999999,138757.449,140608.974,,grey
Stimulus,canvas.Screen,2_16_0_1,2022-06-10T16:09:46.174Z,,,1,AV,99.32900000002701,timeout,,,140692.69999999972,140691.63,140592.294,140594,140608.974,140708.303,,grey
Reaction,canvas.Screen,2_16_0_2,2022-06-10T16:09:46.299Z,,,1,AV,108.09699999989243,response,stim_detected,mousedown,140818.19999999972,140816.3999999999,140691.63,140693.09999999963,140708.303,140825.502,,grey
Trial,flow.Sequence,2_16_0,2022-06-10T16:09:46.300Z,,,1,AV,2058.9509999999136,completion,,,140818.5,140816.3999999999,138740.772,138744.19999999972,138757.449,140825.502,,grey
Frame,canvas.Frame,2_16,2022-06-10T16:09:46.300Z,,,1,AV,2061.2509999997274,,,,140818.8999999999,140818.69999999972,138740.772,138743.2999999998,138757.449,140825.502,,grey
Fixation,canvas.Screen,2_17_0_0,2022-06-10T16:09:48.310Z,,,0,V,2018.441999999981,timeout,,,142828.7999999998,142827.263,140808.825,140820.19999999972,140825.502,142843.944,,grey
Stimulus,canvas.Screen,2_17_0_1,2022-06-10T16:09:48.409Z,,,0,V,99.2050000000163,timeout,,,142927.7999999998,142926.475,142827.263,142829,142843.944,142943.149,,grey
Reaction,canvas.Screen,2_17_0_2,2022-06-10T16:09:48.519Z,,,0,V,93.25099999990198,response,stim_detected,mousedown,143038,143036.3999999999,142926.475,142928,142943.149,143043.611,,grey
Trial,flow.Sequence,2_17_0,2022-06-10T16:09:48.520Z,,,0,V,2210.897999999899,completion,,,143038.5,143036.3999999999,140808.825,140820.09999999963,140825.502,143043.611,,grey
Frame,canvas.Frame,2_17,2022-06-10T16:09:48.520Z,,,0,V,2213.197999999713,,,,143038.8999999999,143038.69999999972,140808.825,140819.09999999963,140825.502,143043.611,,grey
Fixation,canvas.Screen,2_18_0_0,2022-06-10T16:09:50.477Z,,,0,V,1967.896000000008,timeout,,,144995.7999999998,144994.83,143026.934,143040.2999999998,143043.611,145011.507,,grey
Stimulus,canvas.Screen,2_18_0_1,2022-06-10T16:09:50.577Z,,,0,V,100.15799999999581,timeout,,,145095.8999999999,145094.988,144994.83,144996.5,145011.507,145111.665,,grey
Reaction,canvas.Screen,2_18_0_2,2022-06-10T16:09:50.708Z,,,0,V,113.73499999989872,response,stim_detected,mousedown,145226.7999999998,145225.3999999999,145094.988,145096.19999999972,145111.665,145245.094,,grey
Trial,flow.Sequence,2_18_0,2022-06-10T16:09:50.709Z,,,0,V,2181.7889999999024,completion,,,145227.69999999972,145225.3999999999,143026.934,143040.19999999972,143043.611,145245.094,,grey
Frame,canvas.Frame,2_18,2022-06-10T16:09:50.710Z,,,0,V,2184.3889999999956,,,,145228.2999999998,145228,143026.934,143039.19999999972,143043.611,145245.094,,grey
Fixation,canvas.Screen,2_19_0_0,2022-06-10T16:09:52.546Z,,,1,AV,1834.7249999999767,timeout,,,147064.8999999999,147063.14,145228.417,145229.59999999963,145245.094,147079.819,,grey
Stimulus,canvas.Screen,2_19_0_1,2022-06-10T16:09:52.645Z,,,1,AV,99.6030000000028,timeout,,,147164,147162.747,147063.14,147065.09999999963,147079.819,147179.422,,grey
Reaction,canvas.Screen,2_19_0_2,2022-06-10T16:09:52.763Z,,,1,AV,100.87799999982235,response,stim_detected,mousedown,147281.7999999998,147280.2999999998,147162.747,147164.2999999998,147179.422,147296.425,,grey
Trial,flow.Sequence,2_19_0,2022-06-10T16:09:52.764Z,,,1,AV,2035.2059999998019,completion,,,147282.2999999998,147280.2999999998,145228.417,145229.5,145245.094,147296.425,,grey
Frame,canvas.Frame,2_19,2022-06-10T16:09:52.764Z,,,1,AV,2037.4059999999881,,,,147282.7999999998,147282.5,145228.417,145228.5,145245.094,147296.425,,grey
Fixation,canvas.Screen,2_20_0_0,2022-06-10T16:09:54.913Z,,,0,V,2151.2030000000086,timeout,,,149432,149430.952,147279.748,147284.2999999998,147296.425,149447.628,,grey
Stimulus,canvas.Screen,2_20_0_1,2022-06-10T16:09:55.014Z,,,0,V,100.3859999999986,timeout,,,149533.09999999963,149531.334,149430.952,149432.2999999998,149447.628,149548.014,,grey
Reaction,canvas.Screen,2_20_0_2,2022-06-10T16:09:55.182Z,,,0,V,151.18599999972503,response,stim_detected,mousedown,149700.7999999998,149699.19999999972,149531.334,149533.2999999998,149548.014,149714.707,,grey
Trial,flow.Sequence,2_20_0,2022-06-10T16:09:55.183Z,,,0,V,2402.7749999997322,completion,,,149701.19999999972,149699.19999999972,147279.748,147284.19999999972,147296.425,149714.707,,grey
Frame,canvas.Frame,2_20,2022-06-10T16:09:55.183Z,,,0,V,2404.9749999999185,,,,149701.69999999972,149701.3999999999,147279.748,147283.09999999963,147296.425,149714.707,,grey
Fixation,canvas.Screen,2_21_0_0,2022-06-10T16:09:57.181Z,,,1,A,2001.1199999999953,timeout,,,151700.09999999963,151699.151,149698.03,149703.09999999963,149714.707,151715.827,,black
Stimulus,canvas.Screen,2_21_0_1,2022-06-10T16:09:57.282Z,,,1,A,100.35599999999977,timeout,,,151801.09999999963,151799.504,151699.151,151700.3999999999,151715.827,151816.183,,black
Reaction,canvas.Screen,2_21_0_2,2022-06-10T16:09:57.414Z,,,1,A,115.11699999982375,response,stim_detected,mousedown,151932.8999999999,151931.2999999998,151799.504,151801.3999999999,151816.183,151949.528,,black
Trial,flow.Sequence,2_21_0,2022-06-10T16:09:57.415Z,,,1,A,2216.592999999819,completion,,,151933.5,151931.2999999998,149698.03,149702.8999999999,149714.707,151949.528,,black
Frame,canvas.Frame,2_21,2022-06-10T16:09:57.415Z,,,1,A,2218.8929999996326,,,,151933.8999999999,151933.59999999963,149698.03,149701.8999999999,149714.707,151949.528,,black
Fixation,canvas.Screen,2_22_0_0,2022-06-10T16:09:59.284Z,,,1,AV,1867.7069999999949,timeout,,,153802.19999999972,153800.559,151932.851,151935.19999999972,151949.528,153817.235,,grey
Stimulus,canvas.Screen,2_22_0_1,2022-06-10T16:09:59.384Z,,,1,AV,100.06200000000536,timeout,,,153902.19999999972,153900.621,153800.559,153802.59999999963,153817.235,153917.297,,grey
Reaction,canvas.Screen,2_22_0_2,2022-06-10T16:09:59.517Z,,,1,AV,117.00299999982235,response,stim_detected,mousedown,154036,154034.2999999998,153900.621,153902.5,153917.297,154050.918,,grey
Trial,flow.Sequence,2_22_0,2022-06-10T16:09:59.518Z,,,1,AV,2084.7719999998226,completion,,,154036.5,154034.2999999998,151932.851,151935.09999999963,151949.528,154050.918,,grey
Frame,canvas.Frame,2_22,2022-06-10T16:09:59.518Z,,,1,AV,2087.1719999997295,,,,154036.8999999999,154036.69999999972,151932.851,151934.09999999963,151949.528,154050.918,,grey
Fixation,canvas.Screen,2_23_0_0,2022-06-10T16:10:01.335Z,,,1,A,1817.7999999999884,timeout,,,155853.19999999972,155852.041,154034.241,154038.3999999999,154050.918,155868.718,,black
Stimulus,canvas.Screen,2_23_0_1,2022-06-10T16:10:01.435Z,,,1,A,100.19899999999325,timeout,,,155953.09999999963,155952.238,155852.041,155853.5,155868.718,155968.917,,black
Reaction,canvas.Screen,2_23_0_2,2022-06-10T16:10:01.542Z,,,1,A,89.28299999973387,response,stim_detected,mousedown,156059.7999999998,156058.19999999972,155952.238,155953.5,155968.917,156068.887,,black
Trial,flow.Sequence,2_23_0,2022-06-10T16:10:01.542Z,,,1,A,2007.2819999997155,completion,,,156060.2999999998,156058.19999999972,154034.241,154038.19999999972,154050.918,156068.887,,black
Frame,canvas.Frame,2_23,2022-06-10T16:10:01.543Z,,,1,A,2009.5819999999949,,,,156060.69999999972,156060.5,154034.241,154037.19999999972,154050.918,156068.887,,black
Fixation,canvas.Screen,2_24_0_0,2022-06-10T16:10:03.286Z,,,0,V,1750.9760000000242,timeout,,,157804.2999999998,157803.187,156052.211,156062,156068.887,157819.863,,grey
Stimulus,canvas.Screen,2_24_0_1,2022-06-10T16:10:03.387Z,,,0,V,100.35499999998137,timeout,,,157905.2999999998,157903.537,157803.187,157804.5,157819.863,157920.218,,grey
Reaction,canvas.Screen,2_24_0_2,2022-06-10T16:10:03.483Z,,,0,V,78.98199999972712,response,stim_detected,mousedown,158000.7999999998,157999.19999999972,157903.537,157905.69999999972,157920.218,158003.508,,grey
Trial,flow.Sequence,2_24_0,2022-06-10T16:10:03.483Z,,,0,V,1930.3129999997327,completion,,,158001.2999999998,157999.19999999972,156052.211,156061.8999999999,156068.887,158003.508,,grey
Frame,canvas.Frame,2_24,2022-06-10T16:10:03.484Z,,,0,V,1932.613000000012,,,,158001.59999999963,158001.5,156052.211,156060.8999999999,156068.887,158003.508,,grey
Fixation,canvas.Screen,2_25_0_0,2022-06-10T16:10:05.372Z,,,1,AV,1901.4260000000068,timeout,,,159889.3999999999,159888.255,157986.831,158003.09999999963,158003.508,159904.934,,grey
Stimulus,canvas.Screen,2_25_0_1,2022-06-10T16:10:05.472Z,,,1,AV,99.3409999999858,timeout,,,159989.3999999999,159987.602,159888.255,159889.69999999972,159904.934,160004.275,,grey
Reaction,canvas.Screen,2_25_0_2,2022-06-10T16:10:05.580Z,,,1,AV,91.82499999963329,response,stim_detected,mousedown,160097.59999999963,160096.09999999963,159987.602,159989.69999999972,160004.275,160104.906,,grey
Trial,flow.Sequence,2_25_0,2022-06-10T16:10:05.580Z,,,1,AV,2092.591999999626,completion,,,160098.09999999963,160096.09999999963,157986.831,158003,158003.508,160104.906,,grey
Frame,canvas.Frame,2_25,2022-06-10T16:10:05.581Z,,,1,AV,2094.691999999719,,,,160098.5,160098.19999999972,157986.831,158001.8999999999,158003.508,160104.906,,grey
Fixation,canvas.Screen,2_26_0_0,2022-06-10T16:10:07.490Z,,,0,V,1918.2390000000014,timeout,,,162007.5,162006.465,160088.229,160099.7999999998,160104.906,162023.145,,grey
Stimulus,canvas.Screen,2_26_0_1,2022-06-10T16:10:07.590Z,,,0,V,99.47500000000582,timeout,,,162107.5,162105.945,162006.465,162007.69999999972,162023.145,162122.62,,grey
Reaction,canvas.Screen,2_26_0_2,2022-06-10T16:10:07.702Z,,,0,V,95.97999999963213,response,stim_detected,mousedown,162220.2999999998,162218.59999999963,162105.945,162107.8999999999,162122.62,162222.972,,grey
Trial,flow.Sequence,2_26_0,2022-06-10T16:10:07.703Z,,,0,V,2113.6939999996393,completion,,,162220.7999999998,162218.59999999963,160088.229,160099.69999999972,160104.906,162222.972,,grey
Frame,canvas.Frame,2_26,2022-06-10T16:10:07.703Z,,,0,V,2115.9939999999187,,,,162221.19999999972,162220.8999999999,160088.229,160098.69999999972,160104.906,162222.972,,grey
Fixation,canvas.Screen,2_27_0_0,2022-06-10T16:10:09.275Z,,,1,A,1584.5329999999958,timeout,,,163792.5,163790.826,162206.295,162222.59999999963,162222.972,163807.505,,black
Stimulus,canvas.Screen,2_27_0_1,2022-06-10T16:10:09.374Z,,,1,A,99.26300000000629,timeout,,,163891.5,163890.097,163790.826,163792.7999999998,163807.505,163906.768,,black
Reaction,canvas.Screen,2_27_0_2,2022-06-10T16:10:09.464Z,,,1,A,73.33199999961653,response,stim_detected,mousedown,163981.59999999963,163980.09999999963,163890.097,163891.8999999999,163906.768,164007.45,,black
Trial,flow.Sequence,2_27_0,2022-06-10T16:10:09.464Z,,,1,A,1757.1279999996186,completion,,,163982.19999999972,163980.09999999963,162206.295,162222.3999999999,162222.972,164007.45,,black
Frame,canvas.Frame,2_27,2022-06-10T16:10:09.465Z,,,1,A,1759.327999999805,,,,163982.59999999963,163982.2999999998,162206.295,162221.3999999999,162222.972,164007.45,,black
Fixation,canvas.Screen,2_28_0_0,2022-06-10T16:10:11.409Z,,,1,AV,1934.661999999982,timeout,,,165927,165925.434,163974.096,163983.7999999998,164007.45,165942.112,,grey
Stimulus,canvas.Screen,2_28_0_1,2022-06-10T16:10:11.509Z,,,1,AV,100.09600000001956,timeout,,,166026.69999999972,166025.53,165925.434,165927.2999999998,165942.112,166042.208,,grey
Reaction,canvas.Screen,2_28_0_2,2022-06-10T16:10:11.617Z,,,1,AV,90.8919999996142,response,stim_detected,mousedown,166134.59999999963,166133.09999999963,166025.53,166027,166042.208,166142.229,,grey
Trial,flow.Sequence,2_28_0,2022-06-10T16:10:11.617Z,,,1,AV,2125.649999999616,completion,,,166135.09999999963,166133.09999999963,163974.096,163983.69999999972,164007.45,166142.229,,grey
Frame,canvas.Frame,2_28,2022-06-10T16:10:11.618Z,,,1,AV,2127.949999999895,,,,166135.59999999963,166135.3999999999,163974.096,163982.7999999998,164007.45,166142.229,,grey
Fixation,canvas.Screen,2_29_0_0,2022-06-10T16:10:13.977Z,,,1,A,2367.524000000005,timeout,,,168494.7999999998,168493.08,166125.552,166137.19999999972,166142.229,168509.753,,black
Stimulus,canvas.Screen,2_29_0_1,2022-06-10T16:10:14.078Z,,,1,A,100.8289999999979,timeout,,,168595.8999999999,168593.901,168493.08,168495.09999999963,168509.753,168610.582,,black
Reaction,canvas.Screen,2_29_0_2,2022-06-10T16:10:14.195Z,,,1,A,100.61799999972573,response,stim_detected,mousedown,168712.7999999998,168711.19999999972,168593.901,168596.19999999972,168610.582,168727.24,,black
Trial,flow.Sequence,2_29_0,2022-06-10T16:10:14.195Z,,,1,A,2568.9709999997285,completion,,,168713.2999999998,168711.19999999972,166125.552,166137,166142.229,168727.24,,black
Frame,canvas.Frame,2_29,2022-06-10T16:10:14.196Z,,,1,A,2571.271000000008,,,,168713.7999999998,168713.5,166125.552,166136,166142.229,168727.24,,black
Fixation,canvas.Screen,2_30_0_0,2022-06-10T16:10:15.712Z,,,1,A,1517.7170000000042,timeout,,,170229.7999999998,170228.279,168710.563,168715.09999999963,168727.24,170244.957,,black
Stimulus,canvas.Screen,2_30_0_1,2022-06-10T16:10:15.812Z,,,1,A,100.07500000001164,timeout,,,170329.7999999998,170328.353,170228.279,170230.09999999963,170244.957,170345.032,,black
Reaction,canvas.Screen,2_30_0_2,2022-06-10T16:10:15.924Z,,,1,A,94.96799999999348,response,stim_detected,mousedown,170441.5,170440,170328.353,170330.09999999963,170345.032,170445.066,,black
Trial,flow.Sequence,2_30_0,2022-06-10T16:10:15.924Z,,,1,A,1712.7600000000093,completion,,,170442,170440,168710.563,168715,168727.24,170445.066,,black
Frame,canvas.Frame,2_30,2022-06-10T16:10:15.925Z,,,1,A,1714.95999999973,,,,170442.5,170442.19999999972,168710.563,168714,168727.24,170445.066,,black
Fixation,canvas.Screen,2_31_0_0,2022-06-10T16:10:18.130Z,,,0,V,2218.046000000002,timeout,,,172647.8999999999,172646.435,170428.389,170443.8999999999,170445.066,172663.112,,grey
Stimulus,canvas.Screen,2_31_0_1,2022-06-10T16:10:18.230Z,,,0,V,100.22200000000885,timeout,,,172747.8999999999,172746.655,172646.435,172648.09999999963,172663.112,172763.334,,grey
Reaction,canvas.Screen,2_31_0_2,2022-06-10T16:10:18.353Z,,,0,V,105.66599999999744,response,stim_detected,mousedown,172870.5,172869,172746.655,172748.2999999998,172763.334,172880.019,,grey
Trial,flow.Sequence,2_31_0,2022-06-10T16:10:18.353Z,,,0,V,2423.9340000000084,completion,,,172871,172869,170428.389,170443.69999999972,170445.066,172880.019,,grey
Frame,canvas.Frame,2_31,2022-06-10T16:10:18.353Z,,,0,V,2426.033999999636,,,,172871.2999999998,172871.09999999963,170428.389,170442.69999999972,170445.066,172880.019,,grey
Fixation,canvas.Screen,2_32_0_0,2022-06-10T16:10:20.465Z,,,1,AV,2117.988000000012,timeout,,,174983.3999999999,174981.33,172863.342,172872.59999999963,172880.019,174998.007,,grey
Stimulus,canvas.Screen,2_32_0_1,2022-06-10T16:10:20.565Z,,,1,AV,99.98699999999371,timeout,,,175083,175081.318,174981.33,174983.69999999972,174998.007,175097.994,,grey
Reaction,canvas.Screen,2_32_0_2,2022-06-10T16:10:20.688Z,,,1,AV,105.90599999990081,response,stim_detected,mousedown,175205.5,175203.8999999999,175081.318,175083.3999999999,175097.994,175214.882,,grey
Trial,flow.Sequence,2_32_0,2022-06-10T16:10:20.688Z,,,1,AV,2323.8809999999066,completion,,,175206,175203.8999999999,172863.342,172872.5,172880.019,175214.882,,grey
Frame,canvas.Frame,2_32,2022-06-10T16:10:20.689Z,,,1,AV,2326.0809999996272,,,,175206.5,175206.09999999963,172863.342,172871.5,172880.019,175214.882,,grey
Fixation,canvas.Screen,2_33_0_0,2022-06-10T16:10:23.083Z,,,1,A,2401.8039999999746,timeout,,,177601.19999999972,177600.007,175198.205,175208,175214.882,177616.686,,black
Stimulus,canvas.Screen,2_33_0_1,2022-06-10T16:10:23.182Z,,,1,A,99.08200000002398,timeout,,,177700.3999999999,177699.096,177600.007,177601.3999999999,177616.686,177715.768,,black
Reaction,canvas.Screen,2_33_0_2,2022-06-10T16:10:23.308Z,,,1,A,108.03199999980279,response,stim_detected,mousedown,177825.5,177823.7999999998,177699.096,177700.69999999972,177715.768,177833.264,,black
Trial,flow.Sequence,2_33_0,2022-06-10T16:10:23.308Z,,,1,A,2608.9179999998014,completion,,,177826,177823.7999999998,175198.205,175207.8999999999,175214.882,177833.264,,black
Frame,canvas.Frame,2_33,2022-06-10T16:10:23.309Z,,,1,A,2611.4179999998014,,,,177826.3999999999,177826.2999999998,175198.205,175206.7999999998,175214.882,177833.264,,black
Fixation,canvas.Screen,2_34_0_0,2022-06-10T16:10:25.369Z,,,1,A,2069.0320000000065,timeout,,,179887.19999999972,179885.611,177816.587,177827.7999999998,177833.264,179902.296,,black
Stimulus,canvas.Screen,2_34_0_1,2022-06-10T16:10:25.467Z,,,1,A,98.6030000000028,timeout,,,179985.19999999972,179984.226,179885.611,179887.5,179902.296,180000.899,,black
Reaction,canvas.Screen,2_34_0_2,2022-06-10T16:10:25.713Z,,,1,A,228.90099999980885,response,stim_detected,mousedown,180231.3999999999,180229.7999999998,179984.226,179985.59999999963,180000.899,180234.844,,black
Trial,flow.Sequence,2_34_0,2022-06-10T16:10:25.714Z,,,1,A,2396.535999999818,completion,,,180232,180229.7999999998,177816.587,177827.69999999972,177833.264,180234.844,,black
Frame,canvas.Frame,2_34,2022-06-10T16:10:25.714Z,,,1,A,2398.835999999632,,,,180232.2999999998,180232.09999999963,177816.587,177826.7999999998,177833.264,180234.844,,black
Fixation,canvas.Screen,2_35_0_0,2022-06-10T16:10:27.420Z,,,0,V,1718.4639999999781,timeout,,,181938.19999999972,181936.625,180218.167,180233.69999999972,180234.844,181953.308,,grey
Stimulus,canvas.Screen,2_35_0_1,2022-06-10T16:10:27.519Z,,,0,V,99.3530000000028,timeout,,,182037.09999999963,182035.985,181936.625,181938.5,181953.308,182052.661,,grey
Reaction,canvas.Screen,2_35_0_2,2022-06-10T16:10:27.656Z,,,0,V,120.13899999982095,response,stim_detected,mousedown,182174.2999999998,182172.7999999998,182035.985,182037.5,182052.661,182186.129,,grey
Trial,flow.Sequence,2_35_0,2022-06-10T16:10:27.657Z,,,0,V,1937.9559999998019,completion,,,182174.69999999972,182172.7999999998,180218.167,180233.5,180234.844,182186.129,,grey
Frame,canvas.Frame,2_35,2022-06-10T16:10:27.657Z,,,0,V,1940.1559999999881,,,,182175.19999999972,182175,180218.167,180232.59999999963,180234.844,182186.129,,grey
Fixation,canvas.Screen,2_36_0_0,2022-06-10T16:10:29.705Z,,,1,AV,2052.293000000005,timeout,,,184223.2999999998,184221.737,182169.452,182176.5,182186.129,184238.422,,grey
Stimulus,canvas.Screen,2_36_0_1,2022-06-10T16:10:29.803Z,,,1,AV,98.66500000000815,timeout,,,184321.2999999998,184320.414,184221.737,184223.59999999963,184238.422,184337.087,,grey
Reaction,canvas.Screen,2_36_0_2,2022-06-10T16:10:29.939Z,,,1,AV,118.7129999998142,response,stim_detected,mousedown,184457.3999999999,184455.7999999998,184320.414,184321.59999999963,184337.087,184470.983,,grey
Trial,flow.Sequence,2_36_0,2022-06-10T16:10:29.940Z,,,1,AV,2269.6709999998275,completion,,,184457.7999999998,184455.7999999998,182169.452,182176.2999999998,182186.129,184470.983,,grey
Frame,canvas.Frame,2_36,2022-06-10T16:10:29.940Z,,,1,AV,2271.970999999641,,,,184458.19999999972,184458.09999999963,182169.452,182175.3999999999,182186.129,184470.983,,grey
Fixation,canvas.Screen,2_37_0_0,2022-06-10T16:10:32.074Z,,,1,A,2135.3619999999937,timeout,,,186591.3999999999,186589.663,184454.306,184459.3999999999,184470.983,186606.345,,black
Stimulus,canvas.Screen,2_37_0_1,2022-06-10T16:10:32.172Z,,,1,A,99.43299999998999,timeout,,,186690,186689.101,186589.663,186591.69999999972,186606.345,186705.778,,black
Reaction,canvas.Screen,2_37_0_2,2022-06-10T16:10:32.340Z,,,1,A,150.82199999963632,response,stim_detected,mousedown,186858.09999999963,186856.59999999963,186689.101,186690.19999999972,186705.778,186872.532,,black
Trial,flow.Sequence,2_37_0,2022-06-10T16:10:32.341Z,,,1,A,2385.61699999962,completion,,,186858.59999999963,186856.59999999963,184454.306,184459.2999999998,184470.983,186872.532,,black
Frame,canvas.Frame,2_37,2022-06-10T16:10:32.341Z,,,1,A,2387.716999999713,,,,186858.8999999999,186858.69999999972,184454.306,184458.3999999999,184470.983,186872.532,,black
Fixation,canvas.Screen,2_38_0_0,2022-06-10T16:10:34.726Z,,,1,AV,2385.889999999985,timeout,,,189243.59999999963,189241.738,186855.856,186859.8999999999,186872.532,189258.422,,grey
Stimulus,canvas.Screen,2_38_0_1,2022-06-10T16:10:34.824Z,,,1,AV,98.9539999999979,timeout,,,189341.8999999999,189340.7,189241.738,189243.8999999999,189258.422,189357.376,,grey
Reaction,canvas.Screen,2_38_0_2,2022-06-10T16:10:34.953Z,,,1,AV,112.32399999973131,response,stim_detected,mousedown,189471.19999999972,189469.69999999972,189340.7,189342.09999999963,189357.376,189474.262,,grey
Trial,flow.Sequence,2_38_0,2022-06-10T16:10:34.954Z,,,1,AV,2597.167999999714,completion,,,189471.69999999972,189469.69999999972,186855.856,186859.7999999998,186872.532,189474.262,,grey
Frame,canvas.Frame,2_38,2022-06-10T16:10:34.954Z,,,1,AV,2599.267999999807,,,,189471.8999999999,189471.7999999998,186855.856,186859.09999999963,186872.532,189474.262,,grey
Fixation,canvas.Screen,2_39_0_0,2022-06-10T16:10:37.260Z,,,1,AV,2319.1600000000035,timeout,,,191777.69999999972,191776.738,189457.585,189473.09999999963,189474.262,191793.422,,grey
Stimulus,canvas.Screen,2_39_0_1,2022-06-10T16:10:37.360Z,,,1,AV,99.20800000001327,timeout,,,191877.69999999972,191875.951,191776.738,191778,191793.422,191892.63,,grey
Reaction,canvas.Screen,2_39_0_2,2022-06-10T16:10:37.515Z,,,1,AV,138.96999999962281,response,stim_detected,mousedown,192033.09999999963,192031.59999999963,191875.951,191878,191892.63,192042.649,,grey
Trial,flow.Sequence,2_39_0,2022-06-10T16:10:37.516Z,,,1,AV,2557.3379999996396,completion,,,192033.5,192031.59999999963,189457.585,189473,189474.262,192042.649,,grey
Frame,canvas.Frame,2_39,2022-06-10T16:10:37.516Z,,,1,AV,2559.4379999997327,,,,192033.8999999999,192033.69999999972,189457.585,189472.19999999972,189474.262,192042.649,,grey
Fixation,canvas.Screen,2_40_0_0,2022-06-10T16:10:39.745Z,,,1,AV,2235.3150000000023,timeout,,,194262.7999999998,194261.283,192025.972,192035.09999999963,192042.649,194277.964,,grey
Stimulus,canvas.Screen,2_40_0_1,2022-06-10T16:10:39.845Z,,,1,AV,99.6019999999844,timeout,,,194362.5,194360.889,194261.283,194263,194277.964,194377.566,,grey
Reaction,canvas.Screen,2_40_0_2,2022-06-10T16:10:39.962Z,,,1,AV,101.13399999972899,response,stim_detected,mousedown,194480.19999999972,194478.69999999972,194360.889,194362.69999999972,194377.566,194494.292,,grey
Trial,flow.Sequence,2_40_0,2022-06-10T16:10:39.963Z,,,1,AV,2436.0509999997157,completion,,,194480.69999999972,194478.69999999972,192025.972,192035.09999999963,192042.649,194494.292,,grey
Frame,canvas.Frame,2_40,2022-06-10T16:10:39.963Z,,,1,AV,2438.150999999809,,,,194481.09999999963,194480.7999999998,192025.972,192034.19999999972,192042.649,194494.292,,grey
Fixation,canvas.Screen,2_41_0_0,2022-06-10T16:10:41.962Z,,,1,A,2000.7260000000242,timeout,,,196479.7999999998,196478.345,194477.615,194482.2999999998,194494.292,196495.018,,black
Stimulus,canvas.Screen,2_41_0_1,2022-06-10T16:10:42.063Z,,,1,A,100.6699999999837,timeout,,,196580.8999999999,196579.009,196478.345,196480.2999999998,196495.018,196595.688,,black
Reaction,canvas.Screen,2_41_0_2,2022-06-10T16:10:42.191Z,,,1,A,111.81200000000536,response,stim_detected,mousedown,196709.09999999963,196707.5,196579.009,196581.19999999972,196595.688,196712.414,,black
Trial,flow.Sequence,2_41_0,2022-06-10T16:10:42.192Z,,,1,A,2213.2080000000133,completion,,,196709.59999999963,196707.5,194477.615,194482.19999999972,194494.292,196712.414,,black
Frame,canvas.Frame,2_41,2022-06-10T16:10:42.192Z,,,1,A,2215.407999999734,,,,196709.8999999999,196709.69999999972,194477.615,194481.19999999972,194494.292,196712.414,,black
Fixation,canvas.Screen,2_42_0_0,2022-06-10T16:10:44.264Z,,,1,A,2084.7670000000217,timeout,,,198781.8999999999,198780.503,196695.737,196711.7999999998,196712.414,198797.181,,black
Stimulus,canvas.Screen,2_42_0_1,2022-06-10T16:10:44.364Z,,,1,A,99.8059999999823,timeout,,,198881.8999999999,198880.311,198780.503,198782.09999999963,198797.181,198896.987,,black
Reaction,canvas.Screen,2_42_0_2,2022-06-10T16:10:44.610Z,,,1,A,229.41299999991315,response,stim_detected,mousedown,199128,199126.3999999999,198880.311,198882.19999999972,198896.987,199130.665,,black
Trial,flow.Sequence,2_42_0,2022-06-10T16:10:44.611Z,,,1,A,2413.985999999917,completion,,,199128.5,199126.3999999999,196695.737,196711.59999999963,196712.414,199130.665,,black
Frame,canvas.Frame,2_42,2022-06-10T16:10:44.611Z,,,1,A,2416.285999999731,,,,199128.8999999999,199128.69999999972,196695.737,196710.3999999999,196712.414,199130.665,,black
Fixation,canvas.Screen,2_43_0_0,2022-06-10T16:10:46.766Z,,,1,AV,2168.603999999992,timeout,,,201284,201282.588,199113.988,199130.19999999972,199130.665,201299.269,,grey
Stimulus,canvas.Screen,2_43_0_1,2022-06-10T16:10:46.865Z,,,1,AV,99.54199999998673,timeout,,,201383.09999999963,201382.134,201282.588,201284.19999999972,201299.269,201398.811,,grey
Reaction,canvas.Screen,2_43_0_2,2022-06-10T16:10:46.996Z,,,1,AV,113.5889999999199,response,stim_detected,mousedown,201514,201512.3999999999,201382.134,201383.5,201398.811,201532.278,,grey
Trial,flow.Sequence,2_43_0,2022-06-10T16:10:46.997Z,,,1,AV,2381.7349999998987,completion,,,201514.3999999999,201512.3999999999,199113.988,199130.09999999963,199130.665,201532.278,,grey
Frame,canvas.Frame,2_43,2022-06-10T16:10:46.997Z,,,1,AV,2383.9349999996193,,,,201514.69999999972,201514.59999999963,199113.988,199129.09999999963,199130.665,201532.278,,grey
Fixation,canvas.Screen,2_44_0_0,2022-06-10T16:10:49.166Z,,,0,V,2166.7419999999984,timeout,,,203684.09999999963,203682.352,201515.601,201516,201532.278,203699.02,,grey
Stimulus,canvas.Screen,2_44_0_1,2022-06-10T16:10:49.267Z,,,0,V,101.1590000000142,timeout,,,203785.09999999963,203783.503,203682.352,203684.2999999998,203699.02,203800.179,,grey
Reaction,canvas.Screen,2_44_0_2,2022-06-10T16:10:49.519Z,,,0,V,235.22099999990314,response,stim_detected,mousedown,204037.09999999963,204035.3999999999,203783.503,203785.5,203800.179,204050.564,,grey
Trial,flow.Sequence,2_44_0,2022-06-10T16:10:49.520Z,,,0,V,2503.1219999999157,completion,,,204037.5,204035.3999999999,201515.601,201515.7999999998,201532.278,204050.564,,grey
Frame,canvas.Frame,2_44,2022-06-10T16:10:49.520Z,,,0,V,2505.4219999997295,,,,204038,204037.69999999972,201515.601,201514.8999999999,201532.278,204050.564,,grey
Fixation,canvas.Screen,2_45_0_0,2022-06-10T16:10:51.453Z,,,1,A,1935.5329999999958,timeout,,,205971.09999999963,205969.412,204033.887,204039.2999999998,204050.564,205986.097,,black
Stimulus,canvas.Screen,2_45_0_1,2022-06-10T16:10:51.552Z,,,1,A,99.18499999999767,timeout,,,206070.19999999972,206068.46,205969.412,205971.3999999999,205986.097,206085.282,,black
Reaction,canvas.Screen,2_45_0_2,2022-06-10T16:10:51.857Z,,,1,A,288.11799999990035,response,stim_detected,mousedown,206374.8999999999,206373.3999999999,206068.46,206070.3999999999,206085.282,206402.145,,black
Trial,flow.Sequence,2_45_0,2022-06-10T16:10:51.857Z,,,1,A,2322.835999999894,completion,,,206375.2999999998,206373.3999999999,204033.887,204039.19999999972,204050.564,206402.145,,black
Frame,canvas.Frame,2_45,2022-06-10T16:10:51.858Z,,,1,A,2324.835999999894,,,,206375.59999999963,206375.3999999999,204033.887,204038.2999999998,204050.564,206402.145,,black
Fixation,canvas.Screen,2_46_0_0,2022-06-10T16:10:53.971Z,,,1,A,2101.1760000000068,timeout,,,208489,208486.645,206368.791,206377.09999999963,206402.145,208503.321,,black
Stimulus,canvas.Screen,2_46_0_1,2022-06-10T16:10:54.070Z,,,1,A,100.17699999999604,timeout,,,208588.2999999998,208586.822,208486.645,208489.3999999999,208503.321,208603.498,,black
Reaction,canvas.Screen,2_46_0_2,2022-06-10T16:10:54.217Z,,,1,A,129.80199999982142,response,stim_detected,mousedown,208734.8999999999,208733.2999999998,208586.822,208588.59999999963,208603.498,208737.017,,black
Trial,flow.Sequence,2_46_0,2022-06-10T16:10:54.217Z,,,1,A,2331.154999999824,completion,,,208735.2999999998,208733.2999999998,206368.791,206377,206402.145,208737.017,,black
Frame,canvas.Frame,2_46,2022-06-10T16:10:54.218Z,,,1,A,2333.2549999999173,,,,208735.7999999998,208735.3999999999,206368.791,206375.8999999999,206402.145,208737.017,,black
Fixation,canvas.Screen,2_47_0_0,2022-06-10T16:10:56.122Z,,,1,A,1918.366000000009,timeout,,,210640.2999999998,210638.702,208720.34,208737.09999999963,208737.017,210655.383,,black
Stimulus,canvas.Screen,2_47_0_1,2022-06-10T16:10:56.221Z,,,1,A,99.5109999999986,timeout,,,210739.2999999998,210738.218,210638.702,210640.59999999963,210655.383,210754.894,,black
Reaction,canvas.Screen,2_47_0_2,2022-06-10T16:10:56.382Z,,,1,A,143.4059999998135,response,stim_detected,mousedown,210899.7999999998,210898.2999999998,210738.218,210739.5,210754.894,210905.114,,black
Trial,flow.Sequence,2_47_0,2022-06-10T16:10:56.382Z,,,1,A,2161.282999999821,completion,,,210900.19999999972,210898.2999999998,208720.34,208737,208737.017,210905.114,,black
Frame,canvas.Frame,2_47,2022-06-10T16:10:56.383Z,,,1,A,2163.3829999999143,,,,210900.59999999963,210900.3999999999,208720.34,208736,208737.017,210905.114,,black
Fixation,canvas.Screen,2_48_0_0,2022-06-10T16:10:58.607Z,,,1,A,2234.5840000000026,timeout,,,213124.5,213123.022,210888.437,210902,210905.114,213139.698,,black
Stimulus,canvas.Screen,2_48_0_1,2022-06-10T16:10:58.706Z,,,1,A,99.61699999999837,timeout,,,213223.7999999998,213222.642,213123.022,213125.59999999963,213139.698,213239.315,,black
Reaction,canvas.Screen,2_48_0_2,2022-06-10T16:10:58.840Z,,,1,A,116.88499999971827,response,stim_detected,mousedown,213357.69999999972,213356.19999999972,213222.642,213224,213239.315,213373.408,,black
Trial,flow.Sequence,2_48_0,2022-06-10T16:10:58.840Z,,,1,A,2451.085999999719,completion,,,213358.19999999972,213356.19999999972,210888.437,210901.7999999998,210905.114,213373.408,,black
Frame,canvas.Frame,2_48,2022-06-10T16:10:58.840Z,,,1,A,2453.1859999998123,,,,213358.3999999999,213358.2999999998,210888.437,210900.7999999998,210905.114,213373.408,,black
Fixation,canvas.Screen,2_49_0_0,2022-06-10T16:11:00.358Z,,,1,A,1517.0940000000119,timeout,,,214875.5,214873.83,213356.731,213359.5,213373.408,214890.502,,black
Stimulus,canvas.Screen,2_49_0_1,2022-06-10T16:11:00.458Z,,,1,A,100.74799999999232,timeout,,,214975.5,214974.568,214873.83,214875.7999999998,214890.502,214991.25,,black
Reaction,canvas.Screen,2_49_0_2,2022-06-10T16:11:00.687Z,,,1,A,211.84999999962747,response,stim_detected,mousedown,215204.69999999972,215203.09999999963,214974.568,214976.19999999972,214991.25,215207.965,,black
Trial,flow.Sequence,2_49_0,2022-06-10T16:11:00.687Z,,,1,A,1829.6919999996317,completion,,,215205.09999999963,215203.09999999963,213356.731,213359.3999999999,213373.408,215207.965,,black
Frame,canvas.Frame,2_49,2022-06-10T16:11:00.687Z,,,1,A,1831.7919999997248,,,,215205.3999999999,215205.19999999972,213356.731,213358.59999999963,213373.408,215207.965,,black
Fixation,canvas.Screen,2_50_0_0,2022-06-10T16:11:02.877Z,,,0,V,2200.785999999993,timeout,,,217393.59999999963,217392.078,215191.288,215206.7999999998,215207.965,217408.751,,grey
Stimulus,canvas.Screen,2_50_0_1,2022-06-10T16:11:02.978Z,,,0,V,100.762000000017,timeout,,,217494.69999999972,217492.835,217392.078,217393.8999999999,217408.751,217509.513,,grey
Reaction,canvas.Screen,2_50_0_2,2022-06-10T16:11:03.134Z,,,0,V,139.58699999962118,response,stim_detected,mousedown,217650.69999999972,217649.09999999963,217492.835,217494.8999999999,217509.513,217659.589,,grey
Trial,flow.Sequence,2_50_0,2022-06-10T16:11:03.134Z,,,0,V,2441.134999999631,completion,,,217651.09999999963,217649.09999999963,215191.288,215206.7999999998,215207.965,217659.589,,grey
Frame,canvas.Frame,2_50,2022-06-10T16:11:03.134Z,,,0,V,2443.234999999724,,,,217651.2999999998,217651.19999999972,215191.288,215205.5,215207.965,217659.589,,grey
Fixation,canvas.Screen,2_51_0_0,2022-06-10T16:11:04.895Z,,,1,AV,1767.6449999999895,timeout,,,219411.7999999998,219410.558,217642.912,217652.5,217659.589,219427.234,,grey
Stimulus,canvas.Screen,2_51_0_1,2022-06-10T16:11:04.995Z,,,1,AV,100.11600000000908,timeout,,,219511.69999999972,219510.674,219410.558,219412.09999999963,219427.234,219527.35,,grey
Reaction,canvas.Screen,2_51_0_2,2022-06-10T16:11:05.133Z,,,1,AV,120.74999999962165,response,stim_detected,mousedown,219649.59999999963,219648.09999999963,219510.674,219511.8999999999,219527.35,219660.91,,grey
Trial,flow.Sequence,2_51_0,2022-06-10T16:11:05.133Z,,,1,AV,1988.5109999996203,completion,,,219650.09999999963,219648.09999999963,217642.912,217652.3999999999,217659.589,219660.91,,grey
Frame,canvas.Frame,2_51,2022-06-10T16:11:05.133Z,,,1,AV,1990.5109999996203,,,,219650.2999999998,219650.09999999963,217642.912,217651.59999999963,217659.589,219660.91,,grey
Fixation,canvas.Screen,2_52_0_0,2022-06-10T16:11:07.063Z,,,0,V,1934.4029999999912,timeout,,,221579.7999999998,221578.637,219644.233,219651.59999999963,219660.91,221595.313,,grey
Stimulus,canvas.Screen,2_52_0_1,2022-06-10T16:11:07.163Z,,,0,V,100.28299999999581,timeout,,,221679.7999999998,221678.372,221578.637,221580,221595.313,221695.596,,grey
Reaction,canvas.Screen,2_52_0_2,2022-06-10T16:11:07.360Z,,,0,V,179.50399999963702,response,stim_detected,mousedown,221876.7999999998,221875.09999999963,221678.372,221680,221695.596,221879.043,,grey
Trial,flow.Sequence,2_52_0,2022-06-10T16:11:07.360Z,,,0,V,2214.189999999624,completion,,,221877.2999999998,221875.09999999963,219644.233,219651.5,219660.91,221879.043,,grey
Frame,canvas.Frame,2_52,2022-06-10T16:11:07.361Z,,,0,V,2216.5899999999965,,,,221877.59999999963,221877.5,219644.233,219650.5,219660.91,221879.043,,grey
Fixation,canvas.Screen,2_53_0_0,2022-06-10T16:11:09.114Z,,,1,A,1767.6559999999881,timeout,,,223631,223630.023,221862.366,221878.7999999998,221879.043,223646.699,,black
Stimulus,canvas.Screen,2_53_0_1,2022-06-10T16:11:09.215Z,,,1,A,100.05800000001909,timeout,,,223731.8999999999,223730.081,223630.023,223631.19999999972,223646.699,223746.757,,black
Reaction,canvas.Screen,2_53_0_2,2022-06-10T16:11:09.604Z,,,1,A,372.34299999961513,response,stim_detected,mousedown,224120.59999999963,224119.09999999963,223730.081,223732.09999999963,223746.757,224147.151,,black
Trial,flow.Sequence,2_53_0,2022-06-10T16:11:09.604Z,,,1,A,2240.0569999996223,completion,,,224120.8999999999,224119.09999999963,221862.366,221878.69999999972,221879.043,224147.151,,black
Frame,canvas.Frame,2_53,2022-06-10T16:11:09.604Z,,,1,A,2242.0569999996223,,,,224121.19999999972,224121.09999999963,221862.366,221877.7999999998,221879.043,224147.151,,black
Fixation,canvas.Screen,2_54_0_0,2022-06-10T16:11:11.884Z,,,1,A,2269.2219999999797,timeout,,,226401.09999999963,226399.688,224113.797,224122.3999999999,224147.151,226416.373,,black
Stimulus,canvas.Screen,2_54_0_1,2022-06-10T16:11:11.983Z,,,1,A,98.88300000000163,timeout,,,226499.59999999963,226498.58,226399.688,226401.5,226416.373,226515.256,,black
Reaction,canvas.Screen,2_54_0_2,2022-06-10T16:11:12.127Z,,,1,A,127.54399999981979,response,stim_detected,mousedown,226643.7999999998,226642.7999999998,226498.58,226499.69999999972,226515.256,226648.777,,black
Trial,flow.Sequence,2_54_0,2022-06-10T16:11:12.127Z,,,1,A,2495.648999999801,completion,,,226644,226642.7999999998,224113.797,224122.2999999998,224147.151,226648.777,,black
Frame,canvas.Frame,2_54,2022-06-10T16:11:12.127Z,,,1,A,2496.948999999615,,,,226644.09999999963,226644.09999999963,224113.797,224121.5,224147.151,226648.777,,black
Fixation,canvas.Screen,2_55_0_0,2022-06-10T16:11:14.068Z,,,1,AV,1951.2220000000088,timeout,,,228585,228583.322,226632.101,226644.69999999972,226648.777,228599.999,,grey
Stimulus,canvas.Screen,2_55_0_1,2022-06-10T16:11:14.168Z,,,1,AV,100.16199999998207,timeout,,,228685.09999999963,228683.484,228583.322,228585.19999999972,228599.999,228700.161,,grey
Reaction,canvas.Screen,2_55_0_2,2022-06-10T16:11:14.312Z,,,1,AV,126.83900000000722,response,stim_detected,mousedown,228829,228827,228683.484,228685.2999999998,228700.161,228833.642,,grey
Trial,flow.Sequence,2_55_0,2022-06-10T16:11:14.313Z,,,1,AV,2178.222999999998,completion,,,228829.3999999999,228827,226632.101,226644.5,226648.777,228833.642,,grey
Frame,canvas.Frame,2_55,2022-06-10T16:11:14.313Z,,,1,AV,2180.8229999996256,,,,228829.69999999972,228829.59999999963,226632.101,226644.19999999972,226648.777,228833.642,,grey
Fixation,canvas.Screen,2_56_0_0,2022-06-10T16:11:16.586Z,,,1,AV,2284.6020000000135,timeout,,,231103.19999999972,231101.568,228816.964,228831,228833.642,231118.244,,grey
Stimulus,canvas.Screen,2_56_0_1,2022-06-10T16:11:16.686Z,,,1,AV,99.9309999999823,timeout,,,231203.2999999998,231201.5,231101.568,231103.3999999999,231118.244,231218.175,,grey
Reaction,canvas.Screen,2_56_0_2,2022-06-10T16:11:16.829Z,,,1,AV,125.72499999991851,response,stim_detected,mousedown,231345.59999999963,231343.8999999999,231201.5,231203.5,231218.175,231351.952,,grey
Trial,flow.Sequence,2_56_0,2022-06-10T16:11:16.829Z,,,1,AV,2510.2579999999143,completion,,,231346,231343.8999999999,228816.964,228830.8999999999,228833.642,231351.952,,grey
Frame,canvas.Frame,2_56,2022-06-10T16:11:16.829Z,,,1,AV,2512.557999999728,,,,231346.2999999998,231346.19999999972,228816.964,228830,228833.642,231351.952,,grey
Fixation,canvas.Screen,2_57_0_0,2022-06-10T16:11:18.420Z,,,0,V,1600.6760000000068,timeout,,,232937.2999999998,232935.954,231335.275,231347.5,231351.952,232952.628,,grey
Stimulus,canvas.Screen,2_57_0_1,2022-06-10T16:11:18.521Z,,,0,V,100.48600000000442,timeout,,,233038.19999999972,233036.435,232935.954,232937.5,232952.628,233053.114,,grey
Reaction,canvas.Screen,2_57_0_2,2022-06-10T16:11:18.676Z,,,0,V,138.78599999990547,response,stim_detected,mousedown,233193.3999999999,233191.8999999999,233036.435,233038.3999999999,233053.114,233203.205,,grey
Trial,flow.Sequence,2_57_0,2022-06-10T16:11:18.677Z,,,0,V,1839.9479999999166,completion,,,233193.7999999998,233191.8999999999,231335.275,231347.3999999999,231351.952,233203.205,,grey
Frame,canvas.Frame,2_57,2022-06-10T16:11:18.677Z,,,0,V,1841.9479999999166,,,,233194,233193.8999999999,231335.275,231346.5,231351.952,233203.205,,grey
Fixation,canvas.Screen,2_58_0_0,2022-06-10T16:11:21.021Z,,,1,AV,2350.536000000022,timeout,,,235538.3999999999,235537.07,233186.528,233195.3999999999,233203.205,235553.741,,grey
Stimulus,canvas.Screen,2_58_0_1,2022-06-10T16:11:21.122Z,,,1,AV,101.07499999998254,timeout,,,235639.2999999998,235638.139,235537.07,235538.59999999963,235553.741,235654.816,,grey
Reaction,canvas.Screen,2_58_0_2,2022-06-10T16:11:21.256Z,,,1,AV,117.08399999991525,response,stim_detected,mousedown,235773.3999999999,235771.8999999999,235638.139,235639.5,235654.816,235788.199,,grey
Trial,flow.Sequence,2_58_0,2022-06-10T16:11:21.257Z,,,1,AV,2568.6949999999197,completion,,,235773.69999999972,235771.8999999999,233186.528,233195.2999999998,233203.205,235788.199,,grey
Frame,canvas.Frame,2_58,2022-06-10T16:11:21.257Z,,,1,AV,2570.6949999999197,,,,235774,235773.8999999999,233186.528,233194.19999999972,233203.205,235788.199,,grey
Fixation,canvas.Screen,2_59_0_0,2022-06-10T16:11:23.142Z,,,1,AV,1885.3450000000012,timeout,,,237658.3999999999,237656.86,235771.522,235775.5,235788.199,237673.544,,grey
Stimulus,canvas.Screen,2_59_0_1,2022-06-10T16:11:23.241Z,,,1,AV,99.34900000001653,timeout,,,237757.5,237756.216,237656.86,237658.69999999972,237673.544,237772.893,,grey
Reaction,canvas.Screen,2_59_0_2,2022-06-10T16:11:23.388Z,,,1,AV,131.00699999989592,response,stim_detected,mousedown,237905.2999999998,237903.8999999999,237756.216,237757.8999999999,237772.893,237922.934,,grey
Trial,flow.Sequence,2_59_0,2022-06-10T16:11:23.389Z,,,1,AV,2115.7009999999136,completion,,,237905.7999999998,237903.8999999999,235771.522,235775.3999999999,235788.199,237922.934,,grey
Frame,canvas.Frame,2_59,2022-06-10T16:11:23.389Z,,,1,AV,2117.7009999999136,,,,237906.09999999963,237905.8999999999,235771.522,235774.2999999998,235788.199,237922.934,,grey
Fixation,canvas.Screen,2_60_0_0,2022-06-10T16:11:25.177Z,,,1,AV,1785.7509999999893,timeout,,,239693.3999999999,239691.997,237906.258,237907.09999999963,237922.934,239708.685,,grey
Stimulus,canvas.Screen,2_60_0_1,2022-06-10T16:11:25.275Z,,,1,AV,98.27900000000955,timeout,,,239791.59999999963,239790.292,239691.997,239693.69999999972,239708.685,239806.964,,grey
Reaction,canvas.Screen,2_60_0_2,2022-06-10T16:11:25.395Z,,,1,AV,102.93599999989965,response,stim_detected,mousedown,239911.3999999999,239909.8999999999,239790.292,239791.7999999998,239806.964,239924.247,,grey
Trial,flow.Sequence,2_60_0,2022-06-10T16:11:25.395Z,,,1,AV,1986.9659999998985,completion,,,239911.7999999998,239909.8999999999,237906.258,237907.09999999963,237922.934,239924.247,,grey
Frame,canvas.Frame,2_60,2022-06-10T16:11:25.395Z,,,1,AV,1988.9659999998985,,,,239912.09999999963,239911.8999999999,237906.258,237906.2999999998,237922.934,239924.247,,grey
Fixation,canvas.Screen,2_61_0_0,2022-06-10T16:11:27.745Z,,,1,AV,2352.6779999999853,timeout,,,242261.7999999998,242260.24,239907.57,239913.19999999972,239924.247,242276.925,,grey
Stimulus,canvas.Screen,2_61_0_1,2022-06-10T16:11:27.844Z,,,1,AV,98.93900000001304,timeout,,,242360.69999999972,242359.187,242260.24,242261.8999999999,242276.925,242375.864,,grey
Reaction,canvas.Screen,2_61_0_2,2022-06-10T16:11:27.962Z,,,1,AV,101.8359999997192,response,stim_detected,mousedown,242479.19999999972,242477.69999999972,242359.187,242360.8999999999,242375.864,242492.64,,grey
Trial,flow.Sequence,2_61_0,2022-06-10T16:11:27.963Z,,,1,AV,2553.4529999997176,completion,,,242479.59999999963,242477.69999999972,239907.57,239913.09999999963,239924.247,242492.64,,grey
Frame,canvas.Frame,2_61,2022-06-10T16:11:27.963Z,,,1,AV,2555.4529999997176,,,,242479.8999999999,242479.69999999972,239907.57,239912.2999999998,239924.247,242492.64,,grey
Fixation,canvas.Screen,2_62_0_0,2022-06-10T16:11:29.896Z,,,1,AV,1934.8959999999788,timeout,,,244412.69999999972,244410.856,242475.963,242481,242492.64,244427.536,,grey
Stimulus,canvas.Screen,2_62_0_1,2022-06-10T16:11:29.995Z,,,1,AV,99.70100000000093,timeout,,,244511.59999999963,244510.561,244410.856,244412.8999999999,244427.536,244527.237,,grey
Reaction,canvas.Screen,2_62_0_2,2022-06-10T16:11:30.118Z,,,1,AV,106.56299999982002,response,stim_detected,mousedown,244635.19999999972,244633.7999999998,244510.561,244511.8999999999,244527.237,244644.061,,grey
Trial,flow.Sequence,2_62_0,2022-06-10T16:11:30.119Z,,,1,AV,2141.1599999997998,completion,,,244635.5,244633.7999999998,242475.963,242481,242492.64,244644.061,,grey
Frame,canvas.Frame,2_62,2022-06-10T16:11:30.119Z,,,1,AV,2143.0599999997066,,,,244635.7999999998,244635.69999999972,242475.963,242480,242492.64,244644.061,,grey
Fixation,canvas.Screen,2_63_0_0,2022-06-10T16:11:32.297Z,,,1,A,2184.5570000000007,timeout,,,246813.7999999998,246811.942,244627.384,244636.8999999999,244644.061,246828.618,,black
Stimulus,canvas.Screen,2_63_0_1,2022-06-10T16:11:32.397Z,,,1,A,100.30100000000675,timeout,,,246913.7999999998,246912.242,246811.942,246814,246828.618,246928.919,,black
Reaction,canvas.Screen,2_63_0_2,2022-06-10T16:11:32.750Z,,,1,A,336.68099999963306,response,stim_detected,mousedown,247267.19999999972,247265.59999999963,246912.242,246914.09999999963,246928.919,247279.125,,black
Trial,flow.Sequence,2_63_0,2022-06-10T16:11:32.751Z,,,1,A,2621.5389999996405,completion,,,247267.59999999963,247265.59999999963,244627.384,244636.69999999972,244644.061,247279.125,,black
Frame,canvas.Frame,2_63,2022-06-10T16:11:32.751Z,,,1,A,2623.5389999996405,,,,247267.8999999999,247267.59999999963,244627.384,244636,244644.061,247279.125,,black
Fixation,canvas.Screen,2_64_0_0,2022-06-10T16:11:34.414Z,,,1,AV,1667.0920000000042,timeout,,,248930.8999999999,248929.545,247262.448,247269,247279.125,248946.217,,grey
Stimulus,canvas.Screen,2_64_0_1,2022-06-10T16:11:34.515Z,,,1,AV,100.79000000000815,timeout,,,249031.8999999999,249030.329,248929.545,248931.09999999963,248946.217,249047.007,,grey
Reaction,canvas.Screen,2_64_0_2,2022-06-10T16:11:34.671Z,,,1,AV,139.59299999961513,response,stim_detected,mousedown,249188.2999999998,249186.59999999963,249030.329,249032.09999999963,249047.007,249197.053,,grey
Trial,flow.Sequence,2_64_0,2022-06-10T16:11:34.672Z,,,1,AV,1907.4749999996275,completion,,,249188.7999999998,249186.59999999963,247262.448,247269,247279.125,249197.053,,grey
Frame,canvas.Frame,2_64,2022-06-10T16:11:34.672Z,,,1,AV,1909.7749999999069,,,,249189.09999999963,249188.8999999999,247262.448,247268,247279.125,249197.053,,grey
Fixation,canvas.Screen,2_65_0_0,2022-06-10T16:11:37.034Z,,,0,V,2368.9169999999867,timeout,,,251551.09999999963,251549.288,249180.376,249190.2999999998,249197.053,251565.97,,grey
Stimulus,canvas.Screen,2_65_0_1,2022-06-10T16:11:37.132Z,,,0,V,98.82800000000861,timeout,,,251649.2999999998,251648.125,251549.288,251551.2999999998,251565.97,251664.798,,grey
Reaction,canvas.Screen,2_65_0_2,2022-06-10T16:11:37.311Z,,,0,V,161.70199999999022,response,stim_detected,mousedown,251828,251826.5,251648.125,251649.5,251664.798,251832.123,,grey
Trial,flow.Sequence,2_65_0,2022-06-10T16:11:37.311Z,,,0,V,2629.4469999999856,completion,,,251828.3999999999,251826.5,249180.376,249190.19999999972,249197.053,251832.123,,grey
Frame,canvas.Frame,2_65,2022-06-10T16:11:37.312Z,,,0,V,2631.4469999999856,,,,251828.59999999963,251828.5,249180.376,249189.2999999998,249197.053,251832.123,,grey
Fixation,canvas.Screen,2_66_0_0,2022-06-10T16:11:38.868Z,,,0,V,1568.3280000000086,timeout,,,253385.09999999963,253383.767,251815.446,251829.69999999972,251832.123,253400.451,,grey
Stimulus,canvas.Screen,2_66_0_1,2022-06-10T16:11:38.967Z,,,0,V,98.98399999999674,timeout,,,253484,253482.762,253383.767,253385.2999999998,253400.451,253499.435,,grey
Reaction,canvas.Screen,2_66_0_2,2022-06-10T16:11:39.129Z,,,0,V,145.1649999996298,response,stim_detected,mousedown,253646.2999999998,253644.59999999963,253482.762,253484.19999999972,253499.435,253649.989,,grey
Trial,flow.Sequence,2_66_0,2022-06-10T16:11:39.130Z,,,0,V,1812.4769999996352,completion,,,253646.69999999972,253644.59999999963,251815.446,251829.5,251832.123,253649.989,,grey
Frame,canvas.Frame,2_66,2022-06-10T16:11:39.130Z,,,0,V,1814.7769999999146,,,,253647,253646.8999999999,251815.446,251828.7999999998,251832.123,253649.989,,grey
Fixation,canvas.Screen,2_67_0_0,2022-06-10T16:11:41.552Z,,,1,AV,2434.8519999999844,timeout,,,256069.09999999963,256068.164,253633.312,253648.2999999998,253649.989,256084.841,,grey
Stimulus,canvas.Screen,2_67_0_1,2022-06-10T16:11:41.653Z,,,1,AV,100.26400000002468,timeout,,,256170.09999999963,256168.426,256068.164,256069.3999999999,256084.841,256185.105,,grey
Reaction,canvas.Screen,2_67_0_2,2022-06-10T16:11:41.773Z,,,1,AV,103.39499999998952,response,stim_detected,mousedown,256290.09999999963,256288.5,256168.426,256170.2999999998,256185.105,256301.74,,grey
Trial,flow.Sequence,2_67_0,2022-06-10T16:11:41.774Z,,,1,AV,2638.5109999999986,completion,,,256290.5,256288.5,253633.312,253648.09999999963,253649.989,256301.74,,grey
Frame,canvas.Frame,2_67,2022-06-10T16:11:41.774Z,,,1,AV,2640.610999999626,,,,256290.7999999998,256290.59999999963,253633.312,253647.2999999998,253649.989,256301.74,,grey
Fixation,canvas.Screen,2_68_0_0,2022-06-10T16:11:43.354Z,,,0,V,1584.8470000000088,timeout,,,257871.09999999963,257869.905,256285.063,256291.8999999999,256301.74,257886.587,,grey
Stimulus,canvas.Screen,2_68_0_1,2022-06-10T16:11:43.455Z,,,0,V,99.61799999998766,timeout,,,257971.5,257969.528,257869.905,257871.3999999999,257886.587,257986.205,,grey
Reaction,canvas.Screen,2_68_0_2,2022-06-10T16:11:43.739Z,,,0,V,267.4949999997334,response,stim_detected,mousedown,258255.7999999998,258253.69999999972,257969.528,257971.69999999972,257986.205,258269.694,,grey
Trial,flow.Sequence,2_68_0,2022-06-10T16:11:43.739Z,,,0,V,1951.95999999973,completion,,,258256.2999999998,258253.69999999972,256285.063,256291.7999999998,256301.74,258269.694,,grey
Frame,canvas.Frame,2_68,2022-06-10T16:11:43.740Z,,,0,V,1954.7600000000093,,,,258256.69999999972,258256.5,256285.063,256290.8999999999,256301.74,258269.694,,grey
Fixation,canvas.Screen,2_69_0_0,2022-06-10T16:11:46.089Z,,,0,V,2350.997000000003,timeout,,,260605.69999999972,260604.017,258253.018,258257.7999999998,258269.694,260620.691,,grey
Stimulus,canvas.Screen,2_69_0_1,2022-06-10T16:11:46.190Z,,,0,V,100.71100000001024,timeout,,,260706.5,260704.722,260604.017,260606,260620.691,260721.402,,grey
Reaction,canvas.Screen,2_69_0_2,2022-06-10T16:11:46.362Z,,,0,V,155.997999999905,response,stim_detected,mousedown,260878.8999999999,260877.3999999999,260704.722,260706.7999999998,260721.402,260888.075,,grey
Trial,flow.Sequence,2_69_0,2022-06-10T16:11:46.362Z,,,0,V,2607.7059999999183,completion,,,260879.2999999998,260877.3999999999,258253.018,258257.69999999972,258269.694,260888.075,,grey
Frame,canvas.Frame,2_69,2022-06-10T16:11:46.363Z,,,0,V,2609.8060000000114,,,,260879.59999999963,260879.5,258253.018,258256.8999999999,258269.694,260888.075,,grey
Fixation,canvas.Screen,2_70_0_0,2022-06-10T16:11:48.707Z,,,1,AV,2351.6350000000093,timeout,,,263224.3999999999,263223.032,260871.399,260880.7999999998,260888.075,263239.71,,grey
Stimulus,canvas.Screen,2_70_0_1,2022-06-10T16:11:48.808Z,,,1,AV,100.08399999997346,timeout,,,263324.5999999996,263323.115,263223.032,263224.6999999997,263239.71,263339.794,,grey
Reaction,canvas.Screen,2_70_0_2,2022-06-10T16:11:48.938Z,,,1,AV,113.60599999991246,response,stim_detected,mousedown,263455,263453.3999999999,263323.115,263324.7999999998,263339.794,263456.479,,grey
Trial,flow.Sequence,2_70_0,2022-06-10T16:11:48.939Z,,,1,AV,2565.324999999895,completion,,,263455.3999999999,263453.3999999999,260871.399,260880.69999999972,260888.075,263456.479,,grey
Frame,canvas.Frame,2_70,2022-06-10T16:11:48.939Z,,,1,AV,2567.524999999616,,,,263455.7999999998,263455.5999999996,260871.399,260879.8999999999,260888.075,263456.479,,grey
Fixation,canvas.Screen,2_71_0_0,2022-06-10T16:11:51.360Z,,,0,V,2435.316999999981,timeout,,,265876.6999999997,265875.116,263439.802,263457.2999999998,263456.479,265891.796,,grey
Stimulus,canvas.Screen,2_71_0_1,2022-06-10T16:11:51.459Z,,,0,V,99.46199999999953,timeout,,,265976.1999999997,265974.582,265875.116,265876.8999999999,265891.796,265991.258,,grey
Reaction,canvas.Screen,2_71_0_2,2022-06-10T16:11:51.618Z,,,0,V,142.14199999993434,response,stim_detected,mousedown,266135,266133.3999999999,265974.582,265976.5,265991.258,266141.585,,grey
Trial,flow.Sequence,2_71_0,2022-06-10T16:11:51.619Z,,,0,V,2676.920999999915,completion,,,266135.3999999999,266133.3999999999,263439.802,263457.0999999996,263456.479,266141.585,,grey
Frame,canvas.Frame,2_71,2022-06-10T16:11:51.619Z,,,0,V,2679.1209999996354,,,,266135.7999999998,266135.5999999996,263439.802,263456,263456.479,266141.585,,grey
Fixation,canvas.Screen,2_72_0_0,2022-06-10T16:11:53.745Z,,,0,V,2134.945000000007,timeout,,,268261.5999999996,268259.851,266124.908,266137,266141.585,268276.53,,grey
Stimulus,canvas.Screen,2_72_0_1,2022-06-10T16:11:53.844Z,,,0,V,99.92299999995157,timeout,,,268360.7999999998,268359.774,268259.851,268261.7999999998,268276.53,268376.453,,grey
Reaction,canvas.Screen,2_72_0_2,2022-06-10T16:11:53.997Z,,,0,V,135.84699999983422,response,stim_detected,mousedown,268513.7999999998,268512.2999999998,268359.774,268361,268376.453,268526.516,,grey
Trial,flow.Sequence,2_72_0,2022-06-10T16:11:53.997Z,,,0,V,2370.714999999793,completion,,,268514.1999999997,268512.2999999998,266124.908,266136.7999999998,266141.585,268526.516,,grey
Frame,canvas.Frame,2_72,2022-06-10T16:11:53.998Z,,,0,V,2372.714999999793,,,,268514.5999999996,268514.2999999998,266124.908,266135.8999999999,266141.585,268526.516,,grey
Fixation,canvas.Screen,2_73_0_0,2022-06-10T16:11:56.296Z,,,0,V,2301.127999999968,timeout,,,270812.6999999997,270810.969,268509.839,268516,268526.516,270827.644,,grey
Stimulus,canvas.Screen,2_73_0_1,2022-06-10T16:11:56.396Z,,,0,V,100.48800000001211,timeout,,,270912.6999999997,270911.454,270810.969,270812.8999999999,270827.644,270928.132,,grey
Reaction,canvas.Screen,2_73_0_2,2022-06-10T16:11:56.542Z,,,0,V,129.06799999973737,response,stim_detected,mousedown,271058.7999999998,271057.1999999997,270911.454,270912.8999999999,270928.132,271078.186,,grey
Trial,flow.Sequence,2_73_0,2022-06-10T16:11:56.542Z,,,0,V,2530.6839999997173,completion,,,271059.2999999998,271057.1999999997,268509.839,268515.8999999999,268526.516,271078.186,,grey
Frame,canvas.Frame,2_73,2022-06-10T16:11:56.543Z,,,0,V,2532.8839999999036,,,,271059.5,271059.3999999999,268509.839,268514.7999999998,268526.516,271078.186,,grey
Fixation,canvas.Screen,2_74_0_0,2022-06-10T16:11:58.080Z,,,1,AV,1533.8699999999953,timeout,,,272596.7999999998,272595.383,271044.832,271060.6999999997,271078.186,272612.056,,grey
Stimulus,canvas.Screen,2_74_0_1,2022-06-10T16:11:58.181Z,,,1,AV,100.58400000003166,timeout,,,272697.7999999998,272695.961,272595.383,272597.0999999996,272612.056,272712.64,,grey
Reaction,canvas.Screen,2_74_0_2,2022-06-10T16:11:58.313Z,,,1,AV,115.65999999979977,response,stim_detected,mousedown,272829.6999999997,272828.2999999998,272695.961,272698.0999999996,272712.64,272846.051,,grey
Trial,flow.Sequence,2_74_0,2022-06-10T16:11:58.314Z,,,1,AV,1750.1139999998268,completion,,,272830.3999999999,272828.2999999998,271044.832,271060.5999999996,271078.186,272846.051,,grey
Frame,canvas.Frame,2_74,2022-06-10T16:11:58.314Z,,,1,AV,1752.314000000013,,,,272830.6999999997,272830.5,271044.832,271059.6999999997,271078.186,272846.051,,grey
Fixation,canvas.Screen,2_75_0_0,2022-06-10T16:12:00.081Z,,,1,A,1767.2880000000005,timeout,,,274597.7999999998,274596.666,272829.374,272832.5,272846.051,274613.339,,black
Stimulus,canvas.Screen,2_75_0_1,2022-06-10T16:12:00.182Z,,,1,A,100.50400000001537,timeout,,,274698.7999999998,274697.167,274596.666,274598.0999999996,274613.339,274713.843,,black
Reaction,canvas.Screen,2_75_0_2,2022-06-10T16:12:00.367Z,,,1,A,168.256999999634,response,stim_detected,mousedown,274883.6999999997,274882.0999999996,274697.167,274699.0999999996,274713.843,274897.325,,black
Trial,flow.Sequence,2_75_0,2022-06-10T16:12:00.367Z,,,1,A,2036.0489999996498,completion,,,274884.0999999996,274882.0999999996,272829.374,272832.2999999998,272846.051,274897.325,,black
Frame,canvas.Frame,2_75,2022-06-10T16:12:00.368Z,,,1,A,2038.148999999743,,,,274884.5,274884.1999999997,272829.374,272831.2999999998,272846.051,274897.325,,black
Fixation,canvas.Screen,2_76_0_0,2022-06-10T16:12:02.701Z,,,1,A,2335.9809999999707,timeout,,,277218.0999999996,277216.621,274880.649,274885.7999999998,274897.325,277233.306,,black
Stimulus,canvas.Screen,2_76_0_1,2022-06-10T16:12:02.802Z,,,1,A,98.83900000003632,timeout,,,277317,277315.469,277216.621,277218.3999999999,277233.306,277332.145,,black
Reaction,canvas.Screen,2_76_0_2,2022-06-10T16:12:03.040Z,,,1,A,220.95499999960884,response,stim_detected,mousedown,277554.6999999997,277553.0999999996,277315.469,277317.3999999999,277332.145,277565.811,,black
Trial,flow.Sequence,2_76_0,2022-06-10T16:12:03.040Z,,,1,A,2655.774999999616,completion,,,277555.0999999996,277553.0999999996,274880.649,274885.6999999997,274897.325,277565.811,,black
Frame,canvas.Frame,2_76,2022-06-10T16:12:03.041Z,,,1,A,2657.974999999802,,,,277555.5,277555.2999999998,274880.649,274884.6999999997,274897.325,277565.811,,black
Fixation,canvas.Screen,2_77_0_0,2022-06-10T16:12:05.103Z,,,0,V,2067.823000000033,timeout,,,279618,279616.958,277549.134,277556.7999999998,277565.811,279633.634,,grey
Stimulus,canvas.Screen,2_77_0_1,2022-06-10T16:12:05.203Z,,,0,V,100.24099999997998,timeout,,,279718.0999999996,279717.198,279616.958,279618.1999999997,279633.634,279733.875,,grey
Reaction,canvas.Screen,2_77_0_2,2022-06-10T16:12:05.357Z,,,0,V,136.125,response,stim_detected,mousedown,279871.5999999996,279870,279717.198,279718.3999999999,279733.875,279884.027,,grey
Trial,flow.Sequence,2_77_0,2022-06-10T16:12:05.357Z,,,0,V,2304.189000000013,completion,,,279872,279870,277549.134,277556.6999999997,277565.811,279884.027,,grey
Frame,canvas.Frame,2_77,2022-06-10T16:12:05.357Z,,,0,V,2306.3889999997336,,,,279872.3999999999,279872.1999999997,277549.134,277555.7999999998,277565.811,279884.027,,grey
Fixation,canvas.Screen,2_78_0_0,2022-06-10T16:12:06.854Z,,,0,V,1500.4170000000158,timeout,,,281369.0999999996,281367.772,279867.35,279873.6999999997,279884.027,281384.444,,grey
Stimulus,canvas.Screen,2_78_0_1,2022-06-10T16:12:06.954Z,,,0,V,100.60499999998137,timeout,,,281469.1999999997,281468.222,281367.772,281369.3999999999,281384.444,281485.049,,grey
Reaction,canvas.Screen,2_78_0_2,2022-06-10T16:12:07.103Z,,,0,V,131.0509999996284,response,stim_detected,mousedown,281617.5999999996,281616.0999999996,281468.222,281469.3999999999,281485.049,281635.142,,grey
Trial,flow.Sequence,2_78_0,2022-06-10T16:12:07.103Z,,,0,V,1732.0729999996256,completion,,,281618,281616.0999999996,279867.35,279873.5999999996,279884.027,281635.142,,grey
Frame,canvas.Frame,2_78,2022-06-10T16:12:07.103Z,,,0,V,1734.0729999996256,,,,281618.2999999998,281618.0999999996,279867.35,279872.5,279884.027,281635.142,,grey
Fixation,canvas.Screen,2_79_0_0,2022-06-10T16:12:09.190Z,,,0,V,2085.1749999999884,timeout,,,283705.2999999998,283703.636,281618.465,281619.6999999997,281635.142,283720.317,,grey
Stimulus,canvas.Screen,2_79_0_1,2022-06-10T16:12:09.289Z,,,0,V,99.46700000000419,timeout,,,283804.0999999996,283803.108,283703.636,283705.5999999996,283720.317,283819.784,,grey
Reaction,canvas.Screen,2_79_0_2,2022-06-10T16:12:09.455Z,,,0,V,148.11599999992177,response,stim_detected,mousedown,283969.6999999997,283967.8999999999,283803.108,283804.3999999999,283819.784,283986.707,,grey
Trial,flow.Sequence,2_79_0,2022-06-10T16:12:09.455Z,,,0,V,2332.7579999999143,completion,,,283970.1999999997,283967.8999999999,281618.465,281619.5,281635.142,283986.707,,grey
Frame,canvas.Frame,2_79,2022-06-10T16:12:09.456Z,,,0,V,2335.157999999821,,,,283970.5999999996,283970.2999999998,281618.465,281618.5999999996,281635.142,283986.707,,grey
Fixation,canvas.Screen,2_80_0_0,2022-06-10T16:12:11.257Z,,,0,V,1801.375,timeout,,,285772.1999999997,285771.403,283970.03,283971.6999999997,283986.707,285788.082,,grey
Stimulus,canvas.Screen,2_80_0_1,2022-06-10T16:12:11.357Z,,,0,V,99.65399999998044,timeout,,,285872.2999999998,285871.061,285771.403,285772.5,285788.082,285887.736,,grey
Reaction,canvas.Screen,2_80_0_2,2022-06-10T16:12:11.495Z,,,0,V,120.26400000002468,response,stim_detected,mousedown,286009.3999999999,286008,285871.061,285872.5,285887.736,286021.391,,grey
Trial,flow.Sequence,2_80_0,2022-06-10T16:12:11.495Z,,,0,V,2021.2930000000051,completion,,,286009.8999999999,286008,283970.03,283971.6999999997,283986.707,286021.391,,grey
Frame,canvas.Frame,2_80,2022-06-10T16:12:11.495Z,,,0,V,2023.3929999996326,,,,286010.2999999998,286010.0999999996,283970.03,283970.6999999997,283986.707,286021.391,,grey
Fixation,canvas.Screen,2_81_0_0,2022-06-10T16:12:13.141Z,,,1,A,1650.4770000000135,timeout,,,287656.2999999998,287655.196,286004.714,286011.3999999999,286021.391,287671.868,,black
Stimulus,canvas.Screen,2_81_0_1,2022-06-10T16:12:13.243Z,,,1,A,100.76199999998789,timeout,,,287757.3999999999,287755.95,287655.196,287656.5999999996,287671.868,287772.63,,black
Reaction,canvas.Screen,2_81_0_2,2022-06-10T16:12:13.394Z,,,1,A,134.2699999999022,response,stim_detected,mousedown,287908.3999999999,287906.8999999999,287755.95,287757.6999999997,287772.63,287922.6,,black
Trial,flow.Sequence,2_81_0,2022-06-10T16:12:13.394Z,,,1,A,1885.5089999999036,completion,,,287908.7999999998,287906.8999999999,286004.714,286011.3999999999,286021.391,287922.6,,black
Frame,canvas.Frame,2_81,2022-06-10T16:12:13.394Z,,,1,A,1887.5089999999036,,,,287909.0999999996,287908.8999999999,286004.714,286010.5,286021.391,287922.6,,black
Fixation,canvas.Screen,2_82_0_0,2022-06-10T16:12:15.862Z,,,1,A,2469.414000000048,timeout,,,290377.1999999997,290375.329,287905.924,287910.2999999998,287922.6,290392.014,,black
Stimulus,canvas.Screen,2_82_0_1,2022-06-10T16:12:15.961Z,,,1,A,98.33299999998417,timeout,,,290475.6999999997,290473.674,290375.329,290377.5,290392.014,290490.347,,black
Reaction,canvas.Screen,2_82_0_2,2022-06-10T16:12:16.111Z,,,1,A,133.55299999989802,response,stim_detected,mousedown,290625.7999999998,290623.8999999999,290473.674,290476,290490.347,290641.066,,black
Trial,flow.Sequence,2_82_0,2022-06-10T16:12:16.111Z,,,1,A,2701.29999999993,completion,,,290626.1999999997,290623.8999999999,287905.924,287910.1999999997,287922.6,290641.066,,black
Frame,canvas.Frame,2_82,2022-06-10T16:12:16.112Z,,,1,A,2703.699999999837,,,,290626.5,290626.2999999998,287905.924,287909.1999999997,287922.6,290641.066,,black
Fixation,canvas.Screen,2_83_0_0,2022-06-10T16:12:18.263Z,,,0,V,2152.152999999991,timeout,,,292777.5999999996,292776.536,290624.389,290627.5999999996,290641.066,292793.219,,grey
Stimulus,canvas.Screen,2_83_0_1,2022-06-10T16:12:18.363Z,,,0,V,99.36600000003818,timeout,,,292877.5999999996,292875.907,292776.536,292777.8999999999,292793.219,292892.585,,grey
Reaction,canvas.Screen,2_83_0_2,2022-06-10T16:12:18.570Z,,,0,V,190.3149999998859,response,stim_detected,mousedown,293085,293082.8999999999,292875.907,292877.8999999999,292892.585,293092.662,,grey
Trial,flow.Sequence,2_83_0,2022-06-10T16:12:18.571Z,,,0,V,2441.8339999999152,completion,,,293085.3999999999,293082.8999999999,290624.389,290627.5,290641.066,293092.662,,grey
Frame,canvas.Frame,2_83,2022-06-10T16:12:18.571Z,,,0,V,2444.533999999636,,,,293085.6999999997,293085.5999999996,290624.389,290626.6999999997,290641.066,293092.662,,grey
Fixation,canvas.Screen,2_84_0_0,2022-06-10T16:12:20.349Z,,,1,AV,1785.8889999999665,timeout,,,294863.5999999996,294861.861,293075.986,293087,293092.662,294878.551,,grey
Stimulus,canvas.Screen,2_84_0_1,2022-06-10T16:12:20.447Z,,,1,AV,98.66700000001583,timeout,,,294961.5999999996,294960.542,294861.861,294863.8999999999,294878.551,294977.218,,grey
Reaction,canvas.Screen,2_84_0_2,2022-06-10T16:12:20.587Z,,,1,AV,123.68199999991339,response,stim_detected,mousedown,295102.2999999998,295100.8999999999,294960.542,294961.8999999999,294977.218,295110.723,,grey
Trial,flow.Sequence,2_84_0,2022-06-10T16:12:20.588Z,,,1,AV,2008.2379999998957,completion,,,295102.6999999997,295100.8999999999,293075.986,293086.8999999999,293092.662,295110.723,,grey
Frame,canvas.Frame,2_84,2022-06-10T16:12:20.588Z,,,1,AV,2010.2379999998957,,,,295103,295102.8999999999,293075.986,293086,293092.662,295110.723,,grey
Fixation,canvas.Screen,2_85_0_0,2022-06-10T16:12:22.098Z,,,1,AV,1517.1990000000224,timeout,,,296612.5999999996,296611.249,295094.046,295104.1999999997,295110.723,296627.922,,grey
Stimulus,canvas.Screen,2_85_0_1,2022-06-10T16:12:22.198Z,,,1,AV,100.59200000000419,timeout,,,296712.6999999997,296711.834,296611.249,296612.8999999999,296627.922,296728.514,,grey
Reaction,canvas.Screen,2_85_0_2,2022-06-10T16:12:22.377Z,,,1,AV,162.28599999978906,response,stim_detected,mousedown,296892.2999999998,296890.7999999998,296711.834,296713,296728.514,296895.228,,grey
Trial,flow.Sequence,2_85_0,2022-06-10T16:12:22.378Z,,,1,AV,1780.0769999998156,completion,,,296892.5999999996,296890.7999999998,295094.046,295104.0999999996,295110.723,296895.228,,grey
Frame,canvas.Frame,2_85,2022-06-10T16:12:22.378Z,,,1,AV,1782.0769999998156,,,,296892.8999999999,296892.7999999998,295094.046,295103.1999999997,295110.723,296895.228,,grey
Fixation,canvas.Screen,2_86_0_0,2022-06-10T16:12:24.250Z,,,1,A,1884.753000000026,timeout,,,298764.7999999998,298763.302,296878.551,296894,296895.228,298779.981,,black
Stimulus,canvas.Screen,2_86_0_1,2022-06-10T16:12:24.350Z,,,1,A,99.64399999997113,timeout,,,298864.8999999999,298862.95,298763.302,298765,298779.981,298879.625,,black
Reaction,canvas.Screen,2_86_0_2,2022-06-10T16:12:24.483Z,,,1,A,115.97499999962747,response,stim_detected,mousedown,298997.3999999999,298995.5999999996,298862.95,298865.0999999996,298879.625,299013.303,,black
Trial,flow.Sequence,2_86_0,2022-06-10T16:12:24.483Z,,,1,A,2100.3719999996247,completion,,,298997.7999999998,298995.5999999996,296878.551,296893.8999999999,296895.228,299013.303,,black
Frame,canvas.Frame,2_86,2022-06-10T16:12:24.483Z,,,1,A,2102.571999999811,,,,298998.0999999996,298997.7999999998,296878.551,296893.0999999996,296895.228,299013.303,,black
Fixation,canvas.Screen,2_87_0_0,2022-06-10T16:12:26.751Z,,,1,AV,2268.375,timeout,,,301265.8999999999,301264.999,298996.626,298999.6999999997,299013.303,301281.678,,grey
Stimulus,canvas.Screen,2_87_0_1,2022-06-10T16:12:26.850Z,,,1,AV,98.93299999996088,timeout,,,301364.8999999999,301363.94,301264.999,301266.2999999998,301281.678,301380.611,,grey
Reaction,canvas.Screen,2_87_0_2,2022-06-10T16:12:26.964Z,,,1,AV,97.18899999983842,response,stim_detected,mousedown,301479.2999999998,301477.7999999998,301363.94,301365.1999999997,301380.611,301481.571,,grey
Trial,flow.Sequence,2_87_0,2022-06-10T16:12:26.965Z,,,1,AV,2464.4969999997993,completion,,,301479.6999999997,301477.7999999998,298996.626,298999.5999999996,299013.303,301481.571,,grey
Frame,canvas.Frame,2_87,2022-06-10T16:12:26.965Z,,,1,AV,2466.4969999997993,,,,301480.0999999996,301479.7999999998,298996.626,298998.1999999997,299013.303,301481.571,,grey
Fixation,canvas.Screen,2_88_0_0,2022-06-10T16:12:29.087Z,,,1,A,2135.7270000000135,timeout,,,303602,303600.613,301464.894,301481.3999999999,301481.571,303617.298,,black
Stimulus,canvas.Screen,2_88_0_1,2022-06-10T16:12:29.186Z,,,1,A,99.01299999997718,timeout,,,303701,303699.635,303600.613,303602.1999999997,303617.298,303716.311,,black
Reaction,canvas.Screen,2_88_0_2,2022-06-10T16:12:29.315Z,,,1,A,112.38899999973364,response,stim_detected,mousedown,303830.0999999996,303828.6999999997,303699.635,303701.1999999997,303716.311,303833.14,,black
Trial,flow.Sequence,2_88_0,2022-06-10T16:12:29.316Z,,,1,A,2347.1289999997243,completion,,,303830.5,303828.6999999997,301464.894,301481.1999999997,301481.571,303833.14,,black
Frame,canvas.Frame,2_88,2022-06-10T16:12:29.316Z,,,1,A,2349.028999999631,,,,303830.7999999998,303830.5999999996,301464.894,301480.2999999998,301481.571,303833.14,,black
Fixation,canvas.Screen,2_89_0_0,2022-06-10T16:12:30.955Z,,,1,A,1652.011999999988,timeout,,,305470,305468.465,303816.463,303832.0999999996,303833.14,305485.152,,black
Stimulus,canvas.Screen,2_89_0_1,2022-06-10T16:12:31.054Z,,,1,A,99.01400000002468,timeout,,,305569.0999999996,305567.49,305468.465,305470.2999999998,305485.152,305584.166,,black
Reaction,canvas.Screen,2_89_0_2,2022-06-10T16:12:31.208Z,,,1,A,137.43399999960093,response,stim_detected,mousedown,305723.0999999996,305721.5999999996,305567.49,305569.3999999999,305584.166,305734.359,,black
Trial,flow.Sequence,2_89_0,2022-06-10T16:12:31.209Z,,,1,A,1888.4599999996135,completion,,,305723.5,305721.5999999996,303816.463,303832,303833.14,305734.359,,black
Frame,canvas.Frame,2_89,2022-06-10T16:12:31.209Z,,,1,A,1890.5599999997066,,,,305723.8999999999,305723.6999999997,303816.463,303830.8999999999,303833.14,305734.359,,black
Fixation,canvas.Screen,2_90_0_0,2022-06-10T16:12:32.789Z,,,0,V,1585.6089999999967,timeout,,,307304.1999999997,307303.278,305717.683,305725.1999999997,305734.359,307319.968,,grey
Stimulus,canvas.Screen,2_90_0_1,2022-06-10T16:12:32.888Z,,,0,V,98.73200000001816,timeout,,,307403.0999999996,307402.024,307303.278,307304.3999999999,307319.968,307418.7,,grey
Reaction,canvas.Screen,2_90_0_2,2022-06-10T16:12:33.077Z,,,0,V,171.89999999961583,response,stim_detected,mousedown,307592.0999999996,307590.5999999996,307402.024,307403.3999999999,307418.7,307602.299,,grey
Trial,flow.Sequence,2_90_0,2022-06-10T16:12:33.078Z,,,0,V,1856.2409999996307,completion,,,307592.5,307590.5999999996,305717.683,305725.0999999996,305734.359,307602.299,,grey
Frame,canvas.Frame,2_90,2022-06-10T16:12:33.078Z,,,0,V,1858.2409999996307,,,,307592.7999999998,307592.5999999996,305717.683,305724.0999999996,305734.359,307602.299,,grey
Loop,flow.Loop,2,2022-06-10T16:12:33.078Z,,,,,206009.62999999963,completion,,,307593.1999999997,307592.5999999996,101566.292,101568.79999999981,101582.97,307602.299,,
end,html.Page,3,2022-06-10T16:12:38.363Z,,,,,5275.300999999628,form submission,,,312878.2999999998,312877.5999999996,307585.622,307593.5,307602.299,312886.735,,
root,flow.Sequence,,2022-06-10T16:12:38.365Z,,,,,308408.84899999964,completion,,,312879.5999999996,312877.5999999996,4452.072,4462,4468.751,312886.735,,