sender,sender_type,sender_id,timestamp,meta,,aud,condition,duration,ended_on,response,response_action,time_commit,time_end,time_render,time_run,time_show,time_switch,url,vis
Instructions,html.Page,0,2022-06-03T12:49:51.515Z,"{""labjs_version"":""20.2.4"",""labjs_build"":{""flavor"":""production"",""commit"":""f5b4a49f956347addd546a832a3327688c2c0fef""},""location"":""file:///C:/Users/Proband%207/Desktop/RTE/index.html"",""userAgent"":""Mozilla/5.0 (Windows NT 6.1; Win64; x64) AppleWebKit/537.36 (KHTML, like Gecko) Chrome/102.0.5005.63 Safari/537.36"",""platform"":""Win32"",""language"":""de-DE"",""locale"":""de"",""timeZone"":""Europe/Berlin"",""timezoneOffset"":-120,""screen_width"":1366,""screen_height"":768,""scroll_width"":1366,""scroll_height"":609,""window_innerWidth"":1366,""window_innerHeight"":657,""devicePixelRatio"":1}",,,,46446.00300000298,form submission,,,48045.5,48044.20000000298,1581.521,1589.800000000745,1598.197,48062.2,{},
Change Background,canvas.Screen,1,2022-06-03T12:49:54.519Z,,,,,3002.5120000000024,timeout,,,51050.10000000149,51048.029,48028.842,48046.20000000298,48062.2,51064.712,,
Fixation,canvas.Screen,2_0_0_0,2022-06-03T12:49:56.735Z,,,1,AV,2215.868999999999,timeout,,,53265.900000002235,53263.91,51048.029,51051.5,51064.712,53280.581,,grey
Stimulus,canvas.Screen,2_0_0_1,2022-06-03T12:49:56.835Z,,,1,AV,101.4780000000028,timeout,,,53366,53365.383,53263.91,53266.300000000745,53280.581,53382.059,,grey
Reaction,canvas.Screen,2_0_0_2,2022-06-03T12:49:56.998Z,,,1,AV,144.24100000074395,response,stim_detected,mousedown,53528.5,53526.300000000745,53365.383,53366.10000000149,53382.059,53532.286,,grey
Trial,flow.Sequence,2_0_0,2022-06-03T12:49:56.999Z,,,1,AV,2461.5880000007455,completion,,,53529.300000000745,53526.300000000745,51048.029,51051.400000002235,51064.712,53532.286,,grey
Frame,canvas.Frame,2_0,2022-06-03T12:49:56.999Z,,,1,AV,2464.8880000014906,,,,53530,53529.60000000149,51048.029,51050.400000002235,51064.712,53532.286,,grey
Fixation,canvas.Screen,2_1_0_0,2022-06-03T12:49:58.737Z,,,1,A,1751.201000000001,timeout,,,55267.800000000745,55266.22,53515.609,53531.300000000745,53532.286,55283.487,,black
Stimulus,canvas.Screen,2_1_0_1,2022-06-03T12:49:58.838Z,,,1,A,100.08599999999569,timeout,,,55368.800000000745,55366.892,55266.22,55268.20000000298,55283.487,55383.573,,black
Reaction,canvas.Screen,2_1_0_2,2022-06-03T12:49:59.023Z,,,1,A,168.02700000149343,response,stim_detected,mousedown,55553.400000002235,55551.60000000149,55366.892,55369.300000000745,55383.573,55566.996,,black
Trial,flow.Sequence,2_1_0,2022-06-03T12:49:59.024Z,,,1,A,2019.31400000149,completion,,,55554.400000002235,55551.60000000149,53515.609,53531.300000000745,53532.286,55566.996,,black
Frame,canvas.Frame,2_1,2022-06-03T12:49:59.024Z,,,1,A,2022.31400000149,,,,55555,55554.60000000149,53515.609,53530.300000000745,53532.286,55566.996,,black
Fixation,canvas.Screen,2_2_0_0,2022-06-03T12:50:00.839Z,,,1,AV,1817.5509999999995,timeout,,,57370,57367.872,55550.319,55557.10000000149,55566.996,57384.547,,grey
Stimulus,canvas.Screen,2_2_0_1,2022-06-03T12:50:00.939Z,,,1,AV,100.45900000000256,timeout,,,57469.900000002235,57468.328,57367.872,57370.300000000745,57384.547,57485.006,,grey
Reaction,canvas.Screen,2_2_0_2,2022-06-03T12:50:01.075Z,,,1,AV,119.29400000074384,response,stim_detected,mousedown,57606,57604.300000000745,57468.328,57470.300000000745,57485.006,57618.331,,grey
Trial,flow.Sequence,2_2_0,2022-06-03T12:50:01.076Z,,,1,AV,2037.3040000007459,completion,,,57606.70000000298,57604.300000000745,55550.319,55556.900000002235,55566.996,57618.331,,grey
Frame,canvas.Frame,2_2,2022-06-03T12:50:01.076Z,,,1,AV,2039.904000002236,,,,57607.20000000298,57606.900000002235,55550.319,55555.400000002235,55566.996,57618.331,,grey
Fixation,canvas.Screen,2_3_0_0,2022-06-03T12:50:03.572Z,,,1,AV,2500.096000000005,timeout,,,60103.10000000149,60101.759,57601.654,57609.20000000298,57618.331,60118.427,,grey
Stimulus,canvas.Screen,2_3_0_1,2022-06-03T12:50:03.674Z,,,1,AV,101.69399999999587,timeout,,,60204.60000000149,60203.437,60101.759,60103.400000002235,60118.427,60220.121,,grey
Reaction,canvas.Screen,2_3_0_2,2022-06-03T12:50:03.786Z,,,1,AV,95.07900000298105,response,stim_detected,mousedown,60317,60315.20000000298,60203.437,60204.800000000745,60220.121,60320.052,,grey
Trial,flow.Sequence,2_3_0,2022-06-03T12:50:03.787Z,,,1,AV,2696.869000002982,completion,,,60317.5,60315.20000000298,57601.654,57609,57618.331,60320.052,,grey
Frame,canvas.Frame,2_3,2022-06-03T12:50:03.787Z,,,1,AV,2699.269000001492,,,,60317.900000002235,60317.60000000149,57601.654,57607.5,57618.331,60320.052,,grey
Fixation,canvas.Screen,2_4_0_0,2022-06-03T12:50:05.510Z,,,1,AV,1735.225999999995,timeout,,,62040,62038.594,60303.376,60319.10000000149,60320.052,62055.278,,grey
Stimulus,canvas.Screen,2_4_0_1,2022-06-03T12:50:05.610Z,,,1,AV,99.46100000000297,timeout,,,62139.900000002235,62138.06,62038.594,62040.400000002235,62055.278,62154.739,,grey
Reaction,canvas.Screen,2_4_0_2,2022-06-03T12:50:05.718Z,,,1,AV,90.36100000148872,response,stim_detected,mousedown,62247.5,62245.10000000149,62138.06,62140.20000000298,62154.739,62254.717,,grey
Trial,flow.Sequence,2_4_0,2022-06-03T12:50:05.718Z,,,1,AV,1925.0480000014868,completion,,,62248,62245.10000000149,60303.376,60319.10000000149,60320.052,62254.717,,grey
Frame,canvas.Frame,2_4,2022-06-03T12:50:05.719Z,,,1,AV,1928.0480000014868,,,,62248.400000002235,62248.10000000149,60303.376,60318.10000000149,60320.052,62254.717,,grey
Fixation,canvas.Screen,2_5_0_0,2022-06-03T12:50:07.661Z,,,0,V,1951.1910000000062,timeout,,,64190.900000002235,64189.126,62238.04,62249.70000000298,62254.717,64205.908,,grey
Stimulus,canvas.Screen,2_5_0_1,2022-06-03T12:50:07.761Z,,,0,V,100.05599999999686,timeout,,,64291,64289.288,64189.126,64191.300000000745,64205.908,64305.964,,grey
Reaction,canvas.Screen,2_5_0_2,2022-06-03T12:50:07.902Z,,,0,V,124.13600000149017,response,stim_detected,mousedown,64431.900000002235,64430.10000000149,64289.288,64291.300000000745,64305.964,64439.465,,grey
Trial,flow.Sequence,2_5_0,2022-06-03T12:50:07.903Z,,,0,V,2175.383000001493,completion,,,64432.5,64430.10000000149,62238.04,62249.60000000149,62254.717,64439.465,,grey
Frame,canvas.Frame,2_5,2022-06-03T12:50:07.903Z,,,0,V,2177.9830000029833,,,,64432.900000002235,64432.70000000298,62238.04,62248.60000000149,62254.717,64439.465,,grey
Fixation,canvas.Screen,2_6_0_0,2022-06-03T12:50:10.113Z,,,0,V,2218.346000000005,timeout,,,66643.10000000149,66641.132,64422.788,64434.300000000745,64439.465,66657.811,,grey
Stimulus,canvas.Screen,2_6_0_1,2022-06-03T12:50:10.213Z,,,0,V,99.8689999999915,timeout,,,66742.20000000298,66741.003,66641.132,66643.60000000149,66657.811,66757.68,,grey
Reaction,canvas.Screen,2_6_0_2,2022-06-03T12:50:10.445Z,,,0,V,215.4200000014971,response,stim_detected,mousedown,66974.60000000149,66973.10000000149,66741.003,66742.60000000149,66757.68,66991.14,,grey
Trial,flow.Sequence,2_6_0,2022-06-03T12:50:10.446Z,,,0,V,2533.6350000014936,completion,,,66975.20000000298,66973.10000000149,64422.788,64434.20000000298,64439.465,66991.14,,grey
Frame,canvas.Frame,2_6,2022-06-03T12:50:10.446Z,,,0,V,2535.8350000007486,,,,66975.60000000149,66975.30000000075,64422.788,64433.10000000149,64439.465,66991.14,,grey
Fixation,canvas.Screen,2_7_0_0,2022-06-03T12:50:12.197Z,,,1,AV,1751.2189999999973,timeout,,,68727.20000000298,68725.681,66974.463,66976.80000000075,66991.14,68742.359,,grey
Stimulus,canvas.Screen,2_7_0_1,2022-06-03T12:50:12.297Z,,,1,AV,100.0280000000057,timeout,,,68827.10000000149,68825.71,68725.681,68727.40000000224,68742.359,68842.387,,grey
Reaction,canvas.Screen,2_7_0_2,2022-06-03T12:50:12.430Z,,,1,AV,115.61299999999756,response,stim_detected,mousedown,68959.70000000298,68958,68825.71,68827.40000000224,68842.387,68992.415,,grey
Trial,flow.Sequence,2_7_0,2022-06-03T12:50:12.430Z,,,1,AV,1966.8600000000006,completion,,,68960.10000000149,68958,66974.463,66976.70000000298,66991.14,68992.415,,grey
Frame,canvas.Frame,2_7,2022-06-03T12:50:12.431Z,,,1,AV,1969.0600000029808,,,,68960.5,68960.20000000298,66974.463,66975.80000000075,66991.14,68992.415,,grey
Fixation,canvas.Screen,2_8_0_0,2022-06-03T12:50:14.834Z,,,1,A,2386.126000000004,timeout,,,71363.40000000224,71361.855,68959.063,68961.80000000075,68992.415,71378.541,,black
Stimulus,canvas.Screen,2_8_0_1,2022-06-03T12:50:14.932Z,,,1,A,97.7780000000057,timeout,,,71461.40000000224,71459.649,71361.855,71363.70000000298,71378.541,71476.319,,black
Reaction,canvas.Screen,2_8_0_2,2022-06-03T12:50:15.270Z,,,1,A,321.58100000223203,response,stim_detected,mousedown,71799.5,71797.90000000224,71459.649,71461.80000000075,71476.319,71810.935,,black
Trial,flow.Sequence,2_8_0,2022-06-03T12:50:15.270Z,,,1,A,2805.4850000022416,completion,,,71800,71797.90000000224,68959.063,68961.60000000149,68992.415,71810.935,,black
Frame,canvas.Frame,2_8,2022-06-03T12:50:15.271Z,,,1,A,2807.6850000014965,,,,71800.30000000075,71800.10000000149,68959.063,68960.80000000075,68992.415,71810.935,,black
Fixation,canvas.Screen,2_9_0_0,2022-06-03T12:50:17.418Z,,,0,V,2151.648000000001,timeout,,,73947.5,73945.904,71794.258,71801.40000000224,71810.935,73962.583,,grey
Stimulus,canvas.Screen,2_9_0_1,2022-06-03T12:50:17.518Z,,,0,V,99.86999999999534,timeout,,,74047.30000000075,74045.775,73945.904,73947.70000000298,73962.583,74062.453,,grey
Reaction,canvas.Screen,2_9_0_2,2022-06-03T12:50:17.672Z,,,0,V,137.4470000022411,response,stim_detected,mousedown,74201.40000000224,74199.90000000224,74045.775,74047.60000000149,74062.453,74212.541,,grey
Trial,flow.Sequence,2_9_0,2022-06-03T12:50:17.672Z,,,0,V,2388.9650000022375,completion,,,74202,74199.90000000224,71794.258,71801.30000000075,71810.935,74212.541,,grey
Frame,canvas.Frame,2_9,2022-06-03T12:50:17.673Z,,,0,V,2391.2650000029826,,,,74202.40000000224,74202.20000000298,71794.258,71800.5,71810.935,74212.541,,grey
Fixation,canvas.Screen,2_10_0_0,2022-06-03T12:50:19.536Z,,,0,V,1868.320000000007,timeout,,,76065.30000000075,76064.18,74195.864,74203.70000000298,74212.541,76080.861,,grey
Stimulus,canvas.Screen,2_10_0_1,2022-06-03T12:50:19.636Z,,,0,V,99.56699999999546,timeout,,,76165.40000000224,76163.752,76064.18,76065.60000000149,76080.861,76180.428,,grey
Reaction,canvas.Screen,2_10_0_2,2022-06-03T12:50:19.768Z,,,0,V,115.37200000074517,response,stim_detected,mousedown,76297.80000000075,76295.80000000075,76163.752,76165.60000000149,76180.428,76313.911,,grey
Trial,flow.Sequence,2_10_0,2022-06-03T12:50:19.769Z,,,0,V,2083.2590000007476,completion,,,76298.20000000298,76295.80000000075,74195.864,74203.70000000298,74212.541,76313.911,,grey
Frame,canvas.Frame,2_10,2022-06-03T12:50:19.769Z,,,0,V,2085.8590000022377,,,,76298.60000000149,76298.40000000224,74195.864,74202.70000000298,74212.541,76313.911,,grey
Fixation,canvas.Screen,2_11_0_0,2022-06-03T12:50:21.888Z,,,1,AV,2118.6840000000084,timeout,,,78417.5,78415.913,76297.234,76299.70000000298,76313.911,78432.595,,grey
Stimulus,canvas.Screen,2_11_0_1,2022-06-03T12:50:21.987Z,,,1,AV,99.52599999999802,timeout,,,78516.40000000224,78515.442,78415.913,78417.70000000298,78432.595,78532.121,,grey
Reaction,canvas.Screen,2_11_0_2,2022-06-03T12:50:22.121Z,,,1,AV,116.77900000223599,response,stim_detected,mousedown,78650.20000000298,78648.90000000224,78515.442,78516.60000000149,78532.121,78665.468,,grey
Trial,flow.Sequence,2_11_0,2022-06-03T12:50:22.121Z,,,1,AV,2334.9890000022424,completion,,,78650.70000000298,78648.90000000224,76297.234,76299.60000000149,76313.911,78665.468,,grey
Frame,canvas.Frame,2_11,2022-06-03T12:50:22.121Z,,,1,AV,2336.8890000007523,,,,78651,78650.80000000075,76297.234,76298.80000000075,76313.911,78665.468,,grey
Fixation,canvas.Screen,2_12_0_0,2022-06-03T12:50:24.106Z,,,1,A,1984.8240000000078,timeout,,,80636,80633.613,78648.791,78652.30000000075,78665.468,80650.292,,black
Stimulus,canvas.Screen,2_12_0_1,2022-06-03T12:50:24.205Z,,,1,A,99.85000000000582,timeout,,,80734.5,80733.465,80633.613,80636.30000000075,80650.292,80750.142,,black
Reaction,canvas.Screen,2_12_0_2,2022-06-03T12:50:24.487Z,,,1,A,264.65800000073796,response,stim_detected,mousedown,81016.40000000224,81014.80000000075,80733.465,80734.70000000298,80750.142,81033.685,,black
Trial,flow.Sequence,2_12_0,2022-06-03T12:50:24.487Z,,,1,A,2349.3320000007516,completion,,,81016.70000000298,81014.80000000075,78648.791,78652.10000000149,78665.468,81033.685,,black
Frame,canvas.Frame,2_12,2022-06-03T12:50:24.487Z,,,1,A,2351.4320000022417,,,,81017,81016.90000000224,78648.791,78651.20000000298,78665.468,81033.685,,black
Fixation,canvas.Screen,2_13_0_0,2022-06-03T12:50:26.056Z,,,1,A,1567.3099999999977,timeout,,,82585.80000000075,82584.321,81017.008,81018.20000000298,81033.685,82600.995,,black
Stimulus,canvas.Screen,2_13_0_1,2022-06-03T12:50:26.157Z,,,1,A,100.46600000000035,timeout,,,82686.70000000298,82684.784,82584.321,82586.10000000149,82600.995,82701.461,,black
Reaction,canvas.Screen,2_13_0_2,2022-06-03T12:50:26.425Z,,,1,A,251.33900000074937,response,stim_detected,mousedown,82954.20000000298,82952.80000000075,82684.784,82686.90000000224,82701.461,82968.263,,black
Trial,flow.Sequence,2_13_0,2022-06-03T12:50:26.425Z,,,1,A,1919.1150000007474,completion,,,82954.60000000149,82952.80000000075,81017.008,81018,81033.685,82968.263,,black
Frame,canvas.Frame,2_13,2022-06-03T12:50:26.425Z,,,1,A,1921.1150000007474,,,,82954.90000000224,82954.80000000075,81017.008,81017.20000000298,81033.685,82968.263,,black
Fixation,canvas.Screen,2_14_0_0,2022-06-03T12:50:28.109Z,,,1,A,1685.478999999992,timeout,,,84638.70000000298,84637.055,82951.586,82956.10000000149,82968.263,84653.742,,black
Stimulus,canvas.Screen,2_14_0_1,2022-06-03T12:50:28.208Z,,,1,A,98.94400000000314,timeout,,,84737.60000000149,84736.01,84637.055,84639,84653.742,84752.686,,black
Reaction,canvas.Screen,2_14_0_2,2022-06-03T12:50:28.350Z,,,1,A,125.11400000074354,response,stim_detected,mousedown,84879.40000000224,84877.80000000075,84736.01,84737.90000000224,84752.686,84886.23,,black
Trial,flow.Sequence,2_14_0,2022-06-03T12:50:28.350Z,,,1,A,1909.5370000007388,completion,,,84879.90000000224,84877.80000000075,82951.586,82955.90000000224,82968.263,84886.23,,black
Frame,canvas.Frame,2_14,2022-06-03T12:50:28.351Z,,,1,A,1911.8370000014838,,,,84880.30000000075,84880.10000000149,82951.586,82955.10000000149,82968.263,84886.23,,black
Fixation,canvas.Screen,2_15_0_0,2022-06-03T12:50:30.359Z,,,1,AV,2017.9270000000106,timeout,,,86888.70000000298,86887.48,84869.553,84881.5,84886.23,86904.157,,grey
Stimulus,canvas.Screen,2_15_0_1,2022-06-03T12:50:30.459Z,,,1,AV,100.14999999999418,timeout,,,86988.70000000298,86987.63,86887.48,86889,86904.157,87004.307,,grey
Reaction,canvas.Screen,2_15_0_2,2022-06-03T12:50:30.585Z,,,1,AV,108.39300000297953,response,stim_detected,mousedown,87114.70000000298,87112.70000000298,86987.63,86988.90000000224,87004.307,87121.035,,grey
Trial,flow.Sequence,2_15_0,2022-06-03T12:50:30.586Z,,,1,AV,2226.4700000029843,completion,,,87115.30000000075,87112.70000000298,84869.553,84881.30000000075,84886.23,87121.035,,grey
Frame,canvas.Frame,2_15,2022-06-03T12:50:30.586Z,,,1,AV,2229.370000001494,,,,87115.80000000075,87115.60000000149,84869.553,84880.60000000149,84886.23,87121.035,,grey
Fixation,canvas.Screen,2_16_0_0,2022-06-03T12:50:32.243Z,,,1,A,1667.3709999999992,timeout,,,88772.80000000075,88771.732,87104.358,87117,87121.035,88788.406,,black
Stimulus,canvas.Screen,2_16_0_1,2022-06-03T12:50:32.344Z,,,1,A,100.36000000000058,timeout,,,88873.80000000075,88872.09,88771.732,88773,88788.406,88888.766,,black
Reaction,canvas.Screen,2_16_0_2,2022-06-03T12:50:32.477Z,,,1,A,116.73399999999674,response,stim_detected,mousedown,89007,89005.5,88872.09,88874.10000000149,88888.766,89022.221,,black
Trial,flow.Sequence,2_16_0,2022-06-03T12:50:32.478Z,,,1,A,1884.4649999999965,completion,,,89007.40000000224,89005.5,87104.358,87116.90000000224,87121.035,89022.221,,black
Frame,canvas.Frame,2_16,2022-06-03T12:50:32.478Z,,,1,A,1886.4649999999965,,,,89007.70000000298,89007.5,87104.358,87116,87121.035,89022.221,,black
Fixation,canvas.Screen,2_17_0_0,2022-06-03T12:50:34.630Z,,,0,V,2152.561999999991,timeout,,,91159.90000000224,91158.097,89005.545,89008.90000000224,89022.221,91174.783,,grey
Stimulus,canvas.Screen,2_17_0_1,2022-06-03T12:50:34.728Z,,,0,V,98.86800000000221,timeout,,,91258.10000000149,91256.975,91158.097,91160.30000000075,91174.783,91273.651,,grey
Reaction,canvas.Screen,2_17_0_2,2022-06-03T12:50:34.882Z,,,0,V,136.84900000000198,response,stim_detected,mousedown,91411.90000000224,91410.5,91256.975,91258.40000000224,91273.651,91423.823,,grey
Trial,flow.Sequence,2_17_0,2022-06-03T12:50:34.883Z,,,0,V,2388.278999999995,completion,,,91412.40000000224,91410.5,89005.545,89008.80000000075,89022.221,91423.823,,grey
Frame,canvas.Frame,2_17,2022-06-03T12:50:34.883Z,,,0,V,2390.479000002975,,,,91412.90000000224,91412.70000000298,89005.545,89008,89022.221,91423.823,,grey
Fixation,canvas.Screen,2_18_0_0,2022-06-03T12:50:36.614Z,,,1,A,1734.9939999999915,timeout,,,93144,93142.135,91407.146,91413.90000000224,91423.823,93158.817,,black
Stimulus,canvas.Screen,2_18_0_1,2022-06-03T12:50:36.713Z,,,1,A,99.57700000000477,timeout,,,93243,93241.716,93142.135,93144.30000000075,93158.817,93258.394,,black
Reaction,canvas.Screen,2_18_0_2,2022-06-03T12:50:36.916Z,,,1,A,186.10599999999977,response,stim_detected,mousedown,93446,93444.5,93241.716,93243.30000000075,93258.394,93458.511,,black
Trial,flow.Sequence,2_18_0,2022-06-03T12:50:36.917Z,,,1,A,2020.676999999996,completion,,,93446.40000000224,93444.5,91407.146,91413.90000000224,91423.823,93458.511,,black
Frame,canvas.Frame,2_18,2022-06-03T12:50:36.917Z,,,1,A,2022.676999999996,,,,93446.70000000298,93446.5,91407.146,91413.10000000149,91423.823,93458.511,,black
Fixation,canvas.Screen,2_19_0_0,2022-06-03T12:50:38.797Z,,,1,AV,1883.8659999999945,timeout,,,95327,95325.705,93441.834,93447.80000000075,93458.511,95342.377,,grey
Stimulus,canvas.Screen,2_19_0_1,2022-06-03T12:50:38.898Z,,,1,AV,100.82000000000698,timeout,,,95428,95426.518,95325.705,95327.20000000298,95342.377,95443.197,,grey
Reaction,canvas.Screen,2_19_0_2,2022-06-03T12:50:39.054Z,,,1,AV,139.30299999999988,response,stim_detected,mousedown,95583.90000000224,95582.5,95426.518,95428.30000000075,95443.197,95609.878,,grey
Trial,flow.Sequence,2_19_0,2022-06-03T12:50:39.055Z,,,1,AV,2123.9890000000014,completion,,,95584.40000000224,95582.5,93441.834,93447.70000000298,93458.511,95609.878,,grey
Frame,canvas.Frame,2_19,2022-06-03T12:50:39.055Z,,,1,AV,2125.9890000000014,,,,95584.80000000075,95584.5,93441.834,93447,93458.511,95609.878,,grey
Fixation,canvas.Screen,2_20_0_0,2022-06-03T12:50:41.268Z,,,1,AV,2202.699000000008,timeout,,,97797.20000000298,97795.891,95576.526,95585.90000000224,95609.878,97812.577,,grey
Stimulus,canvas.Screen,2_20_0_1,2022-06-03T12:50:41.367Z,,,1,AV,98.57799999999406,timeout,,,97896.40000000224,97894.48,97795.891,97797.5,97812.577,97911.155,,grey
Reaction,canvas.Screen,2_20_0_2,2022-06-03T12:50:41.524Z,,,1,AV,141.34500000000116,response,stim_detected,mousedown,98053.90000000224,98052.5,97894.48,97896.60000000149,97911.155,98061.518,,grey
Trial,flow.Sequence,2_20_0,2022-06-03T12:50:41.525Z,,,1,AV,2442.622000000003,completion,,,98054.30000000075,98052.5,95576.526,95585.80000000075,95609.878,98061.518,,grey
Frame,canvas.Frame,2_20,2022-06-03T12:50:41.525Z,,,1,AV,2444.522000002238,,,,98054.70000000298,98054.40000000224,95576.526,95584.90000000224,95609.878,98061.518,,grey
Fixation,canvas.Screen,2_21_0_0,2022-06-03T12:50:43.503Z,,,0,V,1985.4800000000105,timeout,,,100032.20000000298,100030.314,98044.841,98056,98061.518,100046.998,,grey
Stimulus,canvas.Screen,2_21_0_1,2022-06-03T12:50:43.601Z,,,0,V,98.93899999999849,timeout,,,100130.20000000298,100129.262,100030.314,100032.40000000224,100046.998,100145.937,,grey
Reaction,canvas.Screen,2_21_0_2,2022-06-03T12:50:43.802Z,,,0,V,183.76300000297488,response,stim_detected,mousedown,100331.40000000224,100329.70000000298,100129.262,100130.40000000224,100145.937,100346.339,,grey
Trial,flow.Sequence,2_21_0,2022-06-03T12:50:43.802Z,,,0,V,2268.182000002984,completion,,,100331.90000000224,100329.70000000298,98044.841,98055.80000000075,98061.518,100346.339,,grey
Frame,canvas.Frame,2_21,2022-06-03T12:50:43.803Z,,,0,V,2270.5820000014937,,,,100332.20000000298,100332.10000000149,98044.841,98054.80000000075,98061.518,100346.339,,grey
Fixation,canvas.Screen,2_22_0_0,2022-06-03T12:50:45.536Z,,,1,A,1735.258999999991,timeout,,,102066.10000000149,102064.914,100329.662,100333.20000000298,100346.339,102081.598,,black
Stimulus,canvas.Screen,2_22_0_1,2022-06-03T12:50:45.635Z,,,1,A,99.27300000000105,timeout,,,102165,102164.157,102064.914,102066.40000000224,102081.598,102180.871,,black
Reaction,canvas.Screen,2_22_0_2,2022-06-03T12:50:45.896Z,,,1,A,243.32900000298105,response,stim_detected,mousedown,102425.80000000075,102424.20000000298,102164.157,102165,102180.871,102431.011,,black
Trial,flow.Sequence,2_22_0,2022-06-03T12:50:45.897Z,,,1,A,2077.861000002973,completion,,,102426.20000000298,102424.20000000298,100329.662,100333.20000000298,100346.339,102431.011,,black
Frame,canvas.Frame,2_22,2022-06-03T12:50:45.897Z,,,1,A,2080.061000002228,,,,102426.5,102426.40000000224,100329.662,100332.5,100346.339,102431.011,,black
Fixation,canvas.Screen,2_23_0_0,2022-06-03T12:50:48.206Z,,,0,V,2319.1640000000043,timeout,,,104735.5,104733.491,102414.335,102427.5,102431.011,104750.175,,grey
Stimulus,canvas.Screen,2_23_0_1,2022-06-03T12:50:48.305Z,,,0,V,99.17199999999139,timeout,,,104835.10000000149,104832.67,104733.491,104735.90000000224,104750.175,104849.347,,grey
Reaction,canvas.Screen,2_23_0_2,2022-06-03T12:50:48.496Z,,,0,V,174.85300000298594,response,stim_detected,mousedown,105025.80000000075,105024.20000000298,104832.67,104835.30000000075,104849.347,105032.776,,grey
Trial,flow.Sequence,2_23_0,2022-06-03T12:50:48.497Z,,,0,V,2593.1890000029816,completion,,,105026.30000000075,105024.20000000298,102414.335,102427.40000000224,102431.011,105032.776,,grey
Frame,canvas.Frame,2_23,2022-06-03T12:50:48.497Z,,,0,V,2595.4890000000014,,,,105026.80000000075,105026.5,102414.335,102426.70000000298,102431.011,105032.776,,grey
Fixation,canvas.Screen,2_24_0_0,2022-06-03T12:50:49.989Z,,,1,AV,1500.7229999999981,timeout,,,106519,106516.824,105016.099,105027.80000000075,105032.776,106533.499,,grey
Stimulus,canvas.Screen,2_24_0_1,2022-06-03T12:50:50.089Z,,,1,AV,100.29300000000512,timeout,,,106618.40000000224,106617.115,106516.824,106519.20000000298,106533.499,106633.792,,grey
Reaction,canvas.Screen,2_24_0_2,2022-06-03T12:50:50.265Z,,,1,AV,159.30800000148884,response,stim_detected,mousedown,106794.60000000149,106793.10000000149,106617.115,106618.70000000298,106633.792,106800.594,,grey
Trial,flow.Sequence,2_24_0,2022-06-03T12:50:50.265Z,,,1,AV,1760.324000001492,completion,,,106795.10000000149,106793.10000000149,105016.099,105027.80000000075,105032.776,106800.594,,grey
Frame,canvas.Frame,2_24,2022-06-03T12:50:50.266Z,,,1,AV,1762.524000000747,,,,106795.5,106795.30000000075,105016.099,105026.90000000224,105032.776,106800.594,,grey
Fixation,canvas.Screen,2_25_0_0,2022-06-03T12:50:52.158Z,,,1,AV,1901.699999999997,timeout,,,108687.5,108685.613,106783.917,106796.60000000149,106800.594,108702.294,,grey
Stimulus,canvas.Screen,2_25_0_1,2022-06-03T12:50:52.257Z,,,1,AV,99.05400000000373,timeout,,,108786.5,108784.675,108685.613,108687.70000000298,108702.294,108801.348,,grey
Reaction,canvas.Screen,2_25_0_2,2022-06-03T12:50:52.408Z,,,1,AV,134.8520000029821,response,stim_detected,mousedown,108937.70000000298,108936.20000000298,108784.675,108786.70000000298,108801.348,108952.015,,grey
Trial,flow.Sequence,2_25_0,2022-06-03T12:50:52.408Z,,,1,AV,2135.606000002983,completion,,,108938.10000000149,108936.20000000298,106783.917,106796.5,106800.594,108952.015,,grey
Frame,canvas.Frame,2_25,2022-06-03T12:50:52.409Z,,,1,AV,2137.606000002983,,,,108938.5,108938.20000000298,106783.917,106795.80000000075,106800.594,108952.015,,grey
Fixation,canvas.Screen,2_26_0_0,2022-06-03T12:50:54.676Z,,,0,V,2268.221000000005,timeout,,,111205.20000000298,111203.558,108935.338,108939.40000000224,108952.015,111220.236,,grey
Stimulus,canvas.Screen,2_26_0_1,2022-06-03T12:50:54.775Z,,,0,V,99.89299999999639,timeout,,,111304.90000000224,111303.453,111203.558,111205.60000000149,111220.236,111320.129,,grey
Reaction,canvas.Screen,2_26_0_2,2022-06-03T12:50:54.936Z,,,0,V,144.17100000074424,response,stim_detected,mousedown,111466.10000000149,111464.30000000075,111303.453,111305.10000000149,111320.129,111470.331,,grey
Trial,flow.Sequence,2_26_0,2022-06-03T12:50:54.937Z,,,0,V,2512.2850000007456,completion,,,111466.5,111464.30000000075,108935.338,108939.40000000224,108952.015,111470.331,,grey
Frame,canvas.Frame,2_26,2022-06-03T12:50:54.937Z,,,0,V,2514.5850000014907,,,,111466.80000000075,111466.60000000149,108935.338,108938.60000000149,108952.015,111470.331,,grey
Fixation,canvas.Screen,2_27_0_0,2022-06-03T12:50:56.893Z,,,1,A,1968.0179999999964,timeout,,,113422.60000000149,113421.671,111453.654,111468,111470.331,113438.349,,black
Stimulus,canvas.Screen,2_27_0_1,2022-06-03T12:50:56.993Z,,,1,A,100.07200000000012,timeout,,,113522.60000000149,113521.743,113421.671,113422.90000000224,113438.349,113538.421,,black
Reaction,canvas.Screen,2_27_0_2,2022-06-03T12:50:57.152Z,,,1,A,141.67900000148802,response,stim_detected,mousedown,113681.5,113680.10000000149,113521.743,113522.90000000224,113538.421,113688.454,,black
Trial,flow.Sequence,2_27_0,2022-06-03T12:50:57.152Z,,,1,A,2209.7690000014845,completion,,,113681.90000000224,113680.10000000149,111453.654,111468,111470.331,113688.454,,black
Frame,canvas.Frame,2_27,2022-06-03T12:50:57.153Z,,,1,A,2211.7690000014845,,,,113682.30000000075,113682.10000000149,111453.654,111467.10000000149,111470.331,113688.454,,black
Fixation,canvas.Screen,2_28_0_0,2022-06-03T12:50:59.479Z,,,0,V,2334.4820000000036,timeout,,,116008.30000000075,116006.261,113671.777,113683.5,113688.454,116022.936,,grey
Stimulus,canvas.Screen,2_28_0_1,2022-06-03T12:50:59.578Z,,,0,V,100.45600000000559,timeout,,,116108.10000000149,116106.715,116006.261,116008.5,116022.936,116123.392,,grey
Reaction,canvas.Screen,2_28_0_2,2022-06-03T12:50:59.750Z,,,0,V,154.6079999999929,response,stim_detected,mousedown,116279.40000000224,116278,116106.715,116108.40000000224,116123.392,116290.152,,grey
Trial,flow.Sequence,2_28_0,2022-06-03T12:50:59.750Z,,,0,V,2589.546000000002,completion,,,116279.80000000075,116278,113671.777,113683.30000000075,113688.454,116290.152,,grey
Frame,canvas.Frame,2_28,2022-06-03T12:50:59.750Z,,,0,V,2591.546000000002,,,,116280.10000000149,116280,113671.777,113682.40000000224,113688.454,116290.152,,grey
Fixation,canvas.Screen,2_29_0_0,2022-06-03T12:51:01.630Z,,,1,AV,1884.8859999999986,timeout,,,118159.80000000075,118158.358,116273.475,116281.30000000075,116290.152,118175.038,,grey
Stimulus,canvas.Screen,2_29_0_1,2022-06-03T12:51:01.730Z,,,1,AV,99.61999999999534,timeout,,,118259.80000000075,118257.982,118158.358,118160.10000000149,118175.038,118274.658,,grey
Reaction,canvas.Screen,2_29_0_2,2022-06-03T12:51:01.881Z,,,1,AV,134.24200000223937,response,stim_detected,mousedown,118410.30000000075,118408.90000000224,118257.982,118260.20000000298,118274.658,118424.878,,grey
Trial,flow.Sequence,2_29_0,2022-06-03T12:51:01.881Z,,,1,AV,2118.7480000022333,completion,,,118410.70000000298,118408.90000000224,116273.475,116281.20000000298,116290.152,118424.878,,grey
Frame,canvas.Frame,2_29,2022-06-03T12:51:01.881Z,,,1,AV,2120.7480000022333,,,,118411.10000000149,118410.90000000224,116273.475,116280.30000000075,116290.152,118424.878,,grey
Fixation,canvas.Screen,2_30_0_0,2022-06-03T12:51:03.415Z,,,1,AV,1534.8220000000001,timeout,,,119944.90000000224,119943.018,118408.201,118412,118424.878,119959.7,,grey
Stimulus,canvas.Screen,2_30_0_1,2022-06-03T12:51:03.514Z,,,1,AV,99.31200000000536,timeout,,,120044,120042.338,119943.018,119945.10000000149,119959.7,120059.012,,grey
Reaction,canvas.Screen,2_30_0_2,2022-06-03T12:51:03.645Z,,,1,AV,113.88800000223273,response,stim_detected,mousedown,120174.5,120172.90000000224,120042.338,120044.20000000298,120059.012,120192.728,,grey
Trial,flow.Sequence,2_30_0,2022-06-03T12:51:03.645Z,,,1,AV,1748.0220000022382,completion,,,120174.90000000224,120172.90000000224,118408.201,118412,118424.878,120192.728,,grey
Frame,canvas.Frame,2_30,2022-06-03T12:51:03.646Z,,,1,AV,1750.2220000014931,,,,120175.30000000075,120175.10000000149,118408.201,118411.10000000149,118424.878,120192.728,,grey
Fixation,canvas.Screen,2_31_0_0,2022-06-03T12:51:05.383Z,,,1,A,1734.528999999995,timeout,,,121911.90000000224,121910.579,120176.051,120176.40000000224,120192.728,121927.257,,black
Stimulus,canvas.Screen,2_31_0_1,2022-06-03T12:51:05.483Z,,,1,A,100.02300000000105,timeout,,,122011.90000000224,122010.602,121910.579,121912.10000000149,121927.257,122027.28,,black
Reaction,canvas.Screen,2_31_0_2,2022-06-03T12:51:05.770Z,,,1,A,269.5200000007462,response,stim_detected,mousedown,122298.40000000224,122296.80000000075,122010.602,122012.20000000298,122027.28,122327.439,,black
Trial,flow.Sequence,2_31_0,2022-06-03T12:51:05.770Z,,,1,A,2104.0720000007423,completion,,,122298.70000000298,122296.80000000075,120176.051,120176.30000000075,120192.728,122327.439,,black
Frame,canvas.Frame,2_31,2022-06-03T12:51:05.770Z,,,1,A,2106.0720000007423,,,,122299,122298.80000000075,120176.051,120175.60000000149,120192.728,122327.439,,black
Fixation,canvas.Screen,2_32_0_0,2022-06-03T12:51:08.186Z,,,1,AV,2402.119000000006,timeout,,,124714.20000000298,124712.877,122294.085,122300.10000000149,122327.439,124729.558,,grey
Stimulus,canvas.Screen,2_32_0_1,2022-06-03T12:51:08.285Z,,,1,AV,99.00699999999779,timeout,,,124813.40000000224,124811.891,124712.877,124714.5,124729.558,124828.565,,grey
Reaction,canvas.Screen,2_32_0_2,2022-06-03T12:51:08.541Z,,,1,AV,239.1350000029779,response,stim_detected,mousedown,125069.30000000075,125067.70000000298,124811.891,124813.70000000298,124828.565,125079.223,,grey
Trial,flow.Sequence,2_32_0,2022-06-03T12:51:08.541Z,,,1,AV,2740.2610000029817,completion,,,125069.70000000298,125067.70000000298,122294.085,122299.90000000224,122327.439,125079.223,,grey
Frame,canvas.Frame,2_32,2022-06-03T12:51:08.541Z,,,1,AV,2742.3610000007466,,,,125070,125069.80000000075,122294.085,122299.10000000149,122327.439,125079.223,,grey
Fixation,canvas.Screen,2_33_0_0,2022-06-03T12:51:10.571Z,,,1,AV,2035.6760000000068,timeout,,,127099.20000000298,127098.214,125062.546,125071.10000000149,125079.223,127114.899,,grey
Stimulus,canvas.Screen,2_33_0_1,2022-06-03T12:51:10.670Z,,,1,AV,98.89099999998871,timeout,,,127198.20000000298,127197.114,127098.214,127099.40000000224,127114.899,127213.79,,grey
Reaction,canvas.Screen,2_33_0_2,2022-06-03T12:51:10.814Z,,,1,AV,127.41000000298664,response,stim_detected,mousedown,127342.70000000298,127341.20000000298,127197.114,127198.40000000224,127213.79,127347.378,,grey
Trial,flow.Sequence,2_33_0,2022-06-03T12:51:10.815Z,,,1,AV,2261.977000002982,completion,,,127343.20000000298,127341.20000000298,125062.546,125071,125079.223,127347.378,,grey
Frame,canvas.Frame,2_33,2022-06-03T12:51:10.815Z,,,1,AV,2264.077000000747,,,,127343.40000000224,127343.30000000075,125062.546,125070.20000000298,125079.223,127347.378,,grey
Fixation,canvas.Screen,2_34_0_0,2022-06-03T12:51:13.007Z,,,1,A,2202.652000000002,timeout,,,129535.10000000149,129533.344,127330.701,127344.5,127347.378,129550.03,,black
Stimulus,canvas.Screen,2_34_0_1,2022-06-03T12:51:13.105Z,,,1,A,98.74000000000524,timeout,,,129633.20000000298,129632.094,129533.344,129535.40000000224,129550.03,129648.77,,black
Reaction,canvas.Screen,2_34_0_2,2022-06-03T12:51:13.380Z,,,1,A,257.93000000297616,response,stim_detected,mousedown,129908.10000000149,129906.70000000298,129632.094,129633.60000000149,129648.77,129915.762,,black
Trial,flow.Sequence,2_34_0,2022-06-03T12:51:13.380Z,,,1,A,2559.3220000029833,completion,,,129908.5,129906.70000000298,127330.701,127344.5,127347.378,129915.762,,black
Frame,canvas.Frame,2_34,2022-06-03T12:51:13.380Z,,,1,A,2561.3220000029833,,,,129908.90000000224,129908.70000000298,127330.701,127343.70000000298,127347.378,129915.762,,black
Fixation,canvas.Screen,2_35_0_0,2022-06-03T12:51:15.457Z,,,0,V,2084.933999999994,timeout,,,131985.20000000298,131984.017,129899.085,129910,129915.762,132000.696,,grey
Stimulus,canvas.Screen,2_35_0_1,2022-06-03T12:51:15.557Z,,,0,V,99.87400000001071,timeout,,,132085.30000000075,132083.893,131984.017,131985.5,132000.696,132100.57,,grey
Reaction,canvas.Screen,2_35_0_2,2022-06-03T12:51:15.715Z,,,0,V,141.03000000148313,response,stim_detected,mousedown,132243,132241.6000000015,132083.893,132085.5,132100.57,132250.585,,grey
Trial,flow.Sequence,2_35_0,2022-06-03T12:51:15.715Z,,,0,V,2325.8380000014877,completion,,,132243.5,132241.6000000015,129899.085,129909.80000000075,129915.762,132250.585,,grey
Frame,canvas.Frame,2_35,2022-06-03T12:51:15.715Z,,,0,V,2328.0380000007426,,,,132244,132243.80000000075,129899.085,129909,129915.762,132250.585,,grey
Fixation,canvas.Screen,2_36_0_0,2022-06-03T12:51:17.659Z,,,1,A,1952.4290000000037,timeout,,,134187.30000000075,134186.327,132233.909,132245.20000000298,132250.585,134203.014,,black
Stimulus,canvas.Screen,2_36_0_1,2022-06-03T12:51:17.758Z,,,1,A,98.8289999999979,timeout,,,134286.40000000224,134285.167,134186.327,134187.70000000298,134203.014,134301.843,,black
Reaction,canvas.Screen,2_36_0_2,2022-06-03T12:51:18.107Z,,,1,A,331.75700000149664,response,stim_detected,mousedown,134635.20000000298,134633.6000000015,134285.167,134286.6000000015,134301.843,134652.198,,black
Trial,flow.Sequence,2_36_0,2022-06-03T12:51:18.107Z,,,1,A,2383.0150000014983,completion,,,134635.5,134633.6000000015,132233.909,132245.1000000015,132250.585,134652.198,,black
Frame,canvas.Frame,2_36,2022-06-03T12:51:18.107Z,,,1,A,2385.0150000014983,,,,134635.80000000075,134635.6000000015,132233.909,132244.20000000298,132250.585,134652.198,,black
Fixation,canvas.Screen,2_37_0_0,2022-06-03T12:51:19.743Z,,,1,AV,1634.6019999999844,timeout,,,136271.5,136270.121,134635.521,134636.80000000075,134652.198,136286.8,,grey
Stimulus,canvas.Screen,2_37_0_1,2022-06-03T12:51:19.843Z,,,1,AV,99.80800000001909,timeout,,,136371.40000000224,136369.932,136270.121,136271.90000000224,136286.8,136386.608,,grey
Reaction,canvas.Screen,2_37_0_2,2022-06-03T12:51:20.024Z,,,1,AV,163.99200000148267,response,stim_detected,mousedown,136552.1000000015,136550.6000000015,136369.932,136371.6000000015,136386.608,136570.137,,grey
Trial,flow.Sequence,2_37_0,2022-06-03T12:51:20.024Z,,,1,AV,1898.4020000014862,completion,,,136552.70000000298,136550.6000000015,134635.521,134636.70000000298,134652.198,136570.137,,grey
Frame,canvas.Frame,2_37,2022-06-03T12:51:20.025Z,,,1,AV,1900.602000000741,,,,136553.1000000015,136552.80000000075,134635.521,134636,134652.198,136570.137,,grey
Fixation,canvas.Screen,2_38_0_0,2022-06-03T12:51:21.644Z,,,1,A,1617.6820000000007,timeout,,,138172.5,138171.142,136553.46,136554.70000000298,136570.137,138187.819,,black
Stimulus,canvas.Screen,2_38_0_1,2022-06-03T12:51:21.744Z,,,1,A,100.13400000002002,timeout,,,138272.5,138271.276,138171.142,138172.70000000298,138187.819,138287.953,,black
Reaction,canvas.Screen,2_38_0_2,2022-06-03T12:51:22.094Z,,,1,A,332.5469999999914,response,stim_detected,mousedown,138622.30000000075,138620.5,138271.276,138272.90000000224,138287.953,138638.15,,black
Trial,flow.Sequence,2_38_0,2022-06-03T12:51:22.094Z,,,1,A,2050.363000000012,completion,,,138622.70000000298,138620.5,136553.46,136554.6000000015,136570.137,138638.15,,black
Frame,canvas.Frame,2_38,2022-06-03T12:51:22.095Z,,,1,A,2052.663000000757,,,,138623.1000000015,138622.80000000075,136553.46,136553.20000000298,136570.137,138638.15,,black
Fixation,canvas.Screen,2_39_0_0,2022-06-03T12:51:23.628Z,,,1,AV,1534.1670000000158,timeout,,,140156.6000000015,140155.641,138621.473,138625.1000000015,138638.15,140172.317,,grey
Stimulus,canvas.Screen,2_39_0_1,2022-06-03T12:51:23.729Z,,,1,AV,100.32399999999325,timeout,,,140257.6000000015,140255.963,140155.641,140156.90000000224,140172.317,140272.641,,grey
Reaction,canvas.Screen,2_39_0_2,2022-06-03T12:51:23.941Z,,,1,AV,195.85899999999674,response,stim_detected,mousedown,140469.90000000224,140468.5,140255.963,140257.70000000298,140272.641,140472.691,,grey
Trial,flow.Sequence,2_39_0,2022-06-03T12:51:23.942Z,,,1,AV,1830.3500000000058,completion,,,140470.30000000075,140468.5,138621.473,138624.90000000224,138638.15,140472.691,,grey
Frame,canvas.Frame,2_39,2022-06-03T12:51:23.942Z,,,1,AV,1832.3500000000058,,,,140470.70000000298,140470.5,138621.473,138623.30000000075,138638.15,140472.691,,grey
Fixation,canvas.Screen,2_40_0_0,2022-06-03T12:51:26.346Z,,,1,A,2417.363000000012,timeout,,,142874.90000000224,142873.382,140456.014,140471.90000000224,140472.691,142890.054,,black
Stimulus,canvas.Screen,2_40_0_1,2022-06-03T12:51:26.447Z,,,1,A,100.98300000000745,timeout,,,142975.70000000298,142974.359,142873.382,142875.1000000015,142890.054,142991.037,,black
Reaction,canvas.Screen,2_40_0_2,2022-06-03T12:51:26.748Z,,,1,A,283.2630000007339,response,stim_detected,mousedown,143276,143274.30000000075,142974.359,142976,142991.037,143291.131,,black
Trial,flow.Sequence,2_40_0,2022-06-03T12:51:26.748Z,,,1,A,2801.6090000007534,completion,,,143276.5,143274.30000000075,140456.014,140471.70000000298,140472.691,143291.131,,black
Frame,canvas.Frame,2_40,2022-06-03T12:51:26.748Z,,,1,A,2803.8090000000084,,,,143276.70000000298,143276.5,140456.014,140470.80000000075,140472.691,143291.131,,black
Fixation,canvas.Screen,2_41_0_0,2022-06-03T12:51:29.001Z,,,1,AV,2253.5409999999974,timeout,,,145530,145527.98,143274.455,143277.80000000075,143291.131,145544.672,,grey
Stimulus,canvas.Screen,2_41_0_1,2022-06-03T12:51:29.098Z,,,1,AV,98.04899999999907,timeout,,,145627,145625.861,145527.98,145530.20000000298,145544.672,145642.721,,grey
Reaction,canvas.Screen,2_41_0_2,2022-06-03T12:51:29.398Z,,,1,AV,282.5790000007546,response,stim_detected,mousedown,145926.80000000075,145925.30000000075,145625.861,145627.20000000298,145642.721,145942.907,,grey
Trial,flow.Sequence,2_41_0,2022-06-03T12:51:29.399Z,,,1,AV,2634.169000000751,completion,,,145927.20000000298,145925.30000000075,143274.455,143277.70000000298,143291.131,145942.907,,grey
Frame,canvas.Frame,2_41,2022-06-03T12:51:29.399Z,,,1,AV,2636.169000000751,,,,145927.6000000015,145927.30000000075,143274.455,143276.90000000224,143291.131,145942.907,,grey
Fixation,canvas.Screen,2_42_0_0,2022-06-03T12:51:31.586Z,,,1,AV,2186.1289999999863,timeout,,,148114.80000000075,148112.349,145926.23,145928.80000000075,145942.907,148129.036,,grey
Stimulus,canvas.Screen,2_42_0_1,2022-06-03T12:51:31.685Z,,,1,AV,98.74000000001979,timeout,,,148213.40000000224,148211.009,148112.349,148115.1000000015,148129.036,148227.776,,grey
Reaction,canvas.Screen,2_42_0_2,2022-06-03T12:51:31.883Z,,,1,AV,182.42400000296766,response,stim_detected,mousedown,148411.70000000298,148410.20000000298,148211.009,148213.6000000015,148227.776,148427.9,,grey
Trial,flow.Sequence,2_42_0,2022-06-03T12:51:31.884Z,,,1,AV,2467.2930000029737,completion,,,148412.20000000298,148410.20000000298,145926.23,145928.70000000298,145942.907,148427.9,,grey
Frame,canvas.Frame,2_42,2022-06-03T12:51:31.884Z,,,1,AV,2469.2930000029737,,,,148412.6000000015,148412.20000000298,145926.23,145927.90000000224,145942.907,148427.9,,grey
Fixation,canvas.Screen,2_43_0_0,2022-06-03T12:51:34.304Z,,,1,AV,2418.9839999999967,timeout,,,150832.30000000075,150830.202,148411.223,148414,148427.9,150846.884,,grey
Stimulus,canvas.Screen,2_43_0_1,2022-06-03T12:51:34.403Z,,,1,AV,98.97500000000582,timeout,,,150931.20000000298,150929.184,150830.202,150832.6000000015,150846.884,150945.859,,grey
Reaction,canvas.Screen,2_43_0_2,2022-06-03T12:51:34.533Z,,,1,AV,114.44100000074832,response,stim_detected,mousedown,151061.70000000298,151060.30000000075,150929.184,150931.5,150945.859,151062.973,,grey
Trial,flow.Sequence,2_43_0,2022-06-03T12:51:34.534Z,,,1,AV,2632.400000000751,completion,,,151062.1000000015,151060.30000000075,148411.223,148413.80000000075,148427.9,151062.973,,grey
Frame,canvas.Frame,2_43,2022-06-03T12:51:34.534Z,,,1,AV,2634.300000002986,,,,151062.30000000075,151062.20000000298,148411.223,148412.70000000298,148427.9,151062.973,,grey
Fixation,canvas.Screen,2_44_0_0,2022-06-03T12:51:36.020Z,,,0,V,1501.2419999999984,timeout,,,152549,152547.535,151046.296,151064.40000000224,151062.973,152564.215,,grey
Stimulus,canvas.Screen,2_44_0_1,2022-06-03T12:51:36.120Z,,,0,V,99.71100000001024,timeout,,,152649,152647.25,152547.535,152549.30000000075,152564.215,152663.926,,grey
Reaction,canvas.Screen,2_44_0_2,2022-06-03T12:51:36.289Z,,,0,V,152.27400000297348,response,stim_detected,mousedown,152817.6000000015,152816.20000000298,152647.25,152649.20000000298,152663.926,152830.793,,grey
Trial,flow.Sequence,2_44_0,2022-06-03T12:51:36.290Z,,,0,V,1753.227000002982,completion,,,152818,152816.20000000298,151046.296,151064.1000000015,151062.973,152830.793,,grey
Frame,canvas.Frame,2_44,2022-06-03T12:51:36.290Z,,,0,V,1755.127000001492,,,,152818.30000000075,152818.1000000015,151046.296,151062.6000000015,151062.973,152830.793,,grey
Fixation,canvas.Screen,2_45_0_0,2022-06-03T12:51:38.239Z,,,0,V,1951.8349999999919,timeout,,,154767.1000000015,154765.946,152814.116,152819.40000000224,152830.793,154782.628,,grey
Stimulus,canvas.Screen,2_45_0_1,2022-06-03T12:51:38.339Z,,,0,V,99.33199999999488,timeout,,,154867.1000000015,154865.284,154765.946,154767.30000000075,154782.628,154881.96,,grey
Reaction,canvas.Screen,2_45_0_2,2022-06-03T12:51:38.481Z,,,0,V,126.24000000298838,response,stim_detected,mousedown,155009.6000000015,155008.20000000298,154865.284,154867.40000000224,154881.96,155015.566,,grey
Trial,flow.Sequence,2_45_0,2022-06-03T12:51:38.481Z,,,0,V,2177.407000002975,completion,,,155009.90000000224,155008.20000000298,152814.116,152819.20000000298,152830.793,155015.566,,grey
Frame,canvas.Frame,2_45,2022-06-03T12:51:38.482Z,,,0,V,2179.307000001485,,,,155010.30000000075,155010.1000000015,152814.116,152818.5,152830.793,155015.566,,grey
Fixation,canvas.Screen,2_46_0_0,2022-06-03T12:51:40.040Z,,,0,V,1567.8559999999998,timeout,,,156568.20000000298,156566.743,154998.889,155011.40000000224,155015.566,156583.422,,grey
Stimulus,canvas.Screen,2_46_0_1,2022-06-03T12:51:40.140Z,,,0,V,99.70200000001932,timeout,,,156668.1000000015,156666.449,156566.743,156568.30000000075,156583.422,156683.124,,grey
Reaction,canvas.Screen,2_46_0_2,2022-06-03T12:51:40.292Z,,,0,V,135.9760000014794,response,stim_detected,mousedown,156820.6000000015,156819.1000000015,156666.449,156668.40000000224,156683.124,156833.424,,grey
Trial,flow.Sequence,2_46_0,2022-06-03T12:51:40.292Z,,,0,V,1803.5340000014985,completion,,,156820.90000000224,156819.1000000015,154998.889,155011.20000000298,155015.566,156833.424,,grey
Frame,canvas.Frame,2_46,2022-06-03T12:51:40.293Z,,,0,V,1805.5340000014985,,,,156821.30000000075,156821.1000000015,154998.889,155010.5,155015.566,156833.424,,grey
Fixation,canvas.Screen,2_47_0_0,2022-06-03T12:51:42.291Z,,,1,A,2001.4549999999872,timeout,,,158819.20000000298,158818.2,156816.747,156822.30000000075,156833.424,158834.879,,black
Stimulus,canvas.Screen,2_47_0_1,2022-06-03T12:51:42.391Z,,,1,A,99.26900000000023,timeout,,,158919.1000000015,158917.476,158818.2,158819.70000000298,158834.879,158934.148,,black
Reaction,canvas.Screen,2_47_0_2,2022-06-03T12:51:42.627Z,,,1,A,219.75200000224868,response,stim_detected,mousedown,159155.90000000224,159153.90000000224,158917.476,158919.40000000224,158934.148,159168.295,,black
Trial,flow.Sequence,2_47_0,2022-06-03T12:51:42.628Z,,,1,A,2320.476000002236,completion,,,159156.40000000224,159153.90000000224,156816.747,156822.1000000015,156833.424,159168.295,,black
Frame,canvas.Frame,2_47,2022-06-03T12:51:42.628Z,,,1,A,2323.176000001491,,,,159156.70000000298,159156.6000000015,156816.747,156821.5,156833.424,159168.295,,black
Fixation,canvas.Screen,2_48_0_0,2022-06-03T12:51:45.026Z,,,1,AV,2400.8469999999797,timeout,,,161554.5,161552.469,159151.618,159158,159168.295,161569.142,,grey
Stimulus,canvas.Screen,2_48_0_1,2022-06-03T12:51:45.126Z,,,1,AV,100.52499999999418,timeout,,,161654.80000000075,161652.991,161552.469,161554.70000000298,161569.142,161669.667,,grey
Reaction,canvas.Screen,2_48_0_2,2022-06-03T12:51:45.264Z,,,1,AV,121.23300000224845,response,stim_detected,mousedown,161792.30000000075,161790.90000000224,161652.991,161655.20000000298,161669.667,161803.325,,grey
Trial,flow.Sequence,2_48_0,2022-06-03T12:51:45.264Z,,,1,AV,2622.6050000022224,completion,,,161792.80000000075,161790.90000000224,159151.618,159157.90000000224,159168.295,161803.325,,grey
Frame,canvas.Frame,2_48,2022-06-03T12:51:45.265Z,,,1,AV,2624.704999999987,,,,161793.20000000298,161793,159151.618,159157,159168.295,161803.325,,grey
Fixation,canvas.Screen,2_49_0_0,2022-06-03T12:51:47.646Z,,,0,V,2385.743999999977,timeout,,,164174.40000000224,164172.386,161786.648,161794.80000000075,161803.325,164189.069,,grey
Stimulus,canvas.Screen,2_49_0_1,2022-06-03T12:51:47.744Z,,,0,V,98.74000000001979,timeout,,,164272.6000000015,164271.135,164172.386,164174.6000000015,164189.069,164287.809,,grey
Reaction,canvas.Screen,2_49_0_2,2022-06-03T12:51:47.887Z,,,0,V,126.19099999999162,response,stim_detected,mousedown,164415.30000000075,164414,164271.135,164272.80000000075,164287.809,164421.695,,grey
Trial,flow.Sequence,2_49_0,2022-06-03T12:51:47.887Z,,,0,V,2610.6749999999884,completion,,,164415.70000000298,164414,161786.648,161794.70000000298,161803.325,164421.695,,grey
Frame,canvas.Frame,2_49,2022-06-03T12:51:47.888Z,,,0,V,2612.5750000022235,,,,164416,164415.90000000224,161786.648,161793.40000000224,161803.325,164421.695,,grey
Fixation,canvas.Screen,2_50_0_0,2022-06-03T12:51:49.613Z,,,1,AV,1734.9989999999816,timeout,,,166141.40000000224,166140.012,164405.018,164417.20000000298,164421.695,166156.694,,grey
Stimulus,canvas.Screen,2_50_0_1,2022-06-03T12:51:49.713Z,,,1,AV,99.60400000002119,timeout,,,166241.5,166239.62,166140.012,166141.70000000298,166156.694,166256.298,,grey
Reaction,canvas.Screen,2_50_0_2,2022-06-03T12:51:49.845Z,,,1,AV,115.6020000022254,response,stim_detected,mousedown,166373.70000000298,166371.90000000224,166239.62,166241.70000000298,166256.298,166389.703,,grey
Trial,flow.Sequence,2_50_0,2022-06-03T12:51:49.846Z,,,1,AV,1950.2050000022282,completion,,,166374.20000000298,166371.90000000224,164405.018,164417.1000000015,164421.695,166389.703,,grey
Frame,canvas.Frame,2_50,2022-06-03T12:51:49.846Z,,,1,AV,1952.605000000738,,,,166374.5,166374.30000000075,164405.018,164416.20000000298,164421.695,166389.703,,grey
Fixation,canvas.Screen,2_51_0_0,2022-06-03T12:51:52.063Z,,,1,A,2217.179999999993,timeout,,,168591.5,168590.212,166373.026,166375.5,166389.703,168606.883,,black
Stimulus,canvas.Screen,2_51_0_1,2022-06-03T12:51:52.164Z,,,1,A,101.07300000000396,timeout,,,168692.5,168691.278,168590.212,168591.80000000075,168606.883,168707.956,,black
Reaction,canvas.Screen,2_51_0_2,2022-06-03T12:51:52.483Z,,,1,A,301.74400000297464,response,stim_detected,mousedown,169011.20000000298,169009.70000000298,168691.278,168692.80000000075,168707.956,169024.734,,black
Trial,flow.Sequence,2_51_0,2022-06-03T12:51:52.483Z,,,1,A,2619.9970000029716,completion,,,169011.5,169009.70000000298,166373.026,166375.40000000224,166389.703,169024.734,,black
Frame,canvas.Frame,2_51,2022-06-03T12:51:52.483Z,,,1,A,2621.9970000029716,,,,169011.90000000224,169011.70000000298,166373.026,166374.6000000015,166389.703,169024.734,,black
Fixation,canvas.Screen,2_52_0_0,2022-06-03T12:51:54.216Z,,,1,AV,1735.018000000011,timeout,,,170744.5,170743.07,169008.057,169012.90000000224,169024.734,170759.752,,grey
Stimulus,canvas.Screen,2_52_0_1,2022-06-03T12:51:54.315Z,,,1,AV,99.56999999997788,timeout,,,170843.80000000075,170842.645,170743.07,170744.80000000075,170759.752,170859.322,,grey
Reaction,canvas.Screen,2_52_0_2,2022-06-03T12:51:54.465Z,,,1,AV,132.4780000007595,response,stim_detected,mousedown,170993.70000000298,170991.80000000075,170842.645,170844.1000000015,170859.322,171009.402,,grey
Trial,flow.Sequence,2_52_0,2022-06-03T12:51:54.466Z,,,1,AV,1967.0660000007483,completion,,,170994.1000000015,170991.80000000075,169008.057,169012.80000000075,169024.734,171009.402,,grey
Frame,canvas.Frame,2_52,2022-06-03T12:51:54.466Z,,,1,AV,1969.4660000029835,,,,170994.30000000075,170994.20000000298,169008.057,169012.1000000015,169024.734,171009.402,,grey
Fixation,canvas.Screen,2_53_0_0,2022-06-03T12:51:56.183Z,,,1,A,1717.8470000000088,timeout,,,172711.6000000015,172710.571,170992.725,170995.5,171009.402,172727.249,,black
Stimulus,canvas.Screen,2_53_0_1,2022-06-03T12:51:56.283Z,,,1,A,99.83699999999953,timeout,,,172811.6000000015,172810.41,172710.571,172712.1000000015,172727.249,172827.086,,black
Reaction,canvas.Screen,2_53_0_2,2022-06-03T12:51:56.588Z,,,1,A,287.7140000007348,response,stim_detected,mousedown,173116.30000000075,173114.80000000075,172810.41,172811.80000000075,172827.086,173127.458,,black
Trial,flow.Sequence,2_53_0,2022-06-03T12:51:56.588Z,,,1,A,2105.398000000743,completion,,,173116.70000000298,173114.80000000075,170992.725,170995.40000000224,171009.402,173127.458,,black
Frame,canvas.Frame,2_53,2022-06-03T12:51:56.588Z,,,1,A,2107.398000000743,,,,173117,173116.80000000075,170992.725,170994.5,171009.402,173127.458,,black
Fixation,canvas.Screen,2_54_0_0,2022-06-03T12:51:58.167Z,,,0,V,1583.8669999999984,timeout,,,174695.70000000298,174694.652,173110.781,173118,173127.458,174711.325,,grey
Stimulus,canvas.Screen,2_54_0_1,2022-06-03T12:51:58.268Z,,,0,V,100.53299999999581,timeout,,,174797,174795.181,174694.652,174696,174711.325,174811.858,,grey
Reaction,canvas.Screen,2_54_0_2,2022-06-03T12:51:58.434Z,,,0,V,148.84200000297278,response,stim_detected,mousedown,174962.20000000298,174960.70000000298,174795.181,174797.20000000298,174811.858,174978.679,,grey
Trial,flow.Sequence,2_54_0,2022-06-03T12:51:58.434Z,,,0,V,1833.242000002967,completion,,,174962.5,174960.70000000298,173110.781,173117.90000000224,173127.458,174978.679,,grey
Frame,canvas.Frame,2_54,2022-06-03T12:51:58.434Z,,,0,V,1835.1420000014768,,,,174962.80000000075,174962.6000000015,173110.781,173117.20000000298,173127.458,174978.679,,grey
Fixation,canvas.Screen,2_55_0_0,2022-06-03T12:52:00.269Z,,,1,AV,1834.5950000000012,timeout,,,176797.80000000075,176796.596,174962.002,174963.90000000224,174978.679,176813.274,,grey
Stimulus,canvas.Screen,2_55_0_1,2022-06-03T12:52:00.369Z,,,1,AV,99.44599999999627,timeout,,,176897.80000000075,176896.047,176796.596,176798.1000000015,176813.274,176912.72,,grey
Reaction,canvas.Screen,2_55_0_2,2022-06-03T12:52:00.587Z,,,1,AV,201.77999999999884,response,stim_detected,mousedown,177116,177114.5,176896.047,176898,176912.72,177130.089,,grey
Trial,flow.Sequence,2_55_0,2022-06-03T12:52:00.588Z,,,1,AV,2135.8209999999963,completion,,,177116.30000000075,177114.5,174962.002,174963.70000000298,174978.679,177130.089,,grey
Frame,canvas.Frame,2_55,2022-06-03T12:52:00.588Z,,,1,AV,2137.8209999999963,,,,177116.70000000298,177116.5,174962.002,174963,174978.679,177130.089,,grey
Fixation,canvas.Screen,2_56_0_0,2022-06-03T12:52:02.320Z,,,1,AV,1734.173999999999,timeout,,,178848.90000000224,178847.588,177113.412,177117.70000000298,177130.089,178864.263,,grey
Stimulus,canvas.Screen,2_56_0_1,2022-06-03T12:52:02.420Z,,,1,AV,100.36799999998766,timeout,,,178948.80000000075,178947.703,178847.588,178849.1000000015,178864.263,178964.631,,grey
Reaction,canvas.Screen,2_56_0_2,2022-06-03T12:52:02.580Z,,,1,AV,141.96900000149617,response,stim_detected,mousedown,179108,179106.6000000015,178947.703,178949.1000000015,178964.631,179114.724,,grey
Trial,flow.Sequence,2_56_0,2022-06-03T12:52:02.580Z,,,1,AV,1976.511000001483,completion,,,179108.30000000075,179106.6000000015,177113.412,177117.6000000015,177130.089,179114.724,,grey
Frame,canvas.Frame,2_56,2022-06-03T12:52:02.580Z,,,1,AV,1978.4109999999928,,,,179108.6000000015,179108.5,177113.412,177116.90000000224,177130.089,179114.724,,grey
Fixation,canvas.Screen,2_57_0_0,2022-06-03T12:52:04.438Z,,,1,AV,1867.8270000000193,timeout,,,180966.90000000224,180965.874,179098.047,179109.6000000015,179114.724,180982.551,,grey
Stimulus,canvas.Screen,2_57_0_1,2022-06-03T12:52:04.538Z,,,1,AV,99.99099999997998,timeout,,,181066.90000000224,181065.866,180965.874,180967.20000000298,180982.551,181082.542,,grey
Reaction,canvas.Screen,2_57_0_2,2022-06-03T12:52:04.687Z,,,1,AV,131.95800000001327,response,stim_detected,mousedown,181216,181214.5,181065.866,181067.20000000298,181082.542,181232.793,,grey
Trial,flow.Sequence,2_57_0,2022-06-03T12:52:04.688Z,,,1,AV,2099.7760000000126,completion,,,181216.40000000224,181214.5,179098.047,179109.6000000015,179114.724,181232.793,,grey
Frame,canvas.Frame,2_57,2022-06-03T12:52:04.688Z,,,1,AV,2101.7760000000126,,,,181216.70000000298,181216.5,179098.047,179108.80000000075,179114.724,181232.793,,grey
Fixation,canvas.Screen,2_58_0_0,2022-06-03T12:52:06.459Z,,,0,V,1767.2900000000081,timeout,,,182984.90000000224,182983.41,181216.116,181217.70000000298,181232.793,183000.083,,grey
Stimulus,canvas.Screen,2_58_0_1,2022-06-03T12:52:06.559Z,,,0,V,100.34399999998277,timeout,,,183085,183083.752,182983.41,182985.20000000298,183000.083,183100.427,,grey
Reaction,canvas.Screen,2_58_0_2,2022-06-03T12:52:06.754Z,,,0,V,178.07300000000396,response,stim_detected,mousedown,183280,183278.5,183083.752,183085.20000000298,183100.427,183300.802,,grey
Trial,flow.Sequence,2_58_0,2022-06-03T12:52:06.754Z,,,0,V,2045.7069999999949,completion,,,183280.30000000075,183278.5,181216.116,181217.6000000015,181232.793,183300.802,,grey
Frame,canvas.Frame,2_58,2022-06-03T12:52:06.754Z,,,0,V,2047.7069999999949,,,,183280.70000000298,183280.5,181216.116,181216.80000000075,181232.793,183300.802,,grey
Fixation,canvas.Screen,2_59_0_0,2022-06-03T12:52:09.193Z,,,0,V,2433.8820000000123,timeout,,,185719.20000000298,185718.013,183267.448,183281.70000000298,183300.802,185734.684,,grey
Stimulus,canvas.Screen,2_59_0_1,2022-06-03T12:52:09.294Z,,,0,V,100.76499999998487,timeout,,,185820.1000000015,185818.774,185718.013,185719.5,185734.684,185835.449,,grey
Reaction,canvas.Screen,2_59_0_2,2022-06-03T12:52:09.474Z,,,0,V,163.05100000000675,response,stim_detected,mousedown,186000,185998.5,185818.774,185820.5,185835.449,186002.565,,grey
Trial,flow.Sequence,2_59_0,2022-06-03T12:52:09.474Z,,,0,V,2697.698000000004,completion,,,186000.40000000224,185998.5,183267.448,183281.5,183300.802,186002.565,,grey
Frame,canvas.Frame,2_59,2022-06-03T12:52:09.474Z,,,0,V,2699.698000000004,,,,186000.6000000015,186000.5,183267.448,183280.80000000075,183300.802,186002.565,,grey
Fixation,canvas.Screen,2_60_0_0,2022-06-03T12:52:11.912Z,,,0,V,2451.198000000004,timeout,,,188438.40000000224,188437.088,185985.888,186001.6000000015,186002.565,188453.763,,grey
Stimulus,canvas.Screen,2_60_0_1,2022-06-03T12:52:12.013Z,,,0,V,100.58799999998882,timeout,,,188539.20000000298,188537.672,188437.088,188438.6000000015,188453.763,188554.351,,grey
Reaction,canvas.Screen,2_60_0_2,2022-06-03T12:52:12.162Z,,,0,V,132.04900000224006,response,stim_detected,mousedown,188687.90000000224,188686.40000000224,188537.672,188539.40000000224,188554.351,188704.341,,grey
Trial,flow.Sequence,2_60_0,2022-06-03T12:52:12.162Z,,,0,V,2683.835000002233,completion,,,188688.20000000298,188686.40000000224,185985.888,186001.6000000015,186002.565,188704.341,,grey
Frame,canvas.Frame,2_60,2022-06-03T12:52:12.162Z,,,0,V,2685.7350000007427,,,,188688.5,188688.30000000075,185985.888,186000.80000000075,186002.565,188704.341,,grey
Fixation,canvas.Screen,2_61_0_0,2022-06-03T12:52:14.364Z,,,1,AV,2201.5170000000217,timeout,,,190890.30000000075,190889.18,188687.664,188689.5,188704.341,190905.858,,grey
Stimulus,canvas.Screen,2_61_0_1,2022-06-03T12:52:14.464Z,,,1,AV,99.77700000000186,timeout,,,190990.20000000298,190988.959,190889.18,190890.6000000015,190905.858,191005.635,,grey
Reaction,canvas.Screen,2_61_0_2,2022-06-03T12:52:14.589Z,,,1,AV,107.56500000297092,response,stim_detected,mousedown,191114.90000000224,191113.20000000298,190988.959,190990.5,191005.635,191122.598,,grey
Trial,flow.Sequence,2_61_0,2022-06-03T12:52:14.589Z,,,1,AV,2408.8590000029944,completion,,,191115.40000000224,191113.20000000298,188687.664,188689.40000000224,188704.341,191122.598,,grey
Frame,canvas.Frame,2_61,2022-06-03T12:52:14.590Z,,,1,AV,2411.2590000015043,,,,191115.80000000075,191115.6000000015,188687.664,188688.70000000298,188704.341,191122.598,,grey
Fixation,canvas.Screen,2_62_0_0,2022-06-03T12:52:16.365Z,,,1,A,1784.3209999999963,timeout,,,192891.5,192890.243,191105.921,191116.90000000224,191122.598,192906.919,,black
Stimulus,canvas.Screen,2_62_0_1,2022-06-03T12:52:16.465Z,,,1,A,99.7039999999979,timeout,,,192991.30000000075,192989.95,192890.243,192892,192906.919,193006.623,,black
Reaction,canvas.Screen,2_62_0_2,2022-06-03T12:52:16.697Z,,,1,A,214.77700000224286,response,stim_detected,mousedown,193223.5,193221.40000000224,192989.95,192991.6000000015,193006.623,193240.658,,black
Trial,flow.Sequence,2_62_0,2022-06-03T12:52:16.698Z,,,1,A,2098.802000002237,completion,,,193223.90000000224,193221.40000000224,191105.921,191116.90000000224,191122.598,193240.658,,black
Frame,canvas.Frame,2_62,2022-06-03T12:52:16.698Z,,,1,A,2101.402000000002,,,,193224.20000000298,193224,191105.921,191115.90000000224,191122.598,193240.658,,black
Fixation,canvas.Screen,2_63_0_0,2022-06-03T12:52:18.983Z,,,1,A,2283.8300000000163,timeout,,,195509.70000000298,195507.817,193223.981,193225.40000000224,193240.658,195524.488,,black
Stimulus,canvas.Screen,2_63_0_1,2022-06-03T12:52:19.084Z,,,1,A,101.06699999998091,timeout,,,195610.6000000015,195608.876,195507.817,195510,195524.488,195625.555,,black
Reaction,canvas.Screen,2_63_0_2,2022-06-03T12:52:19.420Z,,,1,A,319.74500000075204,response,stim_detected,mousedown,195946.70000000298,195945.30000000075,195608.876,195610.90000000224,195625.555,195959.034,,black
Trial,flow.Sequence,2_63_0,2022-06-03T12:52:19.421Z,,,1,A,2704.6420000007492,completion,,,195947.1000000015,195945.30000000075,193223.981,193225.30000000075,193240.658,195959.034,,black
Frame,canvas.Frame,2_63,2022-06-03T12:52:19.421Z,,,1,A,2706.6420000007492,,,,195947.5,195947.30000000075,193223.981,193224.40000000224,193240.658,195959.034,,black
Fixation,canvas.Screen,2_64_0_0,2022-06-03T12:52:20.986Z,,,1,A,1568.7119999999995,timeout,,,197512.6000000015,197511.059,195942.358,195949,195959.034,197527.746,,black
Stimulus,canvas.Screen,2_64_0_1,2022-06-03T12:52:21.086Z,,,1,A,99.00099999998929,timeout,,,197611.80000000075,197610.071,197511.059,197512.90000000224,197527.746,197626.747,,black
Reaction,canvas.Screen,2_64_0_2,2022-06-03T12:52:21.407Z,,,1,A,304.9530000029772,response,stim_detected,mousedown,197933.6000000015,197931.70000000298,197610.071,197612,197626.747,197943.724,,black
Trial,flow.Sequence,2_64_0,2022-06-03T12:52:21.408Z,,,1,A,1972.666000002966,completion,,,197934.1000000015,197931.70000000298,195942.358,195948.90000000224,195959.034,197943.724,,black
Frame,canvas.Frame,2_64,2022-06-03T12:52:21.408Z,,,1,A,1975.166000002966,,,,197934.40000000224,197934.20000000298,195942.358,195947.80000000075,195959.034,197943.724,,black
Fixation,canvas.Screen,2_65_0_0,2022-06-03T12:52:23.470Z,,,1,A,2068.0990000000165,timeout,,,199996.70000000298,199995.145,197927.047,197935.40000000224,197943.724,200011.823,,black
Stimulus,canvas.Screen,2_65_0_1,2022-06-03T12:52:23.571Z,,,1,A,99.90099999998347,timeout,,,200096.90000000224,200095.048,199995.145,199996.90000000224,200011.823,200111.724,,black
Reaction,canvas.Screen,2_65_0_2,2022-06-03T12:52:23.807Z,,,1,A,220.3760000015027,response,stim_detected,mousedown,200333.70000000298,200332.1000000015,200095.048,200097.1000000015,200111.724,200345.308,,black
Trial,flow.Sequence,2_65_0,2022-06-03T12:52:23.808Z,,,1,A,2388.3760000015027,completion,,,200334.1000000015,200332.1000000015,197927.047,197935.20000000298,197943.724,200345.308,,black
Frame,canvas.Frame,2_65,2022-06-03T12:52:23.808Z,,,1,A,2390.476000002993,,,,200334.40000000224,200334.20000000298,197927.047,197934.5,197943.724,200345.308,,black
Fixation,canvas.Screen,2_66_0_0,2022-06-03T12:52:25.937Z,,,0,V,2133.9370000000054,timeout,,,202463.70000000298,202462.573,200328.631,200335.5,200345.308,202479.245,,grey
Stimulus,canvas.Screen,2_66_0_1,2022-06-03T12:52:26.039Z,,,0,V,100.95999999999185,timeout,,,202565,202563.526,202462.573,202463.90000000224,202479.245,202580.205,,grey
Reaction,canvas.Screen,2_66_0_2,2022-06-03T12:52:26.214Z,,,0,V,158.89500000150292,response,stim_detected,mousedown,202740.5,202739.1000000015,202563.526,202565.1000000015,202580.205,202746.835,,grey
Trial,flow.Sequence,2_66_0,2022-06-03T12:52:26.215Z,,,0,V,2393.7920000015,completion,,,202741,202739.1000000015,200328.631,200335.40000000224,200345.308,202746.835,,grey
Frame,canvas.Frame,2_66,2022-06-03T12:52:26.215Z,,,0,V,2395.7920000015,,,,202741.40000000224,202741.1000000015,200328.631,200334.6000000015,200345.308,202746.835,,grey
Fixation,canvas.Screen,2_67_0_0,2022-06-03T12:52:28.693Z,,,0,V,2487.5990000000165,timeout,,,205218.80000000075,205217.739,202730.159,202742.6000000015,202746.835,205234.434,,grey
Stimulus,canvas.Screen,2_67_0_1,2022-06-03T12:52:28.790Z,,,0,V,96.78699999998207,timeout,,,205315.80000000075,205314.548,205217.739,205219.1000000015,205234.434,205331.221,,grey
Reaction,canvas.Screen,2_67_0_2,2022-06-03T12:52:28.930Z,,,0,V,123.77900000000955,response,stim_detected,mousedown,205456.40000000224,205455,205314.548,205316.1000000015,205331.221,205465.32,,grey
Trial,flow.Sequence,2_67_0,2022-06-03T12:52:28.931Z,,,0,V,2708.165000000008,completion,,,205456.80000000075,205455,202730.159,202742.40000000224,202746.835,205465.32,,grey
Frame,canvas.Frame,2_67,2022-06-03T12:52:28.931Z,,,0,V,2710.165000000008,,,,205457.20000000298,205457,202730.159,202741.5,202746.835,205465.32,,grey
Fixation,canvas.Screen,2_68_0_0,2022-06-03T12:52:31.160Z,,,1,AV,2235.5969999999797,timeout,,,207685.80000000075,207684.234,205448.643,205458.20000000298,205465.32,207700.917,,grey
Stimulus,canvas.Screen,2_68_0_1,2022-06-03T12:52:31.259Z,,,1,AV,99.13000000000466,timeout,,,207784.90000000224,207783.371,207684.234,207686,207700.917,207800.047,,grey
Reaction,canvas.Screen,2_68_0_2,2022-06-03T12:52:31.370Z,,,1,AV,94.95300000000861,response,stim_detected,mousedown,207896.40000000224,207895,207783.371,207785.20000000298,207800.047,207900.262,,grey
Trial,flow.Sequence,2_68_0,2022-06-03T12:52:31.371Z,,,1,AV,2429.679999999993,completion,,,207896.80000000075,207895,205448.643,205458.1000000015,205465.32,207900.262,,grey
Frame,canvas.Frame,2_68,2022-06-03T12:52:31.371Z,,,1,AV,2431.679999999993,,,,207897.20000000298,207897,205448.643,205457.30000000075,205465.32,207900.262,,grey
Fixation,canvas.Screen,2_69_0_0,2022-06-03T12:52:32.894Z,,,1,A,1534.6940000000177,timeout,,,209419.90000000224,209418.275,207883.585,207898.20000000298,207900.262,209434.956,,black
Stimulus,canvas.Screen,2_69_0_1,2022-06-03T12:52:32.993Z,,,1,A,99.43599999998696,timeout,,,209519,209517.718,209418.275,209420.1000000015,209434.956,209534.392,,black
Reaction,canvas.Screen,2_69_0_2,2022-06-03T12:52:33.182Z,,,1,A,171.60800000000745,response,stim_detected,mousedown,209708.1000000015,209706,209517.718,209519.30000000075,209534.392,209718.094,,black
Trial,flow.Sequence,2_69_0,2022-06-03T12:52:33.182Z,,,1,A,1805.738000000012,completion,,,209708.6000000015,209706,207883.585,207898.1000000015,207900.262,209718.094,,black
Frame,canvas.Frame,2_69,2022-06-03T12:52:33.183Z,,,1,A,1808.4380000029923,,,,209709,209708.70000000298,207883.585,207897.30000000075,207900.262,209718.094,,black
Fixation,canvas.Screen,2_70_0_0,2022-06-03T12:52:34.829Z,,,1,A,1651.941999999981,timeout,,,211355,211353.351,209701.417,209710,209718.094,211370.036,,black
Stimulus,canvas.Screen,2_70_0_1,2022-06-03T12:52:34.928Z,,,1,A,98.88800000000629,timeout,,,211453.80000000075,211452.25,211353.351,211355.30000000075,211370.036,211468.924,,black
Reaction,canvas.Screen,2_70_0_2,2022-06-03T12:52:35.073Z,,,1,A,128.9760000022361,response,stim_detected,mousedown,211599.40000000224,211597.90000000224,211452.25,211454.1000000015,211468.924,211602.678,,black
Trial,flow.Sequence,2_70_0,2022-06-03T12:52:35.074Z,,,1,A,1879.8060000022233,completion,,,211599.80000000075,211597.90000000224,209701.417,209709.90000000224,209718.094,211602.678,,black
Frame,canvas.Frame,2_70,2022-06-03T12:52:35.074Z,,,1,A,1881.9059999999881,,,,211600.1000000015,211600,209701.417,209709.1000000015,209718.094,211602.678,,black
Fixation,canvas.Screen,2_71_0_0,2022-06-03T12:52:36.980Z,,,1,AV,1918.6229999999923,timeout,,,213506.1000000015,213504.618,211586.001,211601.20000000298,211602.678,213521.301,,grey
Stimulus,canvas.Screen,2_71_0_1,2022-06-03T12:52:37.079Z,,,1,AV,99.25899999999092,timeout,,,213605,213603.884,213504.618,213506.40000000224,213521.301,213620.56,,grey
Reaction,canvas.Screen,2_71_0_2,2022-06-03T12:52:37.214Z,,,1,AV,118.3400000022375,response,stim_detected,mousedown,213740.30000000075,213738.90000000224,213603.884,213605.30000000075,213620.56,213754.107,,grey
Trial,flow.Sequence,2_71_0,2022-06-03T12:52:37.214Z,,,1,AV,2136.2220000022207,completion,,,213740.70000000298,213738.90000000224,211586.001,211601.1000000015,211602.678,213754.107,,grey
Frame,canvas.Frame,2_71,2022-06-03T12:52:37.215Z,,,1,AV,2138.1220000007306,,,,213741.1000000015,213740.80000000075,211586.001,211600.30000000075,211602.678,213754.107,,grey
Fixation,canvas.Screen,2_72_0_0,2022-06-03T12:52:39.681Z,,,0,V,2468.207000000024,timeout,,,216207.40000000224,216205.637,213737.43,213742.1000000015,213754.107,216222.314,,grey
Stimulus,canvas.Screen,2_72_0_1,2022-06-03T12:52:39.781Z,,,0,V,100.23299999997835,timeout,,,216307.30000000075,216305.868,216205.637,216207.6000000015,216222.314,216322.547,,grey
Reaction,canvas.Screen,2_72_0_2,2022-06-03T12:52:39.921Z,,,0,V,123.45300000000861,response,stim_detected,mousedown,216447.5,216446,216305.868,216307.6000000015,216322.547,216455.886,,grey
Trial,flow.Sequence,2_72_0,2022-06-03T12:52:39.922Z,,,0,V,2691.893000000011,completion,,,216447.90000000224,216446,213737.43,213742,213754.107,216455.886,,grey
Frame,canvas.Frame,2_72,2022-06-03T12:52:39.922Z,,,0,V,2693.893000000011,,,,216448.30000000075,216448,213737.43,213741.20000000298,213754.107,216455.886,,grey
Fixation,canvas.Screen,2_73_0_0,2022-06-03T12:52:41.715Z,,,1,A,1801.1270000000077,timeout,,,218241.40000000224,218240.336,216439.209,216449.40000000224,216455.886,218257.013,,black
Stimulus,canvas.Screen,2_73_0_1,2022-06-03T12:52:41.815Z,,,1,A,100.10899999999674,timeout,,,218341.40000000224,218340.377,218240.336,218241.80000000075,218257.013,218357.122,,black
Reaction,canvas.Screen,2_73_0_2,2022-06-03T12:52:42.020Z,,,1,A,187.5780000029772,response,stim_detected,mousedown,218546.40000000224,218544.70000000298,218340.377,218341.70000000298,218357.122,218557.246,,black
Trial,flow.Sequence,2_73_0,2022-06-03T12:52:42.021Z,,,1,A,2088.8140000029816,completion,,,218546.90000000224,218544.70000000298,216439.209,216449.20000000298,216455.886,218557.246,,black
Frame,canvas.Frame,2_73,2022-06-03T12:52:42.021Z,,,1,A,2091.1140000000014,,,,218547.20000000298,218547,216439.209,216448.5,216455.886,218557.246,,black
Fixation,canvas.Screen,2_74_0_0,2022-06-03T12:52:43.951Z,,,0,V,1934.93299999999,timeout,,,220477.40000000224,220475.499,218540.569,218548.30000000075,218557.246,220492.179,,grey
Stimulus,canvas.Screen,2_74_0_1,2022-06-03T12:52:44.050Z,,,0,V,99.8299999999872,timeout,,,220576.30000000075,220575.331,220475.499,220477.70000000298,220492.179,220592.009,,grey
Reaction,canvas.Screen,2_74_0_2,2022-06-03T12:52:44.199Z,,,0,V,131.6910000029893,response,stim_detected,mousedown,220725.20000000298,220723.70000000298,220575.331,220576.5,220592.009,220742.053,,grey
Trial,flow.Sequence,2_74_0,2022-06-03T12:52:44.199Z,,,0,V,2166.4540000029665,completion,,,220725.6000000015,220723.70000000298,218540.569,218548.20000000298,218557.246,220742.053,,grey
Frame,canvas.Frame,2_74,2022-06-03T12:52:44.200Z,,,0,V,2168.5540000007313,,,,220725.90000000224,220725.80000000075,218540.569,218547.40000000224,218557.246,220742.053,,grey
Fixation,canvas.Screen,2_75_0_0,2022-06-03T12:52:45.934Z,,,0,V,1733.8219999999856,timeout,,,222460.40000000224,222459.203,220725.376,220727.1000000015,220742.053,222475.875,,grey
Stimulus,canvas.Screen,2_75_0_1,2022-06-03T12:52:46.035Z,,,0,V,100.7840000000142,timeout,,,222561.40000000224,222559.98,222459.203,222460.70000000298,222475.875,222576.659,,grey
Reaction,canvas.Screen,2_75_0_2,2022-06-03T12:52:46.194Z,,,0,V,142.04100000296603,response,stim_detected,mousedown,222720.1000000015,222718.70000000298,222559.98,222562.70000000298,222576.659,222726.618,,grey
Trial,flow.Sequence,2_75_0,2022-06-03T12:52:46.194Z,,,0,V,1976.6470000029658,completion,,,222720.40000000224,222718.70000000298,220725.376,220726.90000000224,220742.053,222726.618,,grey
Frame,canvas.Frame,2_75,2022-06-03T12:52:46.195Z,,,0,V,1978.5470000014757,,,,222720.80000000075,222720.6000000015,220725.376,220726.1000000015,220742.053,222726.618,,grey
Fixation,canvas.Screen,2_76_0_0,2022-06-03T12:52:47.703Z,,,1,A,1518.5440000000235,timeout,,,224229.40000000224,224228.476,222709.942,222721.90000000224,222726.618,224245.162,,black
Stimulus,canvas.Screen,2_76_0_1,2022-06-03T12:52:47.802Z,,,1,A,98.99399999997695,timeout,,,224328.70000000298,224327.481,224228.476,224229.70000000298,224245.162,224344.156,,black
Reaction,canvas.Screen,2_76_0_2,2022-06-03T12:52:48.072Z,,,1,A,251.34400000001187,response,stim_detected,mousedown,224598.40000000224,224595.5,224327.481,224328.90000000224,224344.156,224611.211,,black
Trial,flow.Sequence,2_76_0,2022-06-03T12:52:48.073Z,,,1,A,1868.8820000000123,completion,,,224598.70000000298,224595.5,222709.942,222721.80000000075,222726.618,224611.211,,black
Frame,canvas.Frame,2_76,2022-06-03T12:52:48.073Z,,,1,A,1872.1820000007574,,,,224599,224598.80000000075,222709.942,222721,222726.618,224611.211,,black
Fixation,canvas.Screen,2_77_0_0,2022-06-03T12:52:49.938Z,,,0,V,1868.6449999999895,timeout,,,226464.6000000015,226463.172,224594.534,224600.5,224611.211,226479.856,,grey
Stimulus,canvas.Screen,2_77_0_1,2022-06-03T12:52:50.037Z,,,0,V,99.36900000000605,timeout,,,226563.70000000298,226562.548,226463.172,226464.80000000075,226479.856,226579.225,,grey
Reaction,canvas.Screen,2_77_0_2,2022-06-03T12:52:50.182Z,,,0,V,127.3750000014843,response,stim_detected,mousedown,226708.1000000015,226706.6000000015,226562.548,226563.90000000224,226579.225,226712.605,,grey
Trial,flow.Sequence,2_77_0,2022-06-03T12:52:50.182Z,,,0,V,2095.38900000148,completion,,,226708.40000000224,226706.6000000015,224594.534,224600.40000000224,224611.211,226712.605,,grey
Frame,canvas.Frame,2_77,2022-06-03T12:52:50.183Z,,,0,V,2097.38900000148,,,,226708.80000000075,226708.6000000015,224594.534,224599.20000000298,224611.211,226712.605,,grey
Fixation,canvas.Screen,2_78_0_0,2022-06-03T12:52:52.539Z,,,0,V,2368.142999999982,timeout,,,229065.6000000015,229064.071,226695.928,226709.90000000224,226712.605,229080.748,,grey
Stimulus,canvas.Screen,2_78_0_1,2022-06-03T12:52:52.639Z,,,0,V,100.20100000000093,timeout,,,229165.5,229164.271,229064.071,229065.90000000224,229080.748,229180.949,,grey
Reaction,canvas.Screen,2_78_0_2,2022-06-03T12:52:52.801Z,,,0,V,144.55100000000675,response,stim_detected,mousedown,229327.1000000015,229325.5,229164.271,229165.90000000224,229180.949,229330.932,,grey
Trial,flow.Sequence,2_78_0,2022-06-03T12:52:52.801Z,,,0,V,2612.8949999999895,completion,,,229327.5,229325.5,226695.928,226709.70000000298,226712.605,229330.932,,grey
Frame,canvas.Frame,2_78,2022-06-03T12:52:52.802Z,,,0,V,2614.9950000014796,,,,229327.90000000224,229327.6000000015,226695.928,226708.90000000224,226712.605,229330.932,,grey
Fixation,canvas.Screen,2_79_0_0,2022-06-03T12:52:55.010Z,,,1,A,2220.252999999997,timeout,,,231535.80000000075,231534.492,229314.256,229329,229330.932,231551.185,,black
Stimulus,canvas.Screen,2_79_0_1,2022-06-03T12:52:55.108Z,,,1,A,98.03200000000652,timeout,,,231633.90000000224,231632.54,231534.492,231536.1000000015,231551.185,231649.217,,black
Reaction,canvas.Screen,2_79_0_2,2022-06-03T12:52:55.374Z,,,1,A,249.18300000223098,response,stim_detected,mousedown,231900,231898.40000000224,231632.54,231634.20000000298,231649.217,231916.022,,black
Trial,flow.Sequence,2_79_0,2022-06-03T12:52:55.374Z,,,1,A,2567.4680000022345,completion,,,231900.6000000015,231898.40000000224,229314.256,229329,229330.932,231916.022,,black
Frame,canvas.Frame,2_79,2022-06-03T12:52:55.375Z,,,1,A,2569.7680000029795,,,,231900.90000000224,231900.70000000298,229314.256,229328,229330.932,231916.022,,black
Fixation,canvas.Screen,2_80_0_0,2022-06-03T12:52:57.258Z,,,0,V,1883.853999999992,timeout,,,233784.5,233783.204,231899.345,231901.90000000224,231916.022,233799.876,,grey
Stimulus,canvas.Screen,2_80_0_1,2022-06-03T12:52:57.359Z,,,0,V,100.78300000002491,timeout,,,233885.30000000075,233883.981,233783.204,233784.6000000015,233799.876,233900.659,,grey
Reaction,canvas.Screen,2_80_0_2,2022-06-03T12:52:57.512Z,,,0,V,135.74100000222097,response,stim_detected,mousedown,234037.80000000075,234036.40000000224,233883.981,233885.30000000075,233900.659,234050.709,,grey
Trial,flow.Sequence,2_80_0,2022-06-03T12:52:57.512Z,,,0,V,2120.378000002238,completion,,,234038.20000000298,234036.40000000224,231899.345,231901.90000000224,231916.022,234050.709,,grey
Frame,canvas.Frame,2_80,2022-06-03T12:52:57.512Z,,,0,V,2122.378000002238,,,,234038.5,234038.40000000224,231899.345,231901.1000000015,231916.022,234050.709,,grey
Fixation,canvas.Screen,2_81_0_0,2022-06-03T12:52:59.211Z,,,1,A,1701.3099999999977,timeout,,,235736.80000000075,235735.34,234034.033,234039.5,234050.709,235752.019,,black
Stimulus,canvas.Screen,2_81_0_1,2022-06-03T12:52:59.311Z,,,1,A,100.00399999998626,timeout,,,235836.90000000224,235835.343,235735.34,235737.1000000015,235752.019,235852.023,,black
Reaction,canvas.Screen,2_81_0_2,2022-06-03T12:52:59.659Z,,,1,A,331.27700000075856,response,stim_detected,mousedown,236184.80000000075,236183.30000000075,235835.343,235837.1000000015,235852.023,236202.157,,black
Trial,flow.Sequence,2_81_0,2022-06-03T12:52:59.659Z,,,1,A,2132.5910000007425,completion,,,236185.1000000015,236183.30000000075,234034.033,234039.40000000224,234050.709,236202.157,,black
Frame,canvas.Frame,2_81,2022-06-03T12:52:59.659Z,,,1,A,2134.4910000029777,,,,236185.5,236185.20000000298,234034.033,234038.70000000298,234050.709,236202.157,,black
Fixation,canvas.Screen,2_82_0_0,2022-06-03T12:53:01.729Z,,,0,V,2068.532999999996,timeout,,,238254.90000000224,238254.009,236185.48,236186.70000000298,236202.157,238270.69,,grey
Stimulus,canvas.Screen,2_82_0_1,2022-06-03T12:53:01.829Z,,,0,V,99.4780000000028,timeout,,,238355.1000000015,238353.492,238254.009,238255.20000000298,238270.69,238370.168,,grey
Reaction,canvas.Screen,2_82_0_2,2022-06-03T12:53:02.006Z,,,0,V,160.13200000073994,response,stim_detected,mousedown,238532,238530.30000000075,238353.492,238355.30000000075,238370.168,238553.697,,grey
Trial,flow.Sequence,2_82_0,2022-06-03T12:53:02.006Z,,,0,V,2328.1430000007385,completion,,,238532.5,238530.30000000075,236185.48,236186.6000000015,236202.157,238553.697,,grey
Frame,canvas.Frame,2_82,2022-06-03T12:53:02.007Z,,,0,V,2330.4430000014836,,,,238532.80000000075,238532.6000000015,236185.48,236185.6000000015,236202.157,238553.697,,grey
Fixation,canvas.Screen,2_83_0_0,2022-06-03T12:53:03.564Z,,,1,AV,1551.5220000000263,timeout,,,240090.1000000015,240088.536,238520.343,238533.90000000224,238553.697,240105.219,,grey
Stimulus,canvas.Screen,2_83_0_1,2022-06-03T12:53:03.663Z,,,1,AV,99.5799999999872,timeout,,,240189.1000000015,240187.685,240088.536,240090.40000000224,240105.219,240204.799,,grey
Reaction,canvas.Screen,2_83_0_2,2022-06-03T12:53:03.842Z,,,1,AV,161.501000000746,response,stim_detected,mousedown,240367.70000000298,240366.30000000075,240187.685,240189.30000000075,240204.799,240371.569,,grey
Trial,flow.Sequence,2_83_0,2022-06-03T12:53:03.842Z,,,1,AV,1812.6030000007595,completion,,,240368.1000000015,240366.30000000075,238520.343,238533.80000000075,238553.697,240371.569,,grey
Frame,canvas.Frame,2_83,2022-06-03T12:53:03.842Z,,,1,AV,1814.6030000007595,,,,240368.5,240368.30000000075,238520.343,238533,238553.697,240371.569,,grey
Fixation,canvas.Screen,2_84_0_0,2022-06-03T12:53:06.049Z,,,0,V,2218.3460000000196,timeout,,,242575.1000000015,242573.236,240354.892,240369.6000000015,240371.569,242589.915,,grey
Stimulus,canvas.Screen,2_84_0_1,2022-06-03T12:53:06.148Z,,,0,V,99.84299999999348,timeout,,,242674.30000000075,242672.861,242573.236,242575.5,242589.915,242689.758,,grey
Reaction,canvas.Screen,2_84_0_2,2022-06-03T12:53:06.316Z,,,0,V,150.54200000074343,response,stim_detected,mousedown,242841.90000000224,242840.30000000075,242672.861,242674.5,242689.758,242856.528,,grey
Trial,flow.Sequence,2_84_0,2022-06-03T12:53:06.316Z,,,0,V,2468.7310000007565,completion,,,242842.30000000075,242840.30000000075,240354.892,240369.40000000224,240371.569,242856.528,,grey
Frame,canvas.Frame,2_84,2022-06-03T12:53:06.317Z,,,0,V,2470.9310000000114,,,,242842.70000000298,242842.5,240354.892,240368.70000000298,240371.569,242856.528,,grey
Fixation,canvas.Screen,2_85_0_0,2022-06-03T12:53:08.350Z,,,0,V,2034.8699999999953,timeout,,,244876.1000000015,244874.719,242839.851,242843.90000000224,242856.528,244891.398,,grey
Stimulus,canvas.Screen,2_85_0_1,2022-06-03T12:53:08.451Z,,,0,V,99.77500000002328,timeout,,,244976.20000000298,244974.497,244874.719,244876.40000000224,244891.398,244991.173,,grey
Reaction,canvas.Screen,2_85_0_2,2022-06-03T12:53:08.611Z,,,0,V,144.12700000073528,response,stim_detected,mousedown,245136.70000000298,245135.30000000075,244974.497,244976.40000000224,244991.173,245141.402,,grey
Trial,flow.Sequence,2_85_0,2022-06-03T12:53:08.611Z,,,0,V,2278.772000000754,completion,,,245137,245135.30000000075,242839.851,242843.80000000075,242856.528,245141.402,,grey
Frame,canvas.Frame,2_85,2022-06-03T12:53:08.612Z,,,0,V,2280.572000001499,,,,245137.30000000075,245137.1000000015,242839.851,242842.90000000224,242856.528,245141.402,,grey
Fixation,canvas.Screen,2_86_0_0,2022-06-03T12:53:10.135Z,,,1,A,1533.7649999999849,timeout,,,246660.20000000298,246658.495,245124.725,245138.40000000224,245141.402,246675.167,,black
Stimulus,canvas.Screen,2_86_0_1,2022-06-03T12:53:10.235Z,,,1,A,100.5460000000021,timeout,,,246760.20000000298,246759.037,246658.495,246660.5,246675.167,246775.713,,black
Reaction,canvas.Screen,2_86_0_2,2022-06-03T12:53:10.573Z,,,1,A,322.18700000224635,response,stim_detected,mousedown,247098.80000000075,247097.90000000224,246759.037,246760.40000000224,246775.713,247109.32,,black
Trial,flow.Sequence,2_86_0,2022-06-03T12:53:10.573Z,,,1,A,1956.4980000022333,completion,,,247099,247097.90000000224,245124.725,245138.30000000075,245141.402,247109.32,,black
Frame,canvas.Frame,2_86,2022-06-03T12:53:10.573Z,,,1,A,1957.6980000014883,,,,247099.20000000298,247099.1000000015,245124.725,245137.5,245141.402,247109.32,,black
Fixation,canvas.Screen,2_87_0_0,2022-06-03T12:53:12.919Z,,,0,V,2350.8010000000068,timeout,,,249445,249443.448,247092.643,247100,247109.32,249460.121,,grey
Stimulus,canvas.Screen,2_87_0_1,2022-06-03T12:53:13.020Z,,,0,V,100.47099999999045,timeout,,,249545.5,249543.917,249443.448,249445.30000000075,249460.121,249560.592,,grey
Reaction,canvas.Screen,2_87_0_2,2022-06-03T12:53:13.187Z,,,0,V,128.20800000074087,response,stim_detected,mousedown,249712.20000000298,249688.80000000075,249543.917,249545.80000000075,249560.592,249727.716,,grey
Trial,flow.Sequence,2_87_0,2022-06-03T12:53:13.187Z,,,0,V,2579.480000000738,completion,,,249712.6000000015,249688.80000000075,247092.643,247099.90000000224,247109.32,249727.716,,grey
Frame,canvas.Frame,2_87,2022-06-03T12:53:13.187Z,,,0,V,2603.280000001483,,,,249712.70000000298,249712.6000000015,247092.643,247099.20000000298,247109.32,249727.716,,grey
Fixation,canvas.Screen,2_88_0_0,2022-06-03T12:53:14.804Z,,,1,A,1617.3450000000012,timeout,,,251329.40000000224,251328.387,249711.039,249713.40000000224,249727.716,251345.061,,black
Stimulus,canvas.Screen,2_88_0_1,2022-06-03T12:53:14.905Z,,,1,A,100.51400000002468,timeout,,,251430.40000000224,251428.897,251328.387,251329.70000000298,251345.061,251445.575,,black
Reaction,canvas.Screen,2_88_0_2,2022-06-03T12:53:15.210Z,,,1,A,288.42499999998836,response,stim_detected,mousedown,251735.5,251734,251428.897,251430.6000000015,251445.575,251745.64,,black
Trial,flow.Sequence,2_88_0,2022-06-03T12:53:15.210Z,,,1,A,2006.2840000000142,completion,,,251735.90000000224,251734,249711.039,249713.40000000224,249727.716,251745.64,,black
Frame,canvas.Frame,2_88,2022-06-03T12:53:15.211Z,,,1,A,2008.2840000000142,,,,251736.20000000298,251736,249711.039,249712.80000000075,249727.716,251745.64,,black
Fixation,canvas.Screen,2_89_0_0,2022-06-03T12:53:17.308Z,,,1,A,2102.7309999999998,timeout,,,253833.5,253831.684,251728.964,251737.20000000298,251745.64,253848.371,,black
Stimulus,canvas.Screen,2_89_0_1,2022-06-03T12:53:17.407Z,,,1,A,98.7949999999837,timeout,,,253932.80000000075,253930.383,253831.684,253833.80000000075,253848.371,253947.166,,black
Reaction,canvas.Screen,2_89_0_2,2022-06-03T12:53:17.620Z,,,1,A,196.83400000000256,response,stim_detected,mousedown,254145.40000000224,254144,253930.383,253933,253947.166,254147.29,,black
Trial,flow.Sequence,2_89_0,2022-06-03T12:53:17.620Z,,,1,A,2398.359999999986,completion,,,254145.80000000075,254144,251728.964,251737.1000000015,251745.64,254147.29,,black
Frame,canvas.Frame,2_89,2022-06-03T12:53:17.620Z,,,1,A,2400.260000002221,,,,254146.1000000015,254145.90000000224,251728.964,251736.40000000224,251745.64,254147.29,,black
Fixation,canvas.Screen,2_90_0_0,2022-06-03T12:53:20.041Z,,,1,A,2434.6870000000054,timeout,,,256566.6000000015,256565.301,254130.613,254147.1000000015,254147.29,256581.977,,black
Stimulus,canvas.Screen,2_90_0_1,2022-06-03T12:53:20.141Z,,,1,A,100.31699999998091,timeout,,,256666.90000000224,256665.493,256565.301,256566.80000000075,256581.977,256682.294,,black
Reaction,canvas.Screen,2_90_0_2,2022-06-03T12:53:20.372Z,,,1,A,213.60600000224076,response,stim_detected,mousedown,256897.40000000224,256895.90000000224,256665.493,256667.1000000015,256682.294,256915.772,,black
Trial,flow.Sequence,2_90_0,2022-06-03T12:53:20.372Z,,,1,A,2748.610000002227,completion,,,256897.90000000224,256895.90000000224,254130.613,254147,254147.29,256915.772,,black
Frame,canvas.Frame,2_90,2022-06-03T12:53:20.373Z,,,1,A,2750.709999999992,,,,256898.20000000298,256898,254130.613,254146.30000000075,254147.29,256915.772,,black
Loop,flow.Loop,2,2022-06-03T12:53:20.373Z,,,,,205833.288,completion,,,256898.6000000015,256898,51048.029,51050.300000000745,51064.712,256915.772,,
end,html.Page,3,2022-06-03T12:53:26.120Z,,,,,5729.728000000003,form submission,,,262646.1000000015,262645.5,256899.095,256898.90000000224,256915.772,262653.601,,
root,flow.Sequence,,2022-06-03T12:53:26.122Z,,,,,261047.303,completion,,,262647.200000003,262645.5,1581.521,1589.5,1598.197,262653.601,,