sender,sender_type,sender_id,timestamp,meta,,aud,condition,duration,ended_on,response,response_action,time_commit,time_end,time_render,time_run,time_show,time_switch,url,vis
Instructions,html.Page,0,2022-07-14T15:43:04.140Z,"{""labjs_version"":""20.2.4"",""labjs_build"":{""flavor"":""production"",""commit"":""f5b4a49f956347addd546a832a3327688c2c0fef""},""location"":""file:///C:/Users/Proband%207/Desktop/RTE/index.html"",""userAgent"":""Mozilla/5.0 (Windows NT 6.1; Win64; x64) AppleWebKit/537.36 (KHTML, like Gecko) Chrome/103.0.0.0 Safari/537.36"",""platform"":""Win32"",""language"":""de-DE"",""locale"":""de"",""timeZone"":""Europe/Berlin"",""timezoneOffset"":-120,""screen_width"":1366,""screen_height"":768,""scroll_width"":667,""scroll_height"":588,""window_innerWidth"":667,""window_innerHeight"":636,""devicePixelRatio"":1}",,,,1728742.1270000003,form submission,,,1734701.3000000003,1734694.8000000003,5919.315,5931.699999999953,5952.673,1735318.366,{},
Change Background,canvas.Screen,1,2022-07-14T15:43:07.768Z,,,,,3035.6130000001285,timeout,,,1738329.5,1738303.939,1734317.686,1734702.3000000003,1735318.366,1738353.979,,
Fixation,canvas.Screen,2_0_0_0,2022-07-14T15:43:10.186Z,,,1,A,2508.686999999918,timeout,,,1740746.8000000003,1740745.577,1738303.939,1738348.9,1738353.979,1740862.666,,black
Stimulus,canvas.Screen,2_0_0_1,2022-07-14T15:43:10.395Z,,,1,A,109.23399999993853,timeout,,,1740956.7000000002,1740955.224,1740745.577,1740747,1740862.666,1740971.9,,black
Reaction,canvas.Screen,2_0_0_2,2022-07-14T15:43:11.227Z,,,1,A,811.1000000000931,response,stim_detected,mousedown,1741788.5,1741783,1740955.224,1740956.9,1740971.9,1741805.931,,black
Trial,flow.Sequence,2_0_0,2022-07-14T15:43:11.228Z,,,1,A,3429.0209999999497,completion,,,1741789.3000000003,1741783,1738303.939,1738348.8000000003,1738353.979,1741805.931,,black
Frame,canvas.Frame,2_0,2022-07-14T15:43:11.229Z,,,1,A,3435.5209999999497,,,,1741789.9,1741789.5,1738303.939,1738330.1,1738353.979,1741805.931,,black
Fixation,canvas.Screen,2_1_0_0,2022-07-14T15:43:13.663Z,,,1,A,2432.653999999864,timeout,,,1744223.9,1744221.919,1741789.254,1741791.4,1741805.931,1744238.585,,black
Stimulus,canvas.Screen,2_1_0_1,2022-07-14T15:43:13.765Z,,,1,A,102.2949999999255,timeout,,,1744326.1,1744324.203,1744221.919,1744224.1,1744238.585,1744340.88,,black
Reaction,canvas.Screen,2_1_0_2,2022-07-14T15:43:13.970Z,,,1,A,187.92000000039116,response,stim_detected,mousedown,1744530.7000000002,1744528.8000000003,1744324.203,1744326.6,1744340.88,1744541.083,,black
Trial,flow.Sequence,2_1_0,2022-07-14T15:43:13.970Z,,,1,A,2722.8690000001807,completion,,,1744531.6,1744528.8000000003,1741789.254,1741791.3000000003,1741805.931,1744541.083,,black
Frame,canvas.Frame,2_1,2022-07-14T15:43:13.971Z,,,1,A,2725.8690000001807,,,,1744532.1,1744531.8000000003,1741789.254,1741790.3000000003,1741805.931,1744541.083,,black
Fixation,canvas.Screen,2_2_0_0,2022-07-14T15:43:15.550Z,,,1,A,1584.7419999998529,timeout,,,1746110.9,1746109.144,1744524.406,1744533.4,1744541.083,1746125.825,,black
Stimulus,canvas.Screen,2_2_0_1,2022-07-14T15:43:16.040Z,,,1,A,466.42700000014156,timeout,,,1746601.2000000002,1746600.6,1746109.144,1746111.3000000003,1746125.825,1746592.252,,black
Reaction,canvas.Screen,2_2_0_2,2022-07-14T15:43:17.517Z,,,1,A,1567.8239999997895,timeout,,,1748078.1,1748076.691,1746600.6,1746601.6,1746592.252,1748160.076,,black
Trial,flow.Sequence,2_2_0,2022-07-14T15:43:17.517Z,,,1,A,3535.6080000000075,completion,,,1748078.6,1748076.691,1744524.406,1744533.4,1744541.083,1748160.076,,black
Frame,canvas.Frame,2_2,2022-07-14T15:43:17.518Z,,,1,A,3537.717000000179,,,,1748079,1748078.8000000003,1744524.406,1744532.4,1744541.083,1748176.753,,black
Fixation,canvas.Screen,2_3_0_0,2022-07-14T15:43:19.769Z,,,0,V,2168.1099999998696,timeout,,,1750329.9,1750328.186,1748160.076,1748080.1,1748176.753,1750344.863,,grey
Stimulus,canvas.Screen,2_3_0_1,2022-07-14T15:43:19.869Z,,,0,V,100.14000000013039,timeout,,,1750429.9,1750428.326,1750328.186,1750330.2000000002,1750344.863,1750445.003,,grey
Reaction,canvas.Screen,2_3_0_2,2022-07-14T15:43:20.612Z,,,0,V,726.7970000002533,response,stim_detected,mousedown,1751173.5,1751171.8000000003,1750428.326,1750430.2000000002,1750445.003,1751178.788,,grey
Trial,flow.Sequence,2_3_0,2022-07-14T15:43:20.613Z,,,0,V,2995.0470000002533,completion,,,1751174,1751171.8000000003,1748160.076,1748080.1,1748176.753,1751178.788,,grey
Frame,canvas.Frame,2_3,2022-07-14T15:43:20.613Z,,,0,V,2997.347000000067,,,,1751174.4,1751174.1,1748160.076,1748079.2000000002,1748176.753,1751178.788,,grey
Fixation,canvas.Screen,2_4_0_0,2022-07-14T15:43:22.420Z,,,0,V,1817.9510000001173,timeout,,,1752981.1,1752980.061,1751162.111,1751175.8000000003,1751178.788,1752996.739,,grey
Stimulus,canvas.Screen,2_4_0_1,2022-07-14T15:43:22.520Z,,,0,V,99.84299999987707,timeout,,,1753080.9,1753079.906,1752980.061,1752981.2000000002,1752996.739,1753096.582,,grey
Reaction,canvas.Screen,2_4_0_2,2022-07-14T15:43:22.872Z,,,0,V,335.1180000002496,response,stim_detected,mousedown,1753433.2000000002,1753431.7000000002,1753079.906,1753081.1,1753096.582,1753446.965,,grey
Trial,flow.Sequence,2_4_0,2022-07-14T15:43:22.872Z,,,0,V,2252.912000000244,completion,,,1753433.6,1753431.7000000002,1751162.111,1751175.7000000002,1751178.788,1753446.965,,grey
Frame,canvas.Frame,2_4,2022-07-14T15:43:22.873Z,,,0,V,2254.912000000244,,,,1753433.9,1753433.7000000002,1751162.111,1751174.6,1751178.788,1753446.965,,grey
Fixation,canvas.Screen,2_5_0_0,2022-07-14T15:43:24.805Z,,,1,AV,1934.2649999998976,timeout,,,1755366.1,1755364.555,1753430.288,1753435.4,1753446.965,1755381.23,,grey
Stimulus,canvas.Screen,2_5_0_1,2022-07-14T15:43:24.905Z,,,1,AV,100.49399999994785,timeout,,,1755466.1,1755465.046,1755364.555,1755366.3000000003,1755381.23,1755481.724,,grey
Reaction,canvas.Screen,2_5_0_2,2022-07-14T15:43:25.212Z,,,1,AV,289.97600000025705,response,stim_detected,mousedown,1755773.3000000003,1755771.7000000002,1755465.046,1755466.3000000003,1755481.724,1755781.862,,grey
Trial,flow.Sequence,2_5_0,2022-07-14T15:43:25.212Z,,,1,AV,2324.7350000001024,completion,,,1755773.6,1755771.7000000002,1753430.288,1753435.3000000003,1753446.965,1755781.862,,grey
Frame,canvas.Frame,2_5,2022-07-14T15:43:25.213Z,,,1,AV,2326.8350000001956,,,,1755773.9,1755773.8000000003,1753430.288,1753434.1,1753446.965,1755781.862,,grey
Fixation,canvas.Screen,2_6_0_0,2022-07-14T15:43:27.389Z,,,1,A,2266.8219999999274,timeout,,,1757950.3000000003,1757948.67,1755765.185,1755775.1,1755781.862,1758048.684,,black
Stimulus,canvas.Screen,2_6_0_1,2022-07-14T15:43:27.574Z,,,1,A,101.40900000021793,timeout,,,1758135.4,1758133.415,1757948.67,1757950.6,1758048.684,1758150.093,,black
Reaction,canvas.Screen,2_6_0_2,2022-07-14T15:43:27.793Z,,,1,A,202.7070000001695,response,stim_detected,mousedown,1758354.2000000002,1758352.8000000003,1758133.415,1758135.7000000002,1758150.093,1758366.867,,black
Trial,flow.Sequence,2_6_0,2022-07-14T15:43:27.794Z,,,1,A,2570.938000000315,completion,,,1758354.8000000003,1758352.8000000003,1755765.185,1755775.1,1755781.862,1758366.867,,black
Frame,canvas.Frame,2_6,2022-07-14T15:43:27.794Z,,,1,A,2573.1380000000354,,,,1758355.2000000002,1758355,1755765.185,1755774.1,1755781.862,1758366.867,,black
Fixation,canvas.Screen,2_7_0_0,2022-07-14T15:43:29.726Z,,,0,V,1935.586999999825,timeout,,,1760287.3000000003,1760285.769,1758350.19,1758356.4,1758366.867,1760302.454,,grey
Stimulus,canvas.Screen,2_7_0_1,2022-07-14T15:43:29.825Z,,,0,V,99.02800000016578,timeout,,,1760386.4,1760384.806,1760285.769,1760287.5,1760302.454,1760401.482,,grey
Reaction,canvas.Screen,2_7_0_2,2022-07-14T15:43:30.114Z,,,0,V,272.11800000001676,response,stim_detected,mousedown,1760675.2000000002,1760673.6,1760384.806,1760386.6,1760401.482,1760685.079,,grey
Trial,flow.Sequence,2_7_0,2022-07-14T15:43:30.114Z,,,0,V,2306.7330000000075,completion,,,1760675.5,1760673.6,1758350.19,1758356.3000000003,1758366.867,1760685.079,,grey
Frame,canvas.Frame,2_7,2022-07-14T15:43:30.115Z,,,0,V,2308.8330000001006,,,,1760675.8000000003,1760675.7000000002,1758350.19,1758355.3000000003,1758366.867,1760685.079,,grey
Fixation,canvas.Screen,2_8_0_0,2022-07-14T15:43:32.492Z,,,1,AV,2384.006000000052,timeout,,,1763053.4,1763052.413,1760668.402,1760676.9,1760685.079,1763069.085,,grey
Stimulus,canvas.Screen,2_8_0_1,2022-07-14T15:43:32.593Z,,,1,AV,100.97900000005029,timeout,,,1763154.4,1763153.386,1763052.413,1763053.7000000002,1763069.085,1763170.064,,grey
Reaction,canvas.Screen,2_8_0_2,2022-07-14T15:43:32.783Z,,,1,AV,172.5360000000801,response,stim_detected,mousedown,1763344.1,1763342.6,1763153.386,1763154.6,1763170.064,1763353.502,,grey
Trial,flow.Sequence,2_8_0,2022-07-14T15:43:32.783Z,,,1,AV,2657.5210000001825,completion,,,1763344.4,1763342.6,1760668.402,1760676.8000000003,1760685.079,1763353.502,,grey
Frame,canvas.Frame,2_8,2022-07-14T15:43:32.784Z,,,1,AV,2659.4210000000894,,,,1763344.8000000003,1763344.5,1760668.402,1760676,1760685.079,1763353.502,,grey
Fixation,canvas.Screen,2_9_0_0,2022-07-14T15:43:34.611Z,,,0,V,1834.5979999999981,timeout,,,1765172.4,1765171.422,1763336.825,1763346.4,1763353.502,1765188.1,,grey
Stimulus,canvas.Screen,2_9_0_1,2022-07-14T15:43:34.711Z,,,0,V,99.98799999989569,timeout,,,1765272.4,1765271.411,1765171.422,1765172.6,1765188.1,1765288.088,,grey
Reaction,canvas.Screen,2_9_0_2,2022-07-14T15:43:36.212Z,,,0,V,1500.8349999999627,timeout,,,1766773.5,1766772.247,1765271.411,1765272.6,1765288.088,1766788.923,,grey
Trial,flow.Sequence,2_9_0,2022-07-14T15:43:36.213Z,,,0,V,3418.744999999879,completion,,,1766773.9,1766772.247,1763336.825,1763346.3000000003,1763353.502,1766788.923,,grey
Frame,canvas.Frame,2_9,2022-07-14T15:43:36.213Z,,,0,V,3420.497999999905,,,,1766774.2000000002,1766774,1763336.825,1763345.1,1763353.502,1766805.599,,grey
Fixation,canvas.Screen,2_10_0_0,2022-07-14T15:43:38.632Z,,,1,AV,2401.685000000056,timeout,,,1769193.2000000002,1769190.607,1766788.923,1766775.3000000003,1766805.599,1769207.284,,grey
Stimulus,canvas.Screen,2_10_0_1,2022-07-14T15:43:38.728Z,,,1,AV,98.13899999996647,timeout,,,1769289.7000000002,1769288.759,1769190.607,1769193.6,1769207.284,1769305.423,,grey
Reaction,canvas.Screen,2_10_0_2,2022-07-14T15:43:38.939Z,,,1,AV,192.9769999999553,response,stim_detected,mousedown,1769500,1769498.4,1769288.759,1769289.9,1769305.423,1769507.572,,grey
Trial,flow.Sequence,2_10_0,2022-07-14T15:43:38.939Z,,,1,AV,2692.8009999999776,completion,,,1769500.4,1769498.4,1766788.923,1766775.2000000002,1766805.599,1769507.572,,grey
Frame,canvas.Frame,2_10,2022-07-14T15:43:38.940Z,,,1,AV,2694.901000000071,,,,1769500.7000000002,1769500.5,1766788.923,1766774.4,1766805.599,1769507.572,,grey
Fixation,canvas.Screen,2_11_0_0,2022-07-14T15:43:40.699Z,,,1,A,1767.8940000000875,timeout,,,1771259.8000000003,1771258.788,1769490.895,1769502.1,1769507.572,1771275.466,,black
Stimulus,canvas.Screen,2_11_0_1,2022-07-14T15:43:40.798Z,,,1,A,99.98499999986961,timeout,,,1771359.7000000002,1771358.774,1771258.788,1771260,1771275.466,1771375.451,,black
Reaction,canvas.Screen,2_11_0_2,2022-07-14T15:43:41.006Z,,,1,A,189.94900000002235,response,stim_detected,mousedown,1771566.8000000003,1771565.4,1771358.774,1771359.9,1771375.451,1771575.595,,black
Trial,flow.Sequence,2_11_0,2022-07-14T15:43:41.006Z,,,1,A,2057.8279999999795,completion,,,1771567.2000000002,1771565.4,1769490.895,1769502,1769507.572,1771575.595,,black
Frame,canvas.Frame,2_11,2022-07-14T15:43:41.006Z,,,1,A,2059.728000000352,,,,1771567.5,1771567.3000000003,1769490.895,1769501,1769507.572,1771575.595,,black
Fixation,canvas.Screen,2_12_0_0,2022-07-14T15:43:42.551Z,,,1,A,1551.3589999999385,timeout,,,1773111.7000000002,1773110.273,1771558.918,1771569,1771575.595,1773126.954,,black
Stimulus,canvas.Screen,2_12_0_1,2022-07-14T15:43:42.650Z,,,1,A,99.63600000017323,timeout,,,1773210.8000000003,1773209.914,1773110.273,1773112,1773126.954,1773226.59,,black
Reaction,canvas.Screen,2_12_0_2,2022-07-14T15:43:42.838Z,,,1,A,170.71000000019558,response,stim_detected,mousedown,1773399.2000000002,1773397.3000000003,1773209.914,1773211.1,1773226.59,1773410.133,,black
Trial,flow.Sequence,2_12_0,2022-07-14T15:43:42.838Z,,,1,A,1821.7050000003073,completion,,,1773399.6,1773397.3000000003,1771558.918,1771569,1771575.595,1773410.133,,black
Frame,canvas.Frame,2_12,2022-07-14T15:43:42.839Z,,,1,A,1824.2050000003073,,,,1773399.9,1773399.8000000003,1771558.918,1771567.7000000002,1771575.595,1773410.133,,black
Fixation,canvas.Screen,2_13_0_0,2022-07-14T15:43:45.053Z,,,1,AV,2218.753000000026,timeout,,,1775613.8000000003,1775612.204,1773393.456,1773401,1773410.133,1775628.886,,grey
Stimulus,canvas.Screen,2_13_0_1,2022-07-14T15:43:45.152Z,,,1,AV,99.17599999997765,timeout,,,1775713,1775711.387,1775612.204,1775614.1,1775628.886,1775728.062,,grey
Reaction,canvas.Screen,2_13_0_2,2022-07-14T15:43:45.357Z,,,1,AV,188.23800000036135,response,stim_detected,mousedown,1775917.8000000003,1775916.3000000003,1775711.387,1775713.3000000003,1775728.062,1775928.497,,grey
Trial,flow.Sequence,2_13_0,2022-07-14T15:43:45.357Z,,,1,AV,2506.167000000365,completion,,,1775918.2000000002,1775916.3000000003,1773393.456,1773400.8000000003,1773410.133,1775928.497,,grey
Frame,canvas.Frame,2_13,2022-07-14T15:43:45.357Z,,,1,AV,2508.167000000365,,,,1775918.5,1775918.3000000003,1773393.456,1773400.1,1773410.133,1775928.497,,grey
Fixation,canvas.Screen,2_14_0_0,2022-07-14T15:43:47.287Z,,,1,AV,1934.6729999999516,timeout,,,1777847.9,1777846.492,1775911.82,1775919.7000000002,1775928.497,1777863.17,,grey
Stimulus,canvas.Screen,2_14_0_1,2022-07-14T15:43:47.386Z,,,1,AV,99.41200000001118,timeout,,,1777947.1,1777945.909,1777846.492,1777848.2000000002,1777863.17,1777962.582,,grey
Reaction,canvas.Screen,2_14_0_2,2022-07-14T15:43:47.551Z,,,1,AV,147.71800000034273,response,stim_detected,mousedown,1778111.7000000002,1778110.3000000003,1777945.909,1777947.3000000003,1777962.582,1778113.245,,grey
Trial,flow.Sequence,2_14_0,2022-07-14T15:43:47.551Z,,,1,AV,2181.8030000003055,completion,,,1778112.2000000002,1778110.3000000003,1775911.82,1775919.6,1775928.497,1778113.245,,grey
Frame,canvas.Frame,2_14,2022-07-14T15:43:47.551Z,,,1,AV,2183.7030000002123,,,,1778112.4,1778112.2000000002,1775911.82,1775918.6,1775928.497,1778113.245,,grey
Fixation,canvas.Screen,2_15_0_0,2022-07-14T15:43:49.322Z,,,1,A,1785.305999999866,timeout,,,1779883.1,1779881.866,1778096.568,1778113.5,1778113.245,1779898.551,,black
Stimulus,canvas.Screen,2_15_0_1,2022-07-14T15:43:49.421Z,,,1,A,99.12300000013784,timeout,,,1779982.1,1779980.998,1779881.866,1779883.3000000003,1779898.551,1779997.674,,black
Reaction,canvas.Screen,2_15_0_2,2022-07-14T15:43:49.915Z,,,1,A,476.5260000000708,response,stim_detected,mousedown,1780475.8000000003,1780474.2000000002,1779980.998,1779982.3000000003,1779997.674,1780648.264,,black
Trial,flow.Sequence,2_15_0,2022-07-14T15:43:49.915Z,,,1,A,2360.9550000000745,completion,,,1780476.1,1780474.2000000002,1778096.568,1778113.4,1778113.245,1780648.264,,black
Frame,canvas.Frame,2_15,2022-07-14T15:43:49.915Z,,,1,A,2362.9550000000745,,,,1780476.5,1780476.2000000002,1778096.568,1778112.7000000002,1778113.245,1780648.264,,black
Fixation,canvas.Screen,2_16_0_0,2022-07-14T15:43:51.872Z,,,1,AV,1800.8249999999534,timeout,,,1782433.5,1782432.414,1780464.817,1780477.5,1780648.264,1782449.089,,grey
Stimulus,canvas.Screen,2_16_0_1,2022-07-14T15:43:51.973Z,,,1,AV,100.28100000019185,timeout,,,1782534.3000000003,1782532.694,1782432.414,1782433.8000000003,1782449.089,1782549.37,,grey
Reaction,canvas.Screen,2_16_0_2,2022-07-14T15:43:52.152Z,,,1,AV,161.8300000000745,response,stim_detected,mousedown,1782712.7000000002,1782711.2000000002,1782532.694,1782534.5,1782549.37,1782716.299,,grey
Trial,flow.Sequence,2_16_0,2022-07-14T15:43:52.152Z,,,1,AV,2062.93600000022,completion,,,1782713.1,1782711.2000000002,1780464.817,1780477.4,1780648.264,1782716.299,,grey
Frame,canvas.Frame,2_16,2022-07-14T15:43:52.152Z,,,1,AV,2064.93600000022,,,,1782713.5,1782713.2000000002,1780464.817,1780476.6,1780648.264,1782716.299,,grey
Fixation,canvas.Screen,2_17_0_0,2022-07-14T15:43:53.924Z,,,1,AV,1784.686999999918,timeout,,,1784485.2000000002,1784484.307,1782699.622,1782714.5,1782716.299,1784500.986,,grey
Stimulus,canvas.Screen,2_17_0_1,2022-07-14T15:43:54.024Z,,,1,AV,99.46499999985099,timeout,,,1784585.1,1784583.777,1784484.307,1784485.4,1784500.986,1784600.451,,grey
Reaction,canvas.Screen,2_17_0_2,2022-07-14T15:43:54.164Z,,,1,AV,123.74900000030175,response,stim_detected,mousedown,1784725.7000000002,1784724.2000000002,1784583.777,1784585.4,1784600.451,1784734.308,,grey
Trial,flow.Sequence,2_17_0,2022-07-14T15:43:54.165Z,,,1,AV,2007.9010000000708,completion,,,1784726,1784724.2000000002,1782699.622,1782714.3000000003,1782716.299,1784734.308,,grey
Frame,canvas.Frame,2_17,2022-07-14T15:43:54.165Z,,,1,AV,2009.9010000000708,,,,1784726.3000000003,1784726.2000000002,1782699.622,1782713.6,1782716.299,1784734.308,,grey
Fixation,canvas.Screen,2_18_0_0,2022-07-14T15:43:55.743Z,,,0,V,1583.996999999974,timeout,,,1786303.3000000003,1786301.631,1784717.631,1784727.3000000003,1784734.308,1786318.305,,grey
Stimulus,canvas.Screen,2_18_0_1,2022-07-14T15:43:55.843Z,,,0,V,100.50399999995716,timeout,,,1786403.2000000002,1786402.129,1786301.631,1786303.5,1786318.305,1786418.809,,grey
Reaction,canvas.Screen,2_18_0_2,2022-07-14T15:43:56.039Z,,,0,V,178.3910000002943,response,stim_detected,mousedown,1786598.8000000003,1786597.2000000002,1786402.129,1786403.6,1786418.809,1786602.197,,grey
Trial,flow.Sequence,2_18_0,2022-07-14T15:43:56.039Z,,,0,V,1862.8920000002254,completion,,,1786599.2000000002,1786597.2000000002,1784717.631,1784727.3000000003,1784734.308,1786602.197,,grey
Frame,canvas.Frame,2_18,2022-07-14T15:43:56.039Z,,,0,V,1864.9920000003185,,,,1786599.6,1786599.3000000003,1784717.631,1784726.5,1784734.308,1786602.197,,grey
Fixation,canvas.Screen,2_19_0_0,2022-07-14T15:43:58.495Z,,,1,AV,2468.974000000162,timeout,,,1789055.4,1789054.489,1786585.52,1786600.6,1786602.197,1789071.171,,grey
Stimulus,canvas.Screen,2_19_0_1,2022-07-14T15:43:58.596Z,,,1,AV,99.08799999998882,timeout,,,1789155.8000000003,1789153.584,1789054.489,1789055.7000000002,1789071.171,1789170.259,,grey
Reaction,canvas.Screen,2_19_0_2,2022-07-14T15:43:58.779Z,,,1,AV,167.8410000000149,response,stim_detected,mousedown,1789339.6,1789338.1,1789153.584,1789156.1,1789170.259,1789354.013,,grey
Trial,flow.Sequence,2_19_0,2022-07-14T15:43:58.780Z,,,1,AV,2735.903000000166,completion,,,1789340.1,1789338.1,1786585.52,1786600.6,1786602.197,1789354.013,,grey
Frame,canvas.Frame,2_19,2022-07-14T15:43:58.780Z,,,1,AV,2738.003000000259,,,,1789340.3000000003,1789340.2000000002,1786585.52,1786599.7000000002,1786602.197,1789354.013,,grey
Fixation,canvas.Screen,2_20_0_0,2022-07-14T15:44:00.647Z,,,1,AV,1867.6990000000224,timeout,,,1791206.7000000002,1791205.036,1789337.336,1789341.6,1789354.013,1791221.712,,grey
Stimulus,canvas.Screen,2_20_0_1,2022-07-14T15:44:00.746Z,,,1,AV,100.33700000005774,timeout,,,1791306.5,1791305.371,1791205.036,1791207.1,1791221.712,1791322.049,,grey
Reaction,canvas.Screen,2_20_0_2,2022-07-14T15:44:00.899Z,,,1,AV,135.95099999988452,response,stim_detected,mousedown,1791459.4,1791458,1791305.371,1791306.7000000002,1791322.049,1791472.081,,grey
Trial,flow.Sequence,2_20_0,2022-07-14T15:44:00.900Z,,,1,AV,2103.9869999999646,completion,,,1791459.9,1791458,1789337.336,1789341.5,1789354.013,1791472.081,,grey
Frame,canvas.Frame,2_20,2022-07-14T15:44:00.900Z,,,1,AV,2105.9869999999646,,,,1791460.2000000002,1791460,1789337.336,1789340.5,1789354.013,1791472.081,,grey
Fixation,canvas.Screen,2_21_0_0,2022-07-14T15:44:02.797Z,,,0,V,1900.6710000000894,timeout,,,1793357.6,1793356.079,1791455.404,1791461.3000000003,1791472.081,1793372.752,,grey
Stimulus,canvas.Screen,2_21_0_1,2022-07-14T15:44:02.898Z,,,0,V,100.69399999990128,timeout,,,1793458.6,1793456.764,1793356.079,1793357.8000000003,1793372.752,1793473.446,,grey
Reaction,canvas.Screen,2_21_0_2,2022-07-14T15:44:03.063Z,,,0,V,148.65400000009686,response,stim_detected,mousedown,1793623.4,1793622.1,1793456.764,1793458.8000000003,1793473.446,1793640.19,,grey
Trial,flow.Sequence,2_21_0,2022-07-14T15:44:03.064Z,,,0,V,2150.0190000000875,completion,,,1793623.9,1793622.1,1791455.404,1791461.1,1791472.081,1793640.19,,grey
Frame,canvas.Frame,2_21,2022-07-14T15:44:03.064Z,,,0,V,2151.9189999999944,,,,1793624.3000000003,1793624,1791455.404,1791460.4,1791472.081,1793640.19,,grey
Fixation,canvas.Screen,2_22_0_0,2022-07-14T15:44:04.615Z,,,0,V,1550.974000000162,timeout,,,1795175.6,1795174.487,1793623.513,1793625.4,1793640.19,1795191.164,,grey
Stimulus,canvas.Screen,2_22_0_1,2022-07-14T15:44:04.715Z,,,0,V,100.09399999980815,timeout,,,1795275.6,1795274.581,1795174.487,1795175.9,1795191.164,1795291.258,,grey
Reaction,canvas.Screen,2_22_0_2,2022-07-14T15:44:04.923Z,,,0,V,190.14199999999255,response,stim_detected,mousedown,1795483.1,1795481.4,1795274.581,1795275.9,1795291.258,1795491.424,,grey
Trial,flow.Sequence,2_22_0,2022-07-14T15:44:04.923Z,,,0,V,1841.2099999999627,completion,,,1795483.5,1795481.4,1793623.513,1793625.3000000003,1793640.19,1795491.424,,grey
Frame,canvas.Frame,2_22,2022-07-14T15:44:04.924Z,,,0,V,1843.410000000149,,,,1795483.8000000003,1795483.6,1793623.513,1793624.4,1793640.19,1795491.424,,grey
Fixation,canvas.Screen,2_23_0_0,2022-07-14T15:44:07.017Z,,,1,AV,2100.1689999999944,timeout,,,1797576.7000000002,1797574.924,1795474.747,1795484.8000000003,1795491.424,1797591.593,,grey
Stimulus,canvas.Screen,2_23_0_1,2022-07-14T15:44:07.118Z,,,1,AV,101.30699999979697,timeout,,,1797677.7000000002,1797676.222,1797574.924,1797577,1797591.593,1797692.9,,grey
Reaction,canvas.Screen,2_23_0_2,2022-07-14T15:44:07.266Z,,,1,AV,132.10000000009313,response,stim_detected,mousedown,1797826.5,1797825,1797676.222,1797678,1797692.9,1797842.924,,grey
Trial,flow.Sequence,2_23_0,2022-07-14T15:44:07.267Z,,,1,AV,2333.5759999998845,completion,,,1797827,1797825,1795474.747,1795484.7000000002,1795491.424,1797842.924,,grey
Frame,canvas.Frame,2_23,2022-07-14T15:44:07.267Z,,,1,AV,2335.6759999999776,,,,1797827.3000000003,1797827.1,1795474.747,1795483.9,1795491.424,1797842.924,,grey
Fixation,canvas.Screen,2_24_0_0,2022-07-14T15:44:09.554Z,,,0,V,2285.8929999999236,timeout,,,1800114,1800112.132,1797826.247,1797828.6,1797842.924,1800128.817,,grey
Stimulus,canvas.Screen,2_24_0_1,2022-07-14T15:44:09.652Z,,,0,V,98.75600000005215,timeout,,,1800212,1800210.898,1800112.132,1800114.2000000002,1800128.817,1800227.573,,grey
Reaction,canvas.Screen,2_24_0_2,2022-07-14T15:44:09.815Z,,,0,V,146.22700000018813,response,stim_detected,mousedown,1800375.6,1800373.8000000003,1800210.898,1800212.2000000002,1800227.573,1800394.607,,grey
Trial,flow.Sequence,2_24_0,2022-07-14T15:44:09.816Z,,,0,V,2530.876000000164,completion,,,1800376,1800373.8000000003,1797826.247,1797828.4,1797842.924,1800394.607,,grey
Frame,canvas.Frame,2_24,2022-07-14T15:44:09.816Z,,,0,V,2533.1759999999776,,,,1800376.3000000003,1800376.1,1797826.247,1797827.5,1797842.924,1800394.607,,grey
Fixation,canvas.Screen,2_25_0_0,2022-07-14T15:44:11.987Z,,,1,A,2168.9490000000224,timeout,,,1802547.7000000002,1802546.872,1800377.93,1800377.4,1800394.607,1802563.556,,black
Stimulus,canvas.Screen,2_25_0_1,2022-07-14T15:44:12.087Z,,,1,A,98.58999999985099,timeout,,,1802647,1802645.473,1802546.872,1802547.9,1802563.556,1802662.146,,black
Reaction,canvas.Screen,2_25_0_2,2022-07-14T15:44:12.219Z,,,1,A,115.65400000032969,response,stim_detected,mousedown,1802779.3000000003,1802777.8000000003,1802645.473,1802647.1,1802662.146,1802796.224,,black
Trial,flow.Sequence,2_25_0,2022-07-14T15:44:12.219Z,,,1,A,2383.193000000203,completion,,,1802779.7000000002,1802777.8000000003,1800377.93,1800377.3000000003,1800394.607,1802796.224,,black
Frame,canvas.Frame,2_25,2022-07-14T15:44:12.220Z,,,1,A,2385.193000000203,,,,1802780,1802779.8000000003,1800377.93,1800376.5,1800394.607,1802796.224,,black
Fixation,canvas.Screen,2_26_0_0,2022-07-14T15:44:14.255Z,,,0,V,2034.1920000000391,timeout,,,1804815,1804813.742,1802779.547,1802781.1,1802796.224,1804830.416,,grey
Stimulus,canvas.Screen,2_26_0_1,2022-07-14T15:44:14.355Z,,,0,V,100.32700000004843,timeout,,,1804915,1804914.067,1804813.742,1804815.3000000003,1804830.416,1804930.743,,grey
Reaction,canvas.Screen,2_26_0_2,2022-07-14T15:44:14.514Z,,,0,V,142.05700000026263,response,stim_detected,mousedown,1805074.4,1805072.8000000003,1804914.067,1804915.3000000003,1804930.743,1805081.032,,grey
Trial,flow.Sequence,2_26_0,2022-07-14T15:44:14.515Z,,,0,V,2276.57600000035,completion,,,1805074.8000000003,1805072.8000000003,1802779.547,1802781,1802796.224,1805081.032,,grey
Frame,canvas.Frame,2_26,2022-07-14T15:44:14.515Z,,,0,V,2278.6759999999776,,,,1805075.1,1805074.9,1802779.547,1802780.2000000002,1802796.224,1805081.032,,grey
Fixation,canvas.Screen,2_27_0_0,2022-07-14T15:44:16.524Z,,,1,AV,2018.4550000000745,timeout,,,1807084.1,1807082.806,1805064.355,1805076.1,1805081.032,1807099.487,,grey
Stimulus,canvas.Screen,2_27_0_1,2022-07-14T15:44:16.624Z,,,1,AV,99.72200000006706,timeout,,,1807184.1,1807182.531,1807082.806,1807084.3000000003,1807099.487,1807199.209,,grey
Reaction,canvas.Screen,2_27_0_2,2022-07-14T15:44:16.751Z,,,1,AV,110.4910000001546,response,stim_detected,mousedown,1807311.2000000002,1807309.7000000002,1807182.531,1807184.4,1807199.209,1807315.882,,grey
Trial,flow.Sequence,2_27_0,2022-07-14T15:44:16.751Z,,,1,AV,2228.668000000296,completion,,,1807311.5,1807309.7000000002,1805064.355,1805076.1,1805081.032,1807315.882,,grey
Frame,canvas.Frame,2_27,2022-07-14T15:44:16.752Z,,,1,AV,2230.668000000296,,,,1807311.8000000003,1807311.7000000002,1805064.355,1805075.2000000002,1805081.032,1807315.882,,grey
Fixation,canvas.Screen,2_28_0_0,2022-07-14T15:44:18.758Z,,,0,V,2017.7909999999683,timeout,,,1809318.6,1809316.997,1807299.205,1807312.9,1807315.882,1809333.673,,grey
Stimulus,canvas.Screen,2_28_0_1,2022-07-14T15:44:18.858Z,,,0,V,100.3070000000298,timeout,,,1809418.1,1809417.302,1809316.997,1809318.9,1809333.673,1809433.98,,grey
Reaction,canvas.Screen,2_28_0_2,2022-07-14T15:44:19.040Z,,,0,V,164.82000000029802,response,stim_detected,mousedown,1809600.2000000002,1809598.8000000003,1809417.302,1809418.3000000003,1809433.98,1809617.347,,grey
Trial,flow.Sequence,2_28_0,2022-07-14T15:44:19.040Z,,,0,V,2282.918000000296,completion,,,1809600.5,1809598.8000000003,1807299.205,1807312.8000000003,1807315.882,1809617.347,,grey
Frame,canvas.Frame,2_28,2022-07-14T15:44:19.041Z,,,0,V,2284.818000000203,,,,1809600.9,1809600.7000000002,1807299.205,1807312.1,1807315.882,1809617.347,,grey
Fixation,canvas.Screen,2_29_0_0,2022-07-14T15:44:20.794Z,,,1,AV,1751.9329999999609,timeout,,,1811354.3000000003,1811352.595,1809600.671,1809602.1,1809617.347,1811369.28,,grey
Stimulus,canvas.Screen,2_29_0_1,2022-07-14T15:44:20.893Z,,,1,AV,98.89699999988079,timeout,,,1811453.3000000003,1811451.504,1811352.595,1811354.7000000002,1811369.28,1811468.177,,grey
Reaction,canvas.Screen,2_29_0_2,2022-07-14T15:44:21.079Z,,,1,AV,169.62300000037067,response,stim_detected,mousedown,1811639.2000000002,1811637.8000000003,1811451.504,1811453.5,1811468.177,1811652.07,,grey
Trial,flow.Sequence,2_29_0,2022-07-14T15:44:21.079Z,,,1,AV,2020.4530000002123,completion,,,1811639.6,1811637.8000000003,1809600.671,1809602.1,1809617.347,1811652.07,,grey
Frame,canvas.Frame,2_29,2022-07-14T15:44:21.080Z,,,1,AV,2022.3530000001192,,,,1811639.9,1811639.7000000002,1809600.671,1809601,1809617.347,1811652.07,,grey
Fixation,canvas.Screen,2_30_0_0,2022-07-14T15:44:23.361Z,,,0,V,2285.065999999875,timeout,,,1813921.5,1813920.457,1811635.393,1811640.9,1811652.07,1813937.136,,grey
Stimulus,canvas.Screen,2_30_0_1,2022-07-14T15:44:23.461Z,,,0,V,99.87800000002608,timeout,,,1814021.5,1814020.337,1813920.457,1813921.7000000002,1813937.136,1814037.014,,grey
Reaction,canvas.Screen,2_30_0_2,2022-07-14T15:44:23.598Z,,,0,V,118.98600000003353,response,stim_detected,mousedown,1814157.8000000003,1814156,1814020.337,1814021.7000000002,1814037.014,1814170.418,,grey
Trial,flow.Sequence,2_30_0,2022-07-14T15:44:23.598Z,,,0,V,2503.929999999935,completion,,,1814158.2000000002,1814156,1811635.393,1811640.9,1811652.07,1814170.418,,grey
Frame,canvas.Frame,2_30,2022-07-14T15:44:23.598Z,,,0,V,2506.230000000214,,,,1814158.5,1814158.3000000003,1811635.393,1811640.1,1811652.07,1814170.418,,grey
Fixation,canvas.Screen,2_31_0_0,2022-07-14T15:44:25.445Z,,,1,A,1850.6579999998212,timeout,,,1816005.4,1816004.403,1814153.741,1814159.9,1814170.418,1816021.076,,black
Stimulus,canvas.Screen,2_31_0_1,2022-07-14T15:44:25.546Z,,,1,A,100.65900000021793,timeout,,,1816106.6,1816105.056,1816004.403,1816005.7000000002,1816021.076,1816121.735,,black
Reaction,canvas.Screen,2_31_0_2,2022-07-14T15:44:25.925Z,,,1,A,361.8649999999907,response,stim_detected,mousedown,1816485.1,1816483.6,1816105.056,1816107.9,1816121.735,1816488.53,,black
Trial,flow.Sequence,2_31_0,2022-07-14T15:44:25.925Z,,,1,A,2313.18200000003,completion,,,1816485.4,1816483.6,1814153.741,1814159.7000000002,1814170.418,1816488.53,,black
Frame,canvas.Frame,2_31,2022-07-14T15:44:25.925Z,,,1,A,2315.0819999999367,,,,1816485.7000000002,1816485.5,1814153.741,1814158.7000000002,1814170.418,1816488.53,,black
Fixation,canvas.Screen,2_32_0_0,2022-07-14T15:44:27.898Z,,,1,A,1985.7229999999981,timeout,,,1818458.6,1818457.567,1816471.854,1816486.6,1816488.53,1818474.253,,black
Stimulus,canvas.Screen,2_32_0_1,2022-07-14T15:44:27.998Z,,,1,A,98.84700000006706,timeout,,,1818558.3000000003,1818556.424,1818457.567,1818458.9,1818474.253,1818573.1,,black
Reaction,canvas.Screen,2_32_0_2,2022-07-14T15:44:28.179Z,,,1,A,164.5,response,stim_detected,mousedown,1818739.1,1818737.6,1818556.424,1818558.5,1818573.1,1818756.767,,black
Trial,flow.Sequence,2_32_0,2022-07-14T15:44:28.179Z,,,1,A,2249.070000000065,completion,,,1818739.4,1818737.6,1816471.854,1816486.5,1816488.53,1818756.767,,black
Frame,canvas.Frame,2_32,2022-07-14T15:44:28.179Z,,,1,A,2250.969999999972,,,,1818739.6,1818739.5,1816471.854,1816485.9,1816488.53,1818756.767,,black
Fixation,canvas.Screen,2_33_0_0,2022-07-14T15:44:30.183Z,,,1,A,2001.216999999946,timeout,,,1820742.9,1820741.307,1818740.09,1818740.8000000003,1818756.767,1820757.984,,black
Stimulus,canvas.Screen,2_33_0_1,2022-07-14T15:44:30.282Z,,,1,A,100.13500000000931,timeout,,,1820842.7000000002,1820841.442,1820741.307,1820743.1,1820757.984,1820858.119,,black
Reaction,canvas.Screen,2_33_0_2,2022-07-14T15:44:30.406Z,,,1,A,106.48100000014529,response,stim_detected,mousedown,1820966,1820964.6,1820841.442,1820842.9,1820858.119,1820974.891,,black
Trial,flow.Sequence,2_33_0,2022-07-14T15:44:30.406Z,,,1,A,2207.8330000001006,completion,,,1820966.5,1820964.6,1818740.09,1818740.6,1818756.767,1820974.891,,black
Frame,canvas.Frame,2_33,2022-07-14T15:44:30.407Z,,,1,A,2209.8330000001006,,,,1820966.8000000003,1820966.6,1818740.09,1818739.9,1818756.767,1820974.891,,black
Fixation,canvas.Screen,2_34_0_0,2022-07-14T15:44:32.449Z,,,0,V,2050.470999999903,timeout,,,1823009.7000000002,1823008.691,1820958.214,1820968.2000000002,1820974.891,1823025.362,,grey
Stimulus,canvas.Screen,2_34_0_1,2022-07-14T15:44:32.551Z,,,0,V,101.04399999999441,timeout,,,1823110.7000000002,1823109.725,1823008.691,1823009.9,1823025.362,1823126.406,,grey
Reaction,canvas.Screen,2_34_0_2,2022-07-14T15:44:32.676Z,,,0,V,108.19400000013411,response,stim_detected,mousedown,1823236,1823234.6,1823109.725,1823110.9,1823126.406,1823243.042,,grey
Trial,flow.Sequence,2_34_0,2022-07-14T15:44:32.676Z,,,0,V,2259.7090000000317,completion,,,1823236.4,1823234.6,1820958.214,1820968.1,1820974.891,1823243.042,,grey
Frame,canvas.Frame,2_34,2022-07-14T15:44:32.677Z,,,0,V,2261.7090000000317,,,,1823236.8000000003,1823236.6,1820958.214,1820967,1820974.891,1823243.042,,grey
Fixation,canvas.Screen,2_35_0_0,2022-07-14T15:44:34.319Z,,,1,A,1651.25400000019,timeout,,,1824878.8000000003,1824877.617,1823226.365,1823237.8000000003,1823243.042,1824894.296,,black
Stimulus,canvas.Screen,2_35_0_1,2022-07-14T15:44:34.437Z,,,1,A,116.75300000002608,timeout,,,1824997.1,1824994.37,1824877.617,1824879,1824894.296,1825011.049,,black
Reaction,canvas.Screen,2_35_0_2,2022-07-14T15:44:34.774Z,,,1,A,321.4509999998845,response,stim_detected,mousedown,1825333.9,1825332.5,1824994.37,1824997.3000000003,1825011.049,1825344.496,,black
Trial,flow.Sequence,2_35_0,2022-07-14T15:44:34.774Z,,,1,A,2089.4580000001006,completion,,,1825334.3000000003,1825332.5,1823226.365,1823237.7000000002,1823243.042,1825344.496,,black
Frame,canvas.Frame,2_35,2022-07-14T15:44:34.774Z,,,1,A,2091.3580000000075,,,,1825334.6,1825334.4,1823226.365,1823236.9,1823243.042,1825344.496,,black
Fixation,canvas.Screen,2_36_0_0,2022-07-14T15:44:37.090Z,,,0,V,2320.837999999989,timeout,,,1827650.1,1827648.637,1825327.818,1825335.7000000002,1825344.496,1827665.334,,grey
Stimulus,canvas.Screen,2_36_0_1,2022-07-14T15:44:37.187Z,,,0,V,97.29300000006333,timeout,,,1827747.1,1827745.951,1827648.637,1827650.3000000003,1827665.334,1827762.627,,grey
Reaction,canvas.Screen,2_36_0_2,2022-07-14T15:44:37.349Z,,,0,V,144.77299999981187,response,stim_detected,mousedown,1827908.8000000003,1827907.4,1827745.951,1827747.4,1827762.627,1827911.265,,grey
Trial,flow.Sequence,2_36_0,2022-07-14T15:44:37.349Z,,,0,V,2562.903999999864,completion,,,1827909.2000000002,1827907.4,1825327.818,1825335.5,1825344.496,1827911.265,,grey
Frame,canvas.Frame,2_36,2022-07-14T15:44:37.349Z,,,0,V,2564.8040000002366,,,,1827909.5,1827909.3000000003,1825327.818,1825334.8000000003,1825344.496,1827911.265,,grey
Fixation,canvas.Screen,2_37_0_0,2022-07-14T15:44:39.005Z,,,0,V,1669.16100000008,timeout,,,1829564.9,1829563.75,1827894.708,1827910.6,1827911.265,1829580.426,,grey
Stimulus,canvas.Screen,2_37_0_1,2022-07-14T15:44:39.105Z,,,0,V,100.22900000005029,timeout,,,1829664.8000000003,1829663.978,1829563.75,1829565.1,1829580.426,1829680.655,,grey
Reaction,canvas.Screen,2_37_0_2,2022-07-14T15:44:39.334Z,,,0,V,211.74499999987893,response,stim_detected,mousedown,1829893.9,1829892.4,1829663.978,1829665,1829680.655,1829980.841,,grey
Trial,flow.Sequence,2_37_0,2022-07-14T15:44:39.334Z,,,0,V,1981.1350000000093,completion,,,1829894.2000000002,1829892.4,1827894.708,1827910.5,1827911.265,1829980.841,,grey
Frame,canvas.Frame,2_37,2022-07-14T15:44:39.334Z,,,0,V,1983.1350000000093,,,,1829894.6,1829894.4,1827894.708,1827909.7000000002,1827911.265,1829980.841,,grey
Fixation,canvas.Screen,2_38_0_0,2022-07-14T15:44:41.623Z,,,1,A,2217.119999999879,timeout,,,1832183.1,1832181.29,1829880.779,1829895.7000000002,1829980.841,1832197.961,,black
Stimulus,canvas.Screen,2_38_0_1,2022-07-14T15:44:41.724Z,,,1,A,101.08100000000559,timeout,,,1832284,1832282.365,1832181.29,1832183.5,1832197.961,1832299.042,,black
Reaction,canvas.Screen,2_38_0_2,2022-07-14T15:44:41.939Z,,,1,A,198.75800000037998,response,stim_detected,mousedown,1832499.3000000003,1832497.8000000003,1832282.365,1832284.3000000003,1832299.042,1832515.822,,black
Trial,flow.Sequence,2_38_0,2022-07-14T15:44:41.940Z,,,1,A,2516.9590000002645,completion,,,1832499.7000000002,1832497.8000000003,1829880.779,1829895.5,1829980.841,1832515.822,,black
Frame,canvas.Frame,2_38,2022-07-14T15:44:41.940Z,,,1,A,2519.058999999892,,,,1832500.1,1832499.9,1829880.779,1829894.8000000003,1829980.841,1832515.822,,black
Fixation,canvas.Screen,2_39_0_0,2022-07-14T15:44:44.243Z,,,1,AV,2302.5770000000484,timeout,,,1834803.3000000003,1834801.714,1832499.145,1832501.5,1832515.822,1834818.399,,grey
Stimulus,canvas.Screen,2_39_0_1,2022-07-14T15:44:44.341Z,,,1,AV,98.54300000006333,timeout,,,1834901.3000000003,1834900.268,1834801.714,1834803.6,1834818.399,1834916.942,,grey
Reaction,canvas.Screen,2_39_0_2,2022-07-14T15:44:44.503Z,,,1,AV,144.35800000024028,response,stim_detected,mousedown,1835062.8000000003,1835061.3000000003,1834900.268,1834901.6,1834916.942,1835067.506,,grey
Trial,flow.Sequence,2_39_0,2022-07-14T15:44:44.503Z,,,1,AV,2545.478000000352,completion,,,1835063.2000000002,1835061.3000000003,1832499.145,1832501.3000000003,1832515.822,1835067.506,,grey
Frame,canvas.Frame,2_39,2022-07-14T15:44:44.503Z,,,1,AV,2547.478000000352,,,,1835063.4,1835063.3000000003,1832499.145,1832500.3000000003,1832515.822,1835067.506,,grey
Fixation,canvas.Screen,2_40_0_0,2022-07-14T15:44:46.711Z,,,1,A,2219.4209999998566,timeout,,,1837271.3000000003,1837270.24,1835050.829,1835064.5,1835067.506,1837286.927,,black
Stimulus,canvas.Screen,2_40_0_1,2022-07-14T15:44:46.810Z,,,1,A,98.60000000009313,timeout,,,1837370.4,1837368.851,1837270.24,1837271.6,1837286.927,1837385.527,,black
Reaction,canvas.Screen,2_40_0_2,2022-07-14T15:44:47.011Z,,,1,A,183.6730000001844,response,stim_detected,mousedown,1837570.9,1837569.2000000002,1837368.851,1837370.7000000002,1837385.527,1837585.86,,black
Trial,flow.Sequence,2_40_0,2022-07-14T15:44:47.011Z,,,1,A,2501.694000000134,completion,,,1837571.2000000002,1837569.2000000002,1835050.829,1835064.3000000003,1835067.506,1837585.86,,black
Frame,canvas.Frame,2_40,2022-07-14T15:44:47.011Z,,,1,A,2503.7940000002272,,,,1837571.5,1837571.3000000003,1835050.829,1835063.6,1835067.506,1837585.86,,black
Fixation,canvas.Screen,2_41_0_0,2022-07-14T15:44:49.029Z,,,1,AV,2018.6959999999963,timeout,,,1839589.3000000003,1839587.873,1837569.183,1837572.6,1837585.86,1839604.556,,grey
Stimulus,canvas.Screen,2_41_0_1,2022-07-14T15:44:49.128Z,,,1,AV,99.04899999988265,timeout,,,1839688.3000000003,1839686.93,1839587.873,1839589.6,1839604.556,1839703.605,,grey
Reaction,canvas.Screen,2_41_0_2,2022-07-14T15:44:49.262Z,,,1,AV,117.59500000020489,response,stim_detected,mousedown,1839822.6,1839821.2000000002,1839686.93,1839688.7000000002,1839703.605,1839837.339,,grey
Trial,flow.Sequence,2_41_0,2022-07-14T15:44:49.263Z,,,1,AV,2235.340000000084,completion,,,1839823,1839821.2000000002,1837569.183,1837572.5,1837585.86,1839837.339,,grey
Frame,canvas.Frame,2_41,2022-07-14T15:44:49.263Z,,,1,AV,2237.2399999999907,,,,1839823.3000000003,1839823.1,1837569.183,1837571.7000000002,1837585.86,1839837.339,,grey
Fixation,canvas.Screen,2_42_0_0,2022-07-14T15:44:51.313Z,,,1,AV,2051.408000000054,timeout,,,1841873.4,1841872.069,1839820.662,1839824.3000000003,1839837.339,1841888.747,,grey
Stimulus,canvas.Screen,2_42_0_1,2022-07-14T15:44:51.413Z,,,1,AV,100.0449999999255,timeout,,,1841973.4,1841972.115,1841872.069,1841873.7000000002,1841888.747,1841988.792,,grey
Reaction,canvas.Screen,2_42_0_2,2022-07-14T15:44:51.542Z,,,1,AV,112.30800000019372,response,stim_detected,mousedown,1842102.6,1842101.1,1841972.115,1841973.7000000002,1841988.792,1842105.501,,grey
Trial,flow.Sequence,2_42_0,2022-07-14T15:44:51.543Z,,,1,AV,2263.761000000173,completion,,,1842102.9,1842101.1,1839820.662,1839824.2000000002,1839837.339,1842105.501,,grey
Frame,canvas.Frame,2_42,2022-07-14T15:44:51.543Z,,,1,AV,2265.761000000173,,,,1842103.3000000003,1842103.1,1839820.662,1839823.4,1839837.339,1842105.501,,grey
Fixation,canvas.Screen,2_43_0_0,2022-07-14T15:44:53.148Z,,,0,V,1618.2080000001006,timeout,,,1843708.5,1843707.027,1842088.825,1842104.3000000003,1842105.501,1843723.709,,grey
Stimulus,canvas.Screen,2_43_0_1,2022-07-14T15:44:53.247Z,,,0,V,99.64399999985471,timeout,,,1843807.6,1843806.676,1843707.027,1843708.7000000002,1843723.709,1843823.353,,grey
Reaction,canvas.Screen,2_43_0_2,2022-07-14T15:44:53.421Z,,,0,V,156.74700000020675,response,stim_detected,mousedown,1843981.6,1843980.1,1843806.676,1843807.8000000003,1843823.353,1844006.739,,grey
Trial,flow.Sequence,2_43_0,2022-07-14T15:44:53.422Z,,,0,V,1874.599000000162,completion,,,1843981.9,1843980.1,1842088.825,1842104.2000000002,1842105.501,1844006.739,,grey
Frame,canvas.Frame,2_43,2022-07-14T15:44:53.422Z,,,0,V,1876.499000000069,,,,1843982.2000000002,1843982,1842088.825,1842103.4,1842105.501,1844006.739,,grey
Fixation,canvas.Screen,2_44_0_0,2022-07-14T15:44:55.282Z,,,1,AV,1851.5449999999255,timeout,,,1845842.7000000002,1845841.604,1843973.387,1843983.2000000002,1844006.739,1845858.284,,grey
Stimulus,canvas.Screen,2_44_0_1,2022-07-14T15:44:55.382Z,,,1,AV,99.58300000010058,timeout,,,1845942.6,1845941.191,1845841.604,1845842.9,1845858.284,1845957.867,,grey
Reaction,canvas.Screen,2_44_0_2,2022-07-14T15:44:55.564Z,,,1,AV,164.63299999991432,response,stim_detected,mousedown,1846124,1846122.5,1845941.191,1845942.9,1845957.867,1846141.535,,grey
Trial,flow.Sequence,2_44_0,2022-07-14T15:44:55.564Z,,,1,AV,2115.7609999999404,completion,,,1846124.4,1846122.5,1843973.387,1843983.2000000002,1844006.739,1846141.535,,grey
Frame,canvas.Frame,2_44,2022-07-14T15:44:55.565Z,,,1,AV,2117.7609999999404,,,,1846124.7000000002,1846124.5,1843973.387,1843982.4,1844006.739,1846141.535,,grey
Fixation,canvas.Screen,2_45_0_0,2022-07-14T15:44:58.036Z,,,1,AV,2468.4930000000168,timeout,,,1848594.9,1848593.349,1846124.858,1846125.7000000002,1846141.535,1848610.028,,grey
Stimulus,canvas.Screen,2_45_0_1,2022-07-14T15:44:58.136Z,,,1,AV,99.62600000016391,timeout,,,1848694.9,1848692.978,1848593.349,1848595.2000000002,1848610.028,1848709.654,,grey
Reaction,canvas.Screen,2_45_0_2,2022-07-14T15:44:58.269Z,,,1,AV,117.34599999990314,response,stim_detected,mousedown,1848828.7000000002,1848827,1848692.978,1848695.1,1848709.654,1848843.308,,grey
Trial,flow.Sequence,2_45_0,2022-07-14T15:44:58.270Z,,,1,AV,2685.465000000084,completion,,,1848829,1848827,1846124.858,1846125.6,1846141.535,1848843.308,,grey
Frame,canvas.Frame,2_45,2022-07-14T15:44:58.270Z,,,1,AV,2687.66500000027,,,,1848829.4,1848829.2000000002,1846124.858,1846124.9,1846141.535,1848843.308,,grey
Fixation,canvas.Screen,2_46_0_0,2022-07-14T15:45:00.503Z,,,1,AV,2233.9899999999907,timeout,,,1851061.9,1851060.626,1848826.631,1848830.4,1848843.308,1851077.298,,grey
Stimulus,canvas.Screen,2_46_0_1,2022-07-14T15:45:00.604Z,,,1,AV,100.92000000015832,timeout,,,1851163,1851161.539,1851060.626,1851062.1,1851077.298,1851178.218,,grey
Reaction,canvas.Screen,2_46_0_2,2022-07-14T15:45:00.702Z,,,1,AV,81.7819999998901,response,stim_detected,mousedown,1851261.5,1851260,1851161.539,1851163.3000000003,1851178.218,1851278.226,,grey
Trial,flow.Sequence,2_46_0,2022-07-14T15:45:00.703Z,,,1,AV,2416.692000000039,completion,,,1851261.9,1851260,1848826.631,1848830.3000000003,1848843.308,1851278.226,,grey
Frame,canvas.Frame,2_46,2022-07-14T15:45:00.703Z,,,1,AV,2418.7920000001322,,,,1851262.2000000002,1851262.1,1848826.631,1848829.6,1848843.308,1851278.226,,grey
Fixation,canvas.Screen,2_47_0_0,2022-07-14T15:45:02.856Z,,,0,V,2152.034999999916,timeout,,,1853414.9,1853413.579,1851261.549,1851263.4,1851278.226,1853430.261,,grey
Stimulus,canvas.Screen,2_47_0_1,2022-07-14T15:45:02.955Z,,,0,V,99.26800000015646,timeout,,,1853513.9,1853512.853,1853413.579,1853415.1,1853430.261,1853529.529,,grey
Reaction,canvas.Screen,2_47_0_2,2022-07-14T15:45:03.093Z,,,0,V,121.47099999990314,response,stim_detected,mousedown,1853652.4,1853651,1853512.853,1853514.1,1853529.529,1853663.158,,grey
Trial,flow.Sequence,2_47_0,2022-07-14T15:45:03.094Z,,,0,V,2372.773999999976,completion,,,1853652.8000000003,1853651,1851261.549,1851263.4,1851278.226,1853663.158,,grey
Frame,canvas.Frame,2_47,2022-07-14T15:45:03.094Z,,,0,V,2374.6739999998827,,,,1853653.1,1853652.9,1851261.549,1851262.4,1851278.226,1853663.158,,grey
Fixation,canvas.Screen,2_48_0_0,2022-07-14T15:45:04.956Z,,,0,V,1867.3270000000484,timeout,,,1855515.1,1855513.812,1853646.481,1853654.4,1853663.158,1855530.485,,grey
Stimulus,canvas.Screen,2_48_0_1,2022-07-14T15:45:05.057Z,,,0,V,100.37099999981001,timeout,,,1855616,1855614.181,1855513.812,1855515.4,1855530.485,1855630.856,,grey
Reaction,canvas.Screen,2_48_0_2,2022-07-14T15:45:05.240Z,,,0,V,167.14400000008754,response,stim_detected,mousedown,1855799.4,1855798,1855614.181,1855616.4,1855630.856,1855814.534,,grey
Trial,flow.Sequence,2_48_0,2022-07-14T15:45:05.241Z,,,0,V,2134.841999999946,completion,,,1855799.8000000003,1855798,1853646.481,1853654.3000000003,1853663.158,1855814.534,,grey
Frame,canvas.Frame,2_48,2022-07-14T15:45:05.241Z,,,0,V,2136.841999999946,,,,1855800.2000000002,1855800,1853646.481,1853653.4,1853663.158,1855814.534,,grey
Fixation,canvas.Screen,2_49_0_0,2022-07-14T15:45:07.343Z,,,0,V,2102.5190000000875,timeout,,,1857902,1857900.367,1855797.857,1855801.3000000003,1855814.534,1857917.053,,grey
Stimulus,canvas.Screen,2_49_0_1,2022-07-14T15:45:07.442Z,,,0,V,98.94799999985844,timeout,,,1858001,1857999.324,1857900.367,1857902.3000000003,1857917.053,1858016.001,,grey
Reaction,canvas.Screen,2_49_0_2,2022-07-14T15:45:07.574Z,,,0,V,115.89899999997579,response,stim_detected,mousedown,1858133.4,1858131.9,1857999.324,1858001.2000000002,1858016.001,1858149.425,,grey
Trial,flow.Sequence,2_49_0,2022-07-14T15:45:07.574Z,,,0,V,2317.3659999999218,completion,,,1858133.7000000002,1858131.9,1855797.857,1855801.1,1855814.534,1858149.425,,grey
Frame,canvas.Frame,2_49,2022-07-14T15:45:07.575Z,,,0,V,2319.3659999999218,,,,1858134,1858133.9,1855797.857,1855800.3000000003,1855814.534,1858149.425,,grey
Fixation,canvas.Screen,2_50_0_0,2022-07-14T15:45:09.977Z,,,0,V,2402.533999999985,timeout,,,1860536.2000000002,1860535.275,1858132.748,1858135.1,1858149.425,1860551.959,,grey
Stimulus,canvas.Screen,2_50_0_1,2022-07-14T15:45:10.077Z,,,0,V,99.10999999986961,timeout,,,1860636.2000000002,1860634.392,1860535.275,1860536.5,1860551.959,1860651.069,,grey
Reaction,canvas.Screen,2_50_0_2,2022-07-14T15:45:10.219Z,,,0,V,125.83100000000559,response,stim_detected,mousedown,1860778.2000000002,1860776.9,1860634.392,1860636.4,1860651.069,1860784.49,,grey
Trial,flow.Sequence,2_50_0,2022-07-14T15:45:10.219Z,,,0,V,2627.4749999998603,completion,,,1860778.5,1860776.9,1858132.748,1858135,1858149.425,1860784.49,,grey
Frame,canvas.Frame,2_50,2022-07-14T15:45:10.220Z,,,0,V,2629.2750000001397,,,,1860778.9,1860778.7000000002,1858132.748,1858134.1,1858149.425,1860784.49,,grey
Fixation,canvas.Screen,2_51_0_0,2022-07-14T15:45:12.296Z,,,1,A,2085.722999999998,timeout,,,1862855.2000000002,1862853.528,1860767.813,1860779.9,1860784.49,1862870.213,,black
Stimulus,canvas.Screen,2_51_0_1,2022-07-14T15:45:12.394Z,,,1,A,98.88199999998324,timeout,,,1862953.3000000003,1862952.419,1862853.528,1862855.5,1862870.213,1862969.095,,black
Reaction,canvas.Screen,2_51_0_2,2022-07-14T15:45:12.543Z,,,1,A,131.70500000030734,response,stim_detected,mousedown,1863102.2000000002,1863100.8000000003,1862952.419,1862953.5,1862969.095,1863119.36,,black
Trial,flow.Sequence,2_51_0,2022-07-14T15:45:12.543Z,,,1,A,2316.3100000002887,completion,,,1863102.6,1863100.8000000003,1860767.813,1860779.8000000003,1860784.49,1863119.36,,black
Frame,canvas.Frame,2_51,2022-07-14T15:45:12.544Z,,,1,A,2318.3100000002887,,,,1863103,1863102.8000000003,1860767.813,1860779.1,1860784.49,1863119.36,,black
Fixation,canvas.Screen,2_52_0_0,2022-07-14T15:45:15.031Z,,,1,A,2486.1639999998733,timeout,,,1865590.5,1865588.839,1863102.683,1863103.9,1863119.36,1865605.524,,black
Stimulus,canvas.Screen,2_52_0_1,2022-07-14T15:45:15.129Z,,,1,A,98.49200000008568,timeout,,,1865688.5,1865687.341,1865588.839,1865590.8000000003,1865605.524,1865704.016,,black
Reaction,canvas.Screen,2_52_0_2,2022-07-14T15:45:15.385Z,,,1,A,238.6840000001248,response,stim_detected,mousedown,1865944.3000000003,1865942.7000000002,1865687.341,1865688.9,1865704.016,1865954.602,,black
Trial,flow.Sequence,2_52_0,2022-07-14T15:45:15.385Z,,,1,A,2823.340000000084,completion,,,1865944.7000000002,1865942.7000000002,1863102.683,1863103.8000000003,1863119.36,1865954.602,,black
Frame,canvas.Frame,2_52,2022-07-14T15:45:15.386Z,,,1,A,2825.440000000177,,,,1865945,1865944.8000000003,1863102.683,1863103.1,1863119.36,1865954.602,,black
Fixation,canvas.Screen,2_53_0_0,2022-07-14T15:45:17.081Z,,,1,A,1701.4189999999944,timeout,,,1867640.4,1867639.341,1865937.925,1865946.1,1865954.602,1867656.021,,black
Stimulus,canvas.Screen,2_53_0_1,2022-07-14T15:45:17.181Z,,,1,A,99.77200000011362,timeout,,,1867740.4,1867738.996,1867639.341,1867640.7000000002,1867656.021,1867755.793,,black
Reaction,canvas.Screen,2_53_0_2,2022-07-14T15:45:17.411Z,,,1,A,213.00700000021607,response,stim_detected,mousedown,1867970.2000000002,1867968.8000000003,1867738.996,1867740.7000000002,1867755.793,1867972.594,,black
Trial,flow.Sequence,2_53_0,2022-07-14T15:45:17.411Z,,,1,A,2014.198000000324,completion,,,1867970.5,1867968.8000000003,1865937.925,1865946,1865954.602,1867972.594,,black
Frame,canvas.Frame,2_53,2022-07-14T15:45:17.412Z,,,1,A,2016.098000000231,,,,1867970.9,1867970.7000000002,1865937.925,1865945.2000000002,1865954.602,1867972.594,,black
Fixation,canvas.Screen,2_54_0_0,2022-07-14T15:45:18.966Z,,,0,V,1568.028999999864,timeout,,,1869525.1,1869523.942,1867955.917,1867971.8000000003,1867972.594,1869540.623,,grey
Stimulus,canvas.Screen,2_54_0_1,2022-07-14T15:45:19.065Z,,,0,V,99.54500000015832,timeout,,,1869624.5,1869623.493,1869523.942,1869525.3000000003,1869540.623,1869640.168,,grey
Reaction,canvas.Screen,2_54_0_2,2022-07-14T15:45:19.281Z,,,0,V,198.53200000012293,response,stim_detected,mousedown,1869840.2000000002,1869838.7000000002,1869623.493,1869624.7000000002,1869640.168,1869857.119,,grey
Trial,flow.Sequence,2_54_0,2022-07-14T15:45:19.281Z,,,0,V,1866.1060000001453,completion,,,1869840.6,1869838.7000000002,1867955.917,1867971.8000000003,1867972.594,1869857.119,,grey
Frame,canvas.Frame,2_54,2022-07-14T15:45:19.282Z,,,0,V,1868.0060000000522,,,,1869840.9,1869840.6,1867955.917,1867971,1867972.594,1869857.119,,grey
Fixation,canvas.Screen,2_55_0_0,2022-07-14T15:45:20.884Z,,,0,V,1602.033999999985,timeout,,,1871443.6,1871442.467,1869840.443,1869841.8000000003,1869857.119,1871459.153,,grey
Stimulus,canvas.Screen,2_55_0_1,2022-07-14T15:45:20.983Z,,,0,V,98.75600000005215,timeout,,,1871542.5,1871541.235,1871442.467,1871443.8000000003,1871459.153,1871557.909,,grey
Reaction,canvas.Screen,2_55_0_2,2022-07-14T15:45:21.157Z,,,0,V,156.79100000020117,response,stim_detected,mousedown,1871716.2000000002,1871714.7000000002,1871541.235,1871542.8000000003,1871557.909,1871725.087,,grey
Trial,flow.Sequence,2_55_0,2022-07-14T15:45:21.157Z,,,0,V,1857.5810000002384,completion,,,1871716.7000000002,1871714.7000000002,1869840.443,1869841.8000000003,1869857.119,1871725.087,,grey
Frame,canvas.Frame,2_55,2022-07-14T15:45:21.158Z,,,0,V,1859.780999999959,,,,1871717.1,1871716.9,1869840.443,1869841,1869857.119,1871725.087,,grey
Fixation,canvas.Screen,2_56_0_0,2022-07-14T15:45:23.384Z,,,0,V,2234.1319999999832,timeout,,,1873943.7000000002,1873942.546,1871708.41,1871718.1,1871725.087,1873959.219,,grey
Stimulus,canvas.Screen,2_56_0_1,2022-07-14T15:45:23.485Z,,,0,V,100.79799999995157,timeout,,,1874044.7000000002,1874043.338,1873942.546,1873943.9,1873959.219,1874060.017,,grey
Reaction,canvas.Screen,2_56_0_2,2022-07-14T15:45:23.660Z,,,0,V,157.58300000010058,response,stim_detected,mousedown,1874219.1,1874217.6,1874043.338,1874044.9,1874060.017,1874226.7,,grey
Trial,flow.Sequence,2_56_0,2022-07-14T15:45:23.660Z,,,0,V,2492.5130000000354,completion,,,1874219.5,1874217.6,1871708.41,1871718.1,1871725.087,1874226.7,,grey
Frame,canvas.Frame,2_56,2022-07-14T15:45:23.661Z,,,0,V,2494.5130000000354,,,,1874219.8000000003,1874219.6,1871708.41,1871717.3000000003,1871725.087,1874226.7,,grey
Fixation,canvas.Screen,2_57_0_0,2022-07-14T15:45:25.270Z,,,1,AV,1617.8980000000447,timeout,,,1875828.8000000003,1875827.919,1874210.023,1874220.8000000003,1874226.7,1875844.598,,grey
Stimulus,canvas.Screen,2_57_0_1,2022-07-14T15:45:25.369Z,,,1,AV,99.62899999995716,timeout,,,1875928.7000000002,1875927.552,1875827.919,1875829.2000000002,1875844.598,1875944.227,,grey
Reaction,canvas.Screen,2_57_0_2,2022-07-14T15:45:25.531Z,,,1,AV,144.2730000000447,response,stim_detected,mousedown,1876090.1,1876088.5,1875927.552,1875929,1875944.227,1876094.634,,grey
Trial,flow.Sequence,2_57_0,2022-07-14T15:45:25.531Z,,,1,AV,1861.8000000000466,completion,,,1876090.5,1876088.5,1874210.023,1874220.7000000002,1874226.7,1876094.634,,grey
Frame,canvas.Frame,2_57,2022-07-14T15:45:25.532Z,,,1,AV,1863.9000000001397,,,,1876090.8000000003,1876090.6,1874210.023,1874220,1874226.7,1876094.634,,grey
Fixation,canvas.Screen,2_58_0_0,2022-07-14T15:45:27.604Z,,,0,V,2083.933999999892,timeout,,,1878162.8000000003,1878161.896,1876077.957,1876091.9,1876094.634,1878178.568,,grey
Stimulus,canvas.Screen,2_58_0_1,2022-07-14T15:45:27.705Z,,,0,V,100.71900000004098,timeout,,,1878263.8000000003,1878262.611,1878161.896,1878163.1,1878178.568,1878279.287,,grey
Reaction,canvas.Screen,2_58_0_2,2022-07-14T15:45:27.893Z,,,0,V,171.21299999998882,response,stim_detected,mousedown,1878452,1878450.5,1878262.611,1878264.1,1878279.287,1878462.86,,grey
Trial,flow.Sequence,2_58_0,2022-07-14T15:45:27.893Z,,,0,V,2355.8659999999218,completion,,,1878452.3000000003,1878450.5,1876077.957,1876091.8000000003,1876094.634,1878462.86,,grey
Frame,canvas.Frame,2_58,2022-07-14T15:45:27.893Z,,,0,V,2357.8659999999218,,,,1878452.6,1878452.5,1876077.957,1876091.1,1876094.634,1878462.86,,grey
Fixation,canvas.Screen,2_59_0_0,2022-07-14T15:45:29.739Z,,,1,AV,1850.903999999864,timeout,,,1880297.9,1880297.089,1878446.183,1878453.7000000002,1878462.86,1880313.764,,grey
Stimulus,canvas.Screen,2_59_0_1,2022-07-14T15:45:29.840Z,,,1,AV,100.43999999994412,timeout,,,1880398.9,1880397.525,1880297.089,1880298.1,1880313.764,1880414.204,,grey
Reaction,canvas.Screen,2_59_0_2,2022-07-14T15:45:30.022Z,,,1,AV,165.2960000000894,response,stim_detected,mousedown,1880581,1880579.5,1880397.525,1880399.2000000002,1880414.204,1880597.607,,grey
Trial,flow.Sequence,2_59_0,2022-07-14T15:45:30.022Z,,,1,AV,2116.6399999998976,completion,,,1880581.4,1880579.5,1878446.183,1878453.6,1878462.86,1880597.607,,grey
Frame,canvas.Frame,2_59,2022-07-14T15:45:30.022Z,,,1,AV,2118.6399999998976,,,,1880581.7000000002,1880581.5,1878446.183,1878452.8000000003,1878462.86,1880597.607,,grey
Fixation,canvas.Screen,2_60_0_0,2022-07-14T15:45:32.175Z,,,0,V,2151.4860000000335,timeout,,,1882734,1882732.415,1880580.93,1880582.7000000002,1880597.607,1882749.093,,grey
Stimulus,canvas.Screen,2_60_0_1,2022-07-14T15:45:32.275Z,,,0,V,100.04799999995157,timeout,,,1882834.2000000002,1882832.463,1882732.415,1882734.2000000002,1882749.093,1882849.141,,grey
Reaction,canvas.Screen,2_60_0_2,2022-07-14T15:45:32.441Z,,,0,V,149.2589999998454,response,stim_detected,mousedown,1883000.1,1882998.4,1882832.463,1882834.5,1882849.141,1883015.835,,grey
Trial,flow.Sequence,2_60_0,2022-07-14T15:45:32.441Z,,,0,V,2400.7929999998305,completion,,,1883000.4,1882998.4,1880580.93,1880582.7000000002,1880597.607,1883015.835,,grey
Frame,canvas.Frame,2_60,2022-07-14T15:45:32.442Z,,,0,V,2402.9930000000168,,,,1883000.8000000003,1883000.6,1880580.93,1880581.9,1880597.607,1883015.835,,grey
Fixation,canvas.Screen,2_61_0_0,2022-07-14T15:45:34.676Z,,,1,AV,2235.185000000056,timeout,,,1885235.2000000002,1885234.34,1882999.159,1883001.8000000003,1883015.835,1885251.02,,grey
Stimulus,canvas.Screen,2_61_0_1,2022-07-14T15:45:34.776Z,,,1,AV,99.62999999988824,timeout,,,1885335.1,1885333.973,1885234.34,1885235.5,1885251.02,1885350.65,,grey
Reaction,canvas.Screen,2_61_0_2,2022-07-14T15:45:34.921Z,,,1,AV,127.75,response,stim_detected,mousedown,1885479.8000000003,1885478.4,1885333.973,1885335.3000000003,1885350.65,1885500.868,,grey
Trial,flow.Sequence,2_61_0,2022-07-14T15:45:34.921Z,,,1,AV,2462.564999999944,completion,,,1885480.2000000002,1885478.4,1882999.159,1883001.7000000002,1883015.835,1885500.868,,grey
Frame,canvas.Frame,2_61,2022-07-14T15:45:34.921Z,,,1,AV,2464.564999999944,,,,1885480.5,1885480.4,1882999.159,1883001,1883015.835,1885500.868,,grey
Fixation,canvas.Screen,2_62_0_0,2022-07-14T15:45:37.127Z,,,1,AV,2200.503999999957,timeout,,,1887686.6,1887684.701,1885467.514,1885481.5,1885500.868,1887701.372,,grey
Stimulus,canvas.Screen,2_62_0_1,2022-07-14T15:45:37.228Z,,,1,AV,100.51300000003539,timeout,,,1887787.3000000003,1887785.211,1887684.701,1887686.9,1887701.372,1887801.885,,grey
Reaction,canvas.Screen,2_62_0_2,2022-07-14T15:45:37.345Z,,,1,AV,100.51499999989755,response,stim_detected,mousedown,1887904,1887902.4,1887785.211,1887787.6,1887801.885,1887919.076,,grey
Trial,flow.Sequence,2_62_0,2022-07-14T15:45:37.345Z,,,1,AV,2401.53199999989,completion,,,1887904.3000000003,1887902.4,1885467.514,1885481.5,1885500.868,1887919.076,,grey
Frame,canvas.Frame,2_62,2022-07-14T15:45:37.345Z,,,1,AV,2403.7320000000764,,,,1887904.8000000003,1887904.6,1885467.514,1885480.7000000002,1885500.868,1887919.076,,grey
Fixation,canvas.Screen,2_63_0_0,2022-07-14T15:45:39.313Z,,,1,A,1969.0260000000708,timeout,,,1889872.3000000003,1889871.416,1887902.399,1887905.9,1887919.076,1889888.102,,black
Stimulus,canvas.Screen,2_63_0_1,2022-07-14T15:45:39.412Z,,,1,A,98.4550000000745,timeout,,,1889971.3000000003,1889969.884,1889871.416,1889872.6,1889888.102,1889986.557,,black
Reaction,canvas.Screen,2_63_0_2,2022-07-14T15:45:39.581Z,,,1,A,151.84299999987707,response,stim_detected,mousedown,1890139.8000000003,1890138.4,1889969.884,1889971.6,1889986.557,1890153.934,,black
Trial,flow.Sequence,2_63_0,2022-07-14T15:45:39.581Z,,,1,A,2219.3240000000224,completion,,,1890140.3000000003,1890138.4,1887902.399,1887905.8000000003,1887919.076,1890153.934,,black
Frame,canvas.Frame,2_63,2022-07-14T15:45:39.581Z,,,1,A,2221.3240000000224,,,,1890140.6,1890140.4,1887902.399,1887904.9,1887919.076,1890153.934,,black
Fixation,canvas.Screen,2_64_0_0,2022-07-14T15:45:42.063Z,,,1,A,2484.219000000041,timeout,,,1892622.6,1892621.48,1890137.257,1890141.8000000003,1890153.934,1892638.153,,black
Stimulus,canvas.Screen,2_64_0_1,2022-07-14T15:45:42.164Z,,,1,A,100.86000000010245,timeout,,,1892723.6,1892722.335,1892621.48,1892622.9,1892638.153,1892739.013,,black
Reaction,canvas.Screen,2_64_0_2,2022-07-14T15:45:42.314Z,,,1,A,132.287000000244,response,stim_detected,mousedown,1892872.7000000002,1892871.3000000003,1892722.335,1892723.8000000003,1892739.013,1892889.043,,black
Trial,flow.Sequence,2_64_0,2022-07-14T15:45:42.314Z,,,1,A,2717.3660000003874,completion,,,1892873.2000000002,1892871.3000000003,1890137.257,1890141.7000000002,1890153.934,1892889.043,,black
Frame,canvas.Frame,2_64,2022-07-14T15:45:42.314Z,,,1,A,2719.466000000015,,,,1892873.5,1892873.4,1890137.257,1890140.8000000003,1890153.934,1892889.043,,black
Fixation,canvas.Screen,2_65_0_0,2022-07-14T15:45:44.215Z,,,1,A,1901.0529999998398,timeout,,,1894774.5,1894773.42,1892872.366,1892874.5,1892889.043,1894790.096,,black
Stimulus,canvas.Screen,2_65_0_1,2022-07-14T15:45:44.316Z,,,1,A,100.3640000000596,timeout,,,1894875.5,1894873.781,1894773.42,1894774.7000000002,1894790.096,1894890.46,,black
Reaction,canvas.Screen,2_65_0_2,2022-07-14T15:45:44.482Z,,,1,A,149.74000000022352,response,stim_detected,mousedown,1895041.7000000002,1895040.2000000002,1894873.781,1894875.8000000003,1894890.46,1895057.151,,black
Trial,flow.Sequence,2_65_0,2022-07-14T15:45:44.483Z,,,1,A,2151.157000000123,completion,,,1895042.1,1895040.2000000002,1892872.366,1892874.5,1892889.043,1895057.151,,black
Frame,canvas.Frame,2_65,2022-07-14T15:45:44.483Z,,,1,A,2153.257000000216,,,,1895042.5,1895042.3000000003,1892872.366,1892873.7000000002,1892889.043,1895057.151,,black
Fixation,canvas.Screen,2_66_0_0,2022-07-14T15:45:46.818Z,,,0,V,2334.6409999998286,timeout,,,1897377.4,1897375.116,1895040.474,1895043.5,1895057.151,1897391.792,,grey
Stimulus,canvas.Screen,2_66_0_1,2022-07-14T15:45:46.918Z,,,0,V,100.41500000003725,timeout,,,1897477.3000000003,1897475.529,1897375.116,1897377.6,1897391.792,1897492.207,,grey
Reaction,canvas.Screen,2_66_0_2,2022-07-14T15:45:47.075Z,,,0,V,140.9930000002496,response,stim_detected,mousedown,1897634.6,1897633.2000000002,1897475.529,1897477.6,1897492.207,1897642.199,,grey
Trial,flow.Sequence,2_66_0,2022-07-14T15:45:47.076Z,,,0,V,2576.0490000001155,completion,,,1897635.1,1897633.2000000002,1895040.474,1895043.5,1895057.151,1897642.199,,grey
Frame,canvas.Frame,2_66,2022-07-14T15:45:47.076Z,,,0,V,2578.0490000001155,,,,1897635.4,1897635.2000000002,1895040.474,1895042.7000000002,1895057.151,1897642.199,,grey
Fixation,canvas.Screen,2_67_0_0,2022-07-14T15:45:49.437Z,,,1,AV,2368.560999999987,timeout,,,1899995.8000000003,1899994.08,1897625.522,1897636.7000000002,1897642.199,1900010.76,,grey
Stimulus,canvas.Screen,2_67_0_1,2022-07-14T15:45:49.535Z,,,1,AV,99.1909999998752,timeout,,,1900094.7000000002,1900093.277,1899994.08,1899996.3000000003,1900010.76,1900109.951,,grey
Reaction,canvas.Screen,2_67_0_2,2022-07-14T15:45:49.668Z,,,1,AV,116.24900000030175,response,stim_detected,mousedown,1900227.8000000003,1900226.2000000002,1900093.277,1900094.9,1900109.951,1900243.922,,grey
Trial,flow.Sequence,2_67_0,2022-07-14T15:45:49.669Z,,,1,AV,2584.001000000164,completion,,,1900228.2000000002,1900226.2000000002,1897625.522,1897636.5,1897642.199,1900243.922,,grey
Frame,canvas.Frame,2_67,2022-07-14T15:45:49.669Z,,,1,AV,2586.001000000164,,,,1900228.4,1900228.2000000002,1897625.522,1897635.5,1897642.199,1900243.922,,grey
Fixation,canvas.Screen,2_68_0_0,2022-07-14T15:45:51.487Z,,,0,V,1816.8319999999367,timeout,,,1902045.9,1902044.085,1900227.245,1900229.5,1900243.922,1902060.754,,grey
Stimulus,canvas.Screen,2_68_0_1,2022-07-14T15:45:51.588Z,,,0,V,101.07799999997951,timeout,,,1902146.9,1902145.155,1902044.085,1902046.1,1902060.754,1902161.832,,grey
Reaction,canvas.Screen,2_68_0_2,2022-07-14T15:45:51.748Z,,,0,V,143.3680000002496,response,stim_detected,mousedown,1902306.9,1902305.2000000002,1902145.155,1902147,1902161.832,1902311.911,,grey
Trial,flow.Sequence,2_68_0,2022-07-14T15:45:51.748Z,,,0,V,2061.278000000166,completion,,,1902307.3000000003,1902305.2000000002,1900227.245,1900229.4,1900243.922,1902311.911,,grey
Frame,canvas.Frame,2_68,2022-07-14T15:45:51.748Z,,,0,V,2063.5779999999795,,,,1902307.6,1902307.5,1900227.245,1900228.6,1900243.922,1902311.911,,grey
Fixation,canvas.Screen,2_69_0_0,2022-07-14T15:45:53.640Z,,,1,AV,1902.4889999998268,timeout,,,1904198.8000000003,1904197.712,1902295.234,1902308.7000000002,1902311.911,1904214.4,,grey
Stimulus,canvas.Screen,2_69_0_1,2022-07-14T15:45:53.739Z,,,1,AV,98.47200000006706,timeout,,,1904297.9,1904296.198,1904197.712,1904199.1,1904214.4,1904312.872,,grey
Reaction,canvas.Screen,2_69_0_2,2022-07-14T15:45:53.872Z,,,1,AV,116.62800000002608,response,stim_detected,mousedown,1904431.2000000002,1904429.5,1904296.198,1904298.1,1904312.872,1904446.694,,grey
Trial,flow.Sequence,2_69_0,2022-07-14T15:45:53.872Z,,,1,AV,2117.58899999992,completion,,,1904431.6,1904429.5,1902295.234,1902308.6,1902311.911,1904446.694,,grey
Frame,canvas.Frame,2_69,2022-07-14T15:45:53.873Z,,,1,AV,2119.789000000106,,,,1904431.9,1904431.7000000002,1902295.234,1902307.9,1902311.911,1904446.694,,grey
Fixation,canvas.Screen,2_70_0_0,2022-07-14T15:45:55.823Z,,,1,AV,1950.9520000000484,timeout,,,1906381.9,1906380.971,1904430.017,1904433.3000000003,1904446.694,1906397.646,,grey
Stimulus,canvas.Screen,2_70_0_1,2022-07-14T15:45:55.924Z,,,1,AV,100.30000000004657,timeout,,,1906483,1906481.27,1906380.971,1906382.2000000002,1906397.646,1906497.946,,grey
Reaction,canvas.Screen,2_70_0_2,2022-07-14T15:45:56.016Z,,,1,AV,76.15400000009686,response,stim_detected,mousedown,1906575.5,1906574.1,1906481.27,1906483.2000000002,1906497.946,1906581.42,,grey
Trial,flow.Sequence,2_70_0,2022-07-14T15:45:56.017Z,,,1,AV,2127.406000000192,completion,,,1906575.9,1906574.1,1904430.017,1904433.2000000002,1904446.694,1906581.42,,grey
Frame,canvas.Frame,2_70,2022-07-14T15:45:56.017Z,,,1,AV,2129.3060000000987,,,,1906576.3000000003,1906576,1904430.017,1904432.3000000003,1904446.694,1906581.42,,grey
Fixation,canvas.Screen,2_71_0_0,2022-07-14T15:45:58.027Z,,,1,A,2018.5620000001509,timeout,,,1908585,1908583.3,1906564.743,1906577.4,1906581.42,1908599.982,,black
Stimulus,canvas.Screen,2_71_0_1,2022-07-14T15:45:58.126Z,,,1,A,99.32199999992736,timeout,,,1908684.1,1908682.628,1908583.3,1908585.3000000003,1908599.982,1908699.304,,black
Reaction,canvas.Screen,2_71_0_2,2022-07-14T15:45:58.286Z,,,1,A,143.7960000000894,response,stim_detected,mousedown,1908844.6,1908843.1,1908682.628,1908684.4,1908699.304,1908866.277,,black
Trial,flow.Sequence,2_71_0,2022-07-14T15:45:58.287Z,,,1,A,2261.6800000001676,completion,,,1908844.9,1908843.1,1906564.743,1906577.3000000003,1906581.42,1908866.277,,black
Frame,canvas.Frame,2_71,2022-07-14T15:45:58.287Z,,,1,A,2263.6800000001676,,,,1908845.3000000003,1908845.1,1906564.743,1906576.4,1906581.42,1908866.277,,black
Fixation,canvas.Screen,2_72_0_0,2022-07-14T15:46:00.027Z,,,0,V,1734.2979999999516,timeout,,,1910585.2000000002,1910583.899,1908832.923,1908846.7000000002,1908866.277,1910600.575,,grey
Stimulus,canvas.Screen,2_72_0_1,2022-07-14T15:46:00.127Z,,,0,V,100.21200000005774,timeout,,,1910685,1910684.11,1910583.899,1910585.6,1910600.575,1910700.787,,grey
Reaction,canvas.Screen,2_72_0_2,2022-07-14T15:46:00.301Z,,,0,V,157.1129999998957,response,stim_detected,mousedown,1910859.5,1910857.9,1910684.11,1910685.6,1910700.787,1910867.601,,grey
Trial,flow.Sequence,2_72_0,2022-07-14T15:46:00.302Z,,,0,V,1991.622999999905,completion,,,1910859.9,1910857.9,1908832.923,1908846.5,1908866.277,1910867.601,,grey
Frame,canvas.Frame,2_72,2022-07-14T15:46:00.302Z,,,0,V,1993.7229999999981,,,,1910860.2000000002,1910860,1908832.923,1908845.5,1908866.277,1910867.601,,grey
Fixation,canvas.Screen,2_73_0_0,2022-07-14T15:46:01.811Z,,,1,A,1517.4010000000708,timeout,,,1912369.2000000002,1912368.327,1910850.924,1910861.2000000002,1910867.601,1912385.002,,black
Stimulus,canvas.Screen,2_73_0_1,2022-07-14T15:46:01.912Z,,,1,A,100.35099999979138,timeout,,,1912470.3000000003,1912468.676,1912368.327,1912369.6,1912385.002,1912485.353,,black
Reaction,canvas.Screen,2_73_0_2,2022-07-14T15:46:02.076Z,,,1,A,147.64700000011362,response,stim_detected,mousedown,1912634.6,1912633,1912468.676,1912470.5,1912485.353,1912652.105,,black
Trial,flow.Sequence,2_73_0,2022-07-14T15:46:02.077Z,,,1,A,1765.3989999999758,completion,,,1912635,1912633,1910850.924,1910861.1,1910867.601,1912652.105,,black
Frame,canvas.Frame,2_73,2022-07-14T15:46:02.077Z,,,1,A,1767.499000000069,,,,1912635.3000000003,1912635.1,1910850.924,1910860.4,1910867.601,1912652.105,,black
Fixation,canvas.Screen,2_74_0_0,2022-07-14T15:46:04.130Z,,,1,AV,2051.5449999999255,timeout,,,1914688.3000000003,1914686.971,1912635.428,1912637.1,1912652.105,1914703.65,,grey
Stimulus,canvas.Screen,2_74_0_1,2022-07-14T15:46:04.230Z,,,1,AV,99.78700000001118,timeout,,,1914788.3000000003,1914786.761,1914686.971,1914688.5,1914703.65,1914803.437,,grey
Reaction,canvas.Screen,2_74_0_2,2022-07-14T15:46:04.348Z,,,1,AV,101.46299999998882,response,stim_detected,mousedown,1914906.4,1914904.9,1914786.761,1914788.6,1914803.437,1914920.282,,grey
Trial,flow.Sequence,2_74_0,2022-07-14T15:46:04.349Z,,,1,AV,2252.7949999999255,completion,,,1914906.8000000003,1914904.9,1912635.428,1912637.1,1912652.105,1914920.282,,grey
Frame,canvas.Frame,2_74,2022-07-14T15:46:04.349Z,,,1,AV,2254.7949999999255,,,,1914907.1,1914906.9,1912635.428,1912635.4,1912652.105,1914920.282,,grey
Fixation,canvas.Screen,2_75_0_0,2022-07-14T15:46:06.731Z,,,1,A,2384.815000000177,timeout,,,1917289.5,1917288.42,1914903.605,1914908.1,1914920.282,1917305.097,,black
Stimulus,canvas.Screen,2_75_0_1,2022-07-14T15:46:06.831Z,,,1,A,100.04700000002049,timeout,,,1917389.6,1917388.468,1917288.42,1917289.7000000002,1917305.097,1917405.144,,black
Reaction,canvas.Screen,2_75_0_2,2022-07-14T15:46:06.964Z,,,1,A,115.75599999981932,response,stim_detected,mousedown,1917522.4,1917520.9,1917388.468,1917389.8000000003,1917405.144,1917538.676,,black
Trial,flow.Sequence,2_75_0,2022-07-14T15:46:06.964Z,,,1,A,2600.6180000000168,completion,,,1917522.7000000002,1917520.9,1914903.605,1914908.1,1914920.282,1917538.676,,black
Frame,canvas.Frame,2_75,2022-07-14T15:46:06.965Z,,,1,A,2602.5180000003893,,,,1917523,1917522.8000000003,1914903.605,1914907.3000000003,1914920.282,1917538.676,,black
Fixation,canvas.Screen,2_76_0_0,2022-07-14T15:46:09.100Z,,,1,AV,2134.6670000001322,timeout,,,1919658.5,1919656.666,1917521.999,1917524.3000000003,1917538.676,1919673.343,,grey
Stimulus,canvas.Screen,2_76_0_1,2022-07-14T15:46:09.199Z,,,1,AV,100.12199999997392,timeout,,,1919757.5,1919756.651,1919656.666,1919658.7000000002,1919673.343,1919773.465,,grey
Reaction,canvas.Screen,2_76_0_2,2022-07-14T15:46:09.324Z,,,1,AV,106.73500000010245,response,stim_detected,mousedown,1919881.8000000003,1919880.2000000002,1919756.651,1919757.8000000003,1919773.465,1919890.204,,grey
Trial,flow.Sequence,2_76_0,2022-07-14T15:46:09.324Z,,,1,AV,2341.5240000002086,completion,,,1919882.2000000002,1919880.2000000002,1917521.999,1917524.2000000002,1917538.676,1919890.204,,grey
Frame,canvas.Frame,2_76,2022-07-14T15:46:09.324Z,,,1,AV,2343.5240000002086,,,,1919882.5,1919882.2000000002,1917521.999,1917523.2000000002,1917538.676,1919890.204,,grey
Fixation,canvas.Screen,2_77_0_0,2022-07-14T15:46:11.452Z,,,0,V,2135.3610000000335,timeout,,,1922010.5,1922008.883,1919873.527,1919883.5,1919890.204,1922025.565,,grey
Stimulus,canvas.Screen,2_77_0_1,2022-07-14T15:46:11.551Z,,,0,V,99.67299999995157,timeout,,,1922109.5,1922108.559,1922008.883,1922010.8000000003,1922025.565,1922125.238,,grey
Reaction,canvas.Screen,2_77_0_2,2022-07-14T15:46:11.723Z,,,0,V,154.5620000003837,response,stim_detected,mousedown,1922281.3000000003,1922279.8000000003,1922108.559,1922109.8000000003,1922125.238,1922358.479,,grey
Trial,flow.Sequence,2_77_0,2022-07-14T15:46:11.723Z,,,0,V,2389.596000000369,completion,,,1922281.7000000002,1922279.8000000003,1919873.527,1919883.4,1919890.204,1922358.479,,grey
Frame,canvas.Frame,2_77,2022-07-14T15:46:11.724Z,,,0,V,2391.596000000369,,,,1922282,1922281.8000000003,1919873.527,1919882.6,1919890.204,1922358.479,,grey
Fixation,canvas.Screen,2_78_0_0,2022-07-14T15:46:13.421Z,,,1,A,1635.6699999999255,timeout,,,1923978.7000000002,1923977.459,1922275.099,1922282.9,1922358.479,1923994.149,,black
Stimulus,canvas.Screen,2_78_0_1,2022-07-14T15:46:13.519Z,,,1,A,98.3519999999553,timeout,,,1924077.6,1924075.828,1923977.459,1923979,1923994.149,1924092.501,,black
Reaction,canvas.Screen,2_78_0_2,2022-07-14T15:46:13.777Z,,,1,A,241.29900000034831,response,stim_detected,mousedown,1924335.3000000003,1924333.8000000003,1924075.828,1924077.9,1924092.501,1924343.125,,black
Trial,flow.Sequence,2_78_0,2022-07-14T15:46:13.777Z,,,1,A,1975.321000000229,completion,,,1924335.6,1924333.8000000003,1922275.099,1922282.8000000003,1922358.479,1924343.125,,black
Frame,canvas.Frame,2_78,2022-07-14T15:46:13.778Z,,,1,A,1977.321000000229,,,,1924335.9,1924335.8000000003,1922275.099,1922282.1,1922358.479,1924343.125,,black
Fixation,canvas.Screen,2_79_0_0,2022-07-14T15:46:16.273Z,,,1,AV,2503.1110000000335,timeout,,,1926831,1926829.549,1924326.448,1924337,1924343.125,1926846.236,,grey
Stimulus,canvas.Screen,2_79_0_1,2022-07-14T15:46:16.372Z,,,1,AV,98.60700000007637,timeout,,,1926930,1926928.166,1926829.549,1926831.1,1926846.236,1926944.843,,grey
Reaction,canvas.Screen,2_79_0_2,2022-07-14T15:46:16.514Z,,,1,AV,125.85700000007637,response,stim_detected,mousedown,1927072.2000000002,1927070.7000000002,1926928.166,1926930.2000000002,1926944.843,1927078.313,,grey
Trial,flow.Sequence,2_79_0,2022-07-14T15:46:16.514Z,,,1,AV,2727.5750000001863,completion,,,1927072.5,1927070.7000000002,1924326.448,1924336.9,1924343.125,1927078.313,,grey
Frame,canvas.Frame,2_79,2022-07-14T15:46:16.515Z,,,1,AV,2729.5750000001863,,,,1927072.9,1927072.7000000002,1924326.448,1924336.1,1924343.125,1927078.313,,grey
Fixation,canvas.Screen,2_80_0_0,2022-07-14T15:46:18.957Z,,,0,V,2451.530000000028,timeout,,,1929514.9,1929513.166,1927061.636,1927073.9,1927078.313,1929529.843,,grey
Stimulus,canvas.Screen,2_80_0_1,2022-07-14T15:46:19.057Z,,,0,V,99.90999999991618,timeout,,,1929614.9,1929613.077,1929513.166,1929515.2000000002,1929529.843,1929629.753,,grey
Reaction,canvas.Screen,2_80_0_2,2022-07-14T15:46:19.244Z,,,0,V,170.9470000001602,response,stim_detected,mousedown,1929802.1,1929800.7000000002,1929613.077,1929615.3000000003,1929629.753,1929813.448,,grey
Trial,flow.Sequence,2_80_0,2022-07-14T15:46:19.244Z,,,0,V,2722.3870000001043,completion,,,1929802.5,1929800.7000000002,1927061.636,1927073.8000000003,1927078.313,1929813.448,,grey
Frame,canvas.Frame,2_80,2022-07-14T15:46:19.245Z,,,0,V,2724.287000000011,,,,1929802.8000000003,1929802.6,1927061.636,1927073.1,1927078.313,1929813.448,,grey
Fixation,canvas.Screen,2_81_0_0,2022-07-14T15:46:21.508Z,,,1,A,2267.9229999999516,timeout,,,1932066.6,1932064.695,1929796.771,1929803.8000000003,1929813.448,1932081.371,,black
Stimulus,canvas.Screen,2_81_0_1,2022-07-14T15:46:21.608Z,,,1,A,100.32999999984168,timeout,,,1932166,1932165.024,1932064.695,1932066.9,1932081.371,1932181.701,,black
Reaction,canvas.Screen,2_81_0_2,2022-07-14T15:46:21.777Z,,,1,A,151.89900000020862,response,stim_detected,mousedown,1932335,1932333.6,1932165.024,1932166.3000000003,1932181.701,1932348.446,,black
Trial,flow.Sequence,2_81_0,2022-07-14T15:46:21.778Z,,,1,A,2520.152000000002,completion,,,1932336.2000000002,1932333.6,1929796.771,1929803.7000000002,1929813.448,1932348.446,,black
Frame,canvas.Frame,2_81,2022-07-14T15:46:21.778Z,,,1,A,2522.852000000188,,,,1932336.5,1932336.3000000003,1929796.771,1929802.9,1929813.448,1932348.446,,black
Fixation,canvas.Screen,2_82_0_0,2022-07-14T15:46:23.560Z,,,1,A,1784.560999999987,timeout,,,1934118,1934116.329,1932331.769,1932337.7000000002,1932348.446,1934133.007,,black
Stimulus,canvas.Screen,2_82_0_1,2022-07-14T15:46:23.659Z,,,1,A,99.58799999998882,timeout,,,1934216.9,1934215.921,1934116.329,1934118.3000000003,1934133.007,1934232.595,,black
Reaction,canvas.Screen,2_82_0_2,2022-07-14T15:46:23.888Z,,,1,A,212.00500000012107,response,stim_detected,mousedown,1934446.3000000003,1934444.6,1934215.921,1934217.3000000003,1934232.595,1934449.788,,black
Trial,flow.Sequence,2_82_0,2022-07-14T15:46:23.889Z,,,1,A,2096.154000000097,completion,,,1934446.8000000003,1934444.6,1932331.769,1932337.5,1932348.446,1934449.788,,black
Frame,canvas.Frame,2_82,2022-07-14T15:46:23.889Z,,,1,A,2098.4539999999106,,,,1934447,1934446.9,1932331.769,1932336.7000000002,1932348.446,1934449.788,,black
Fixation,canvas.Screen,2_83_0_0,2022-07-14T15:46:25.745Z,,,1,A,1868.5749999999534,timeout,,,1936303.1,1936301.68,1934433.111,1934448.6,1934449.788,1936318.363,,black
Stimulus,canvas.Screen,2_83_0_1,2022-07-14T15:46:25.844Z,,,1,A,99.47900000005029,timeout,,,1936402.1,1936401.164,1936301.68,1936303.3000000003,1936318.363,1936417.842,,black
Reaction,canvas.Screen,2_83_0_2,2022-07-14T15:46:26.088Z,,,1,A,226.65800000005402,response,stim_detected,mousedown,1936646.3000000003,1936644.5,1936401.164,1936402.3000000003,1936417.842,1936651.295,,black
Trial,flow.Sequence,2_83_0,2022-07-14T15:46:26.089Z,,,1,A,2194.7120000000577,completion,,,1936646.7000000002,1936644.5,1934433.111,1934448.5,1934449.788,1936651.295,,black
Frame,canvas.Frame,2_83,2022-07-14T15:46:26.089Z,,,1,A,2197.1119999999646,,,,1936647,1936646.9,1934433.111,1934447.8000000003,1934449.788,1936651.295,,black
Fixation,canvas.Screen,2_84_0_0,2022-07-14T15:46:28.345Z,,,1,AV,2267.7680000001565,timeout,,,1938903.3000000003,1938902.388,1936634.618,1936648,1936651.295,1938919.063,,grey
Stimulus,canvas.Screen,2_84_0_1,2022-07-14T15:46:28.445Z,,,1,AV,99.90799999982119,timeout,,,1939003.4,1939002.297,1938902.388,1938903.6,1938919.063,1939018.971,,grey
Reaction,canvas.Screen,2_84_0_2,2022-07-14T15:46:28.582Z,,,1,AV,119.52900000009686,response,stim_detected,mousedown,1939139.9,1939138.5,1939002.297,1939003.6,1939018.971,1939152.912,,grey
Trial,flow.Sequence,2_84_0,2022-07-14T15:46:28.582Z,,,1,AV,2487.2050000000745,completion,,,1939140.3000000003,1939138.5,1936634.618,1936648,1936651.295,1939152.912,,grey
Frame,canvas.Frame,2_84,2022-07-14T15:46:28.583Z,,,1,AV,2489.3050000001676,,,,1939140.8000000003,1939140.6,1936634.618,1936647.2000000002,1936651.295,1939152.912,,grey
Fixation,canvas.Screen,2_85_0_0,2022-07-14T15:46:30.931Z,,,0,V,2351.7679999999236,timeout,,,1941489.5,1941488.001,1939136.235,1939141.9,1939152.912,1941504.68,,grey
Stimulus,canvas.Screen,2_85_0_1,2022-07-14T15:46:31.293Z,,,0,V,350.1019999999553,timeout,,,1941850.8000000003,1941838.103,1941488.001,1941489.7000000002,1941504.68,1941854.782,,grey
Reaction,canvas.Screen,2_85_0_2,2022-07-14T15:46:32.782Z,,,0,V,1500.8479999999981,timeout,,,1943340.4,1943338.953,1941838.103,1941851,1941854.782,1943355.63,,grey
Trial,flow.Sequence,2_85_0,2022-07-14T15:46:32.783Z,,,0,V,4186.040999999968,completion,,,1943340.7000000002,1943338.953,1939136.235,1939141.7000000002,1939152.912,1943355.63,,grey
Frame,canvas.Frame,2_85,2022-07-14T15:46:32.783Z,,,0,V,4187.987999999896,,,,1943341.1,1943340.9,1939136.235,1939141,1939152.912,1943372.307,,grey
Fixation,canvas.Screen,2_86_0_0,2022-07-14T15:46:34.466Z,,,1,A,1667.7730000000447,timeout,,,1945024.4,1945023.403,1943355.63,1943342.1,1943372.307,1945040.08,,black
Stimulus,canvas.Screen,2_86_0_1,2022-07-14T15:46:34.567Z,,,1,A,100.4069999998901,timeout,,,1945125.5,1945123.779,1945023.403,1945024.7000000002,1945040.08,1945140.487,,black
Reaction,canvas.Screen,2_86_0_2,2022-07-14T15:46:34.751Z,,,1,A,166.91299999994226,response,stim_detected,mousedown,1945308.8000000003,1945307.4,1945123.779,1945125.9,1945140.487,1945323.693,,black
Trial,flow.Sequence,2_86_0,2022-07-14T15:46:34.751Z,,,1,A,1935.092999999877,completion,,,1945309.3000000003,1945307.4,1943355.63,1943341.9,1943372.307,1945323.693,,black
Frame,canvas.Frame,2_86,2022-07-14T15:46:34.751Z,,,1,A,1937.092999999877,,,,1945309.5,1945309.4,1943355.63,1943341.3000000003,1943372.307,1945323.693,,black
Fixation,canvas.Screen,2_87_0_0,2022-07-14T15:46:36.918Z,,,1,A,2167.8640000000596,timeout,,,1947476.6,1947474.881,1945307.016,1945310.5,1945323.693,1947491.557,,black
Stimulus,canvas.Screen,2_87_0_1,2022-07-14T15:46:37.019Z,,,1,A,100.07099999999627,timeout,,,1947576.7000000002,1947574.952,1947474.881,1947477,1947491.557,1947591.628,,black
Reaction,canvas.Screen,2_87_0_2,2022-07-14T15:46:37.218Z,,,1,A,182.7719999998808,response,stim_detected,mousedown,1947776.2000000002,1947774.4,1947574.952,1947577,1947591.628,1947791.972,,black
Trial,flow.Sequence,2_87_0,2022-07-14T15:46:37.218Z,,,1,A,2450.7069999999367,completion,,,1947776.6,1947774.4,1945307.016,1945310.4,1945323.693,1947791.972,,black
Frame,canvas.Frame,2_87,2022-07-14T15:46:37.219Z,,,1,A,2453.107000000309,,,,1947777,1947776.8000000003,1945307.016,1945309.7000000002,1945323.693,1947791.972,,black
Fixation,canvas.Screen,2_88_0_0,2022-07-14T15:46:39.571Z,,,1,A,2352.1759999999776,timeout,,,1950128.8000000003,1950127.466,1947775.295,1947778,1947791.972,1950144.148,,black
Stimulus,canvas.Screen,2_88_0_1,2022-07-14T15:46:39.670Z,,,1,A,99.21900000004098,timeout,,,1950227.7000000002,1950226.691,1950127.466,1950129,1950144.148,1950243.367,,black
Reaction,canvas.Screen,2_88_0_2,2022-07-14T15:46:39.826Z,,,1,A,139.93300000019372,response,stim_detected,mousedown,1950384.7000000002,1950383.3000000003,1950226.691,1950228,1950243.367,1950393.706,,black
Trial,flow.Sequence,2_88_0,2022-07-14T15:46:39.827Z,,,1,A,2591.3280000002123,completion,,,1950385.1,1950383.3000000003,1947775.295,1947777.9,1947791.972,1950393.706,,black
Frame,canvas.Frame,2_88,2022-07-14T15:46:39.827Z,,,1,A,2593.228000000119,,,,1950385.4,1950385.2000000002,1947775.295,1947777.1,1947791.972,1950393.706,,black
Fixation,canvas.Screen,2_89_0_0,2022-07-14T15:46:42.005Z,,,1,A,2184.5470000000205,timeout,,,1952562.8000000003,1952561.577,1950377.029,1950386.5,1950393.706,1952578.253,,black
Stimulus,canvas.Screen,2_89_0_1,2022-07-14T15:46:42.104Z,,,1,A,100.1929999999702,timeout,,,1952662.7000000002,1952661.77,1952561.577,1952563,1952578.253,1952678.446,,black
Reaction,canvas.Screen,2_89_0_2,2022-07-14T15:46:42.276Z,,,1,A,153.85400000028312,response,stim_detected,mousedown,1952833.7000000002,1952832.3000000003,1952661.77,1952662.9,1952678.446,1952845.314,,black
Trial,flow.Sequence,2_89_0,2022-07-14T15:46:42.276Z,,,1,A,2438.594000000274,completion,,,1952834.1,1952832.3000000003,1950377.029,1950386.4,1950393.706,1952845.314,,black
Frame,canvas.Frame,2_89,2022-07-14T15:46:42.276Z,,,1,A,2440.4940000001807,,,,1952834.4,1952834.2000000002,1950377.029,1950385.6,1950393.706,1952845.314,,black
Fixation,canvas.Screen,2_90_0_0,2022-07-14T15:46:44.440Z,,,1,AV,2167.438000000082,timeout,,,1954997.8000000003,1954996.079,1952828.637,1952835.7000000002,1952845.314,1955012.752,,grey
Stimulus,canvas.Screen,2_90_0_1,2022-07-14T15:46:44.540Z,,,1,AV,100.73399999993853,timeout,,,1955098.1,1955096.809,1954996.079,1954998.1,1955012.752,1955113.486,,grey
Reaction,canvas.Screen,2_90_0_2,2022-07-14T15:46:44.699Z,,,1,AV,142.71400000015274,response,stim_detected,mousedown,1955257.6,1955256.2000000002,1955096.809,1955098.2000000002,1955113.486,1955597.084,,grey
Trial,flow.Sequence,2_90_0,2022-07-14T15:46:44.700Z,,,1,AV,2410.886000000173,completion,,,1955257.9,1955256.2000000002,1952828.637,1952835.5,1952845.314,1955597.084,,grey
Frame,canvas.Frame,2_90,2022-07-14T15:46:44.700Z,,,1,AV,2412.78600000008,,,,1955258.2000000002,1955258.1,1952828.637,1952834.5,1952845.314,1955597.084,,grey
Loop,flow.Loop,2,2022-07-14T15:46:44.700Z,,,,,216904.12100000004,completion,,,1955258.7000000002,1955258.1,1738303.939,1738330,1738353.979,1955597.084,,
end,html.Page,3,2022-07-14T15:46:49.953Z,,,,,4913.415999999968,form submission,,,1960511.2000000002,1960510.5,1955580.407,1955258.9,1955597.084,1960870.82,,
root,flow.Sequence,,2022-07-14T15:46:50.032Z,,,,,1954557.827,completion,,,1960589.8000000003,1960510.5,5919.315,5931.400000000023,5952.673,1960870.82,,