sender,sender_type,sender_id,timestamp,meta,,aud,condition,duration,ended_on,response,response_action,time_commit,time_end,time_render,time_run,time_show,time_switch,url,vis
Instructions,html.Page,0,2022-07-01T12:00:55.837Z,"{""labjs_version"":""20.2.4"",""labjs_build"":{""flavor"":""production"",""commit"":""f5b4a49f956347addd546a832a3327688c2c0fef""},""location"":""file:///C:/Users/Proband%207/Desktop/RTE/index.html"",""userAgent"":""Mozilla/5.0 (Windows NT 6.1; Win64; x64) AppleWebKit/537.36 (KHTML, like Gecko) Chrome/103.0.0.0 Safari/537.36"",""platform"":""Win32"",""language"":""de-DE"",""locale"":""de"",""timeZone"":""Europe/Berlin"",""timezoneOffset"":-120,""screen_width"":1366,""screen_height"":768,""scroll_width"":795,""scroll_height"":568,""window_innerWidth"":795,""window_innerHeight"":616,""devicePixelRatio"":1}",,,,98635.88999999991,form submission,,,102513,102511.3999999999,3858.827,3865.1999999999534,3875.51,102522.307,{},
Change Background,canvas.Screen,1,2022-07-01T12:00:58.832Z,,,,,3000.3919999999925,timeout,,,105507.3999999999,105506.035,102488.953,102513.69999999995,102522.307,105522.699,,
Fixation,canvas.Screen,2_0_0_0,2022-07-01T12:01:01.152Z,,,1,A,2320.2690000000002,timeout,,,107828.09999999986,107826.287,105506.035,105509.09999999986,105522.699,107842.968,,black
Stimulus,canvas.Screen,2_0_0_1,2022-07-01T12:01:01.251Z,,,1,A,99.57900000001246,timeout,,,107926.30000000005,107925.87,107826.287,107828.5,107842.968,107942.547,,black
Reaction,canvas.Screen,2_0_0_2,2022-07-01T12:01:01.989Z,,,1,A,715.3529999999009,response,stim_detected,mousedown,108665,108657.8999999999,107925.87,107926.3999999999,107942.547,108676.247,,black
Trial,flow.Sequence,2_0_0,2022-07-01T12:01:01.990Z,,,1,A,3135.2009999999136,completion,,,108665.80000000005,108657.8999999999,105506.035,105509,105522.699,108676.247,,black
Frame,canvas.Frame,2_0,2022-07-01T12:01:01.991Z,,,1,A,3143.50099999996,,,,108666.59999999986,108666.19999999995,105506.035,105508,105522.699,108676.247,,black
Fixation,canvas.Screen,2_1_0_0,2022-07-01T12:01:04.370Z,,,0,V,2383.9419999999955,timeout,,,111045.3999999999,111043.517,108659.571,108667.8999999999,108676.247,111060.189,,grey
Stimulus,canvas.Screen,2_1_0_1,2022-07-01T12:01:04.471Z,,,0,V,101.15700000000652,timeout,,,111146.3999999999,111144.668,111043.517,111045.69999999995,111060.189,111161.346,,grey
Reaction,canvas.Screen,2_1_0_2,2022-07-01T12:01:04.898Z,,,0,V,410.55399999990186,response,stim_detected,mousedown,111573.69999999995,111571.8999999999,111144.668,111147,111161.346,111578.181,,grey
Trial,flow.Sequence,2_1_0,2022-07-01T12:01:04.899Z,,,0,V,2895.652999999904,completion,,,111574.80000000005,111571.8999999999,108659.571,108667.80000000005,108676.247,111578.181,,grey
Frame,canvas.Frame,2_1,2022-07-01T12:01:04.900Z,,,0,V,2898.752999999997,,,,111575.3999999999,111575,108659.571,108666.8999999999,108676.247,111578.181,,grey
Fixation,canvas.Screen,2_2_0_0,2022-07-01T12:01:06.906Z,,,1,AV,2018.7679999999964,timeout,,,113582.19999999995,113580.266,111561.504,111576.8999999999,111578.181,113596.949,,grey
Stimulus,canvas.Screen,2_2_0_1,2022-07-01T12:01:07.005Z,,,1,AV,99.20300000000861,timeout,,,113681.30000000005,113679.476,113580.266,113582.5,113596.949,113696.152,,grey
Reaction,canvas.Screen,2_2_0_2,2022-07-01T12:01:07.406Z,,,1,AV,383.6480000000447,response,stim_detected,mousedown,114081.3999999999,114079.80000000005,113679.476,113681.59999999986,113696.152,114096.496,,grey
Trial,flow.Sequence,2_2_0,2022-07-01T12:01:07.406Z,,,1,AV,2501.6190000000497,completion,,,114081.8999999999,114079.80000000005,111561.504,111576.80000000005,111578.181,114096.496,,grey
Frame,canvas.Frame,2_2,2022-07-01T12:01:07.407Z,,,1,AV,2503.9189999998634,,,,114082.3999999999,114082.09999999986,111561.504,111575.80000000005,111578.181,114096.496,,grey
Fixation,canvas.Screen,2_3_0_0,2022-07-01T12:01:09.490Z,,,1,AV,2084.032999999996,timeout,,,116165.5,116163.856,114079.819,114083.5,114096.496,116180.529,,grey
Stimulus,canvas.Screen,2_3_0_1,2022-07-01T12:01:09.590Z,,,1,AV,100.45300000000861,timeout,,,116265.5,116264.307,116163.856,116165.69999999995,116180.529,116280.982,,grey
Reaction,canvas.Screen,2_3_0_2,2022-07-01T12:01:09.942Z,,,1,AV,334.7179999999498,response,stim_detected,mousedown,116617.30000000005,116615.69999999995,116264.307,116265.80000000005,116280.982,116631.44,,grey
Trial,flow.Sequence,2_3_0,2022-07-01T12:01:09.942Z,,,1,AV,2519.2039999999542,completion,,,116617.69999999995,116615.69999999995,114079.819,114083.3999999999,114096.496,116631.44,,grey
Frame,canvas.Frame,2_3,2022-07-01T12:01:09.942Z,,,1,AV,2521.4039999999077,,,,116618.19999999995,116617.8999999999,114079.819,114082.5,114096.496,116631.44,,grey
Fixation,canvas.Screen,2_4_0_0,2022-07-01T12:01:12.427Z,,,1,AV,2485.751000000004,timeout,,,119102.3999999999,119100.509,116614.763,116619.69999999995,116631.44,119117.191,,grey
Stimulus,canvas.Screen,2_4_0_1,2022-07-01T12:01:12.526Z,,,1,AV,99.23199999998906,timeout,,,119201.5,119199.746,119100.509,119102.59999999986,119117.191,119216.423,,grey
Reaction,canvas.Screen,2_4_0_2,2022-07-01T12:01:12.814Z,,,1,AV,271.97699999991164,response,stim_detected,mousedown,119489.59999999986,119488.3999999999,119199.746,119201.69999999995,119216.423,119499.98,,grey
Trial,flow.Sequence,2_4_0,2022-07-01T12:01:12.814Z,,,1,AV,2856.9599999999045,completion,,,119489.80000000005,119488.3999999999,116614.763,116619.5,116631.44,119499.98,,grey
Frame,canvas.Frame,2_4,2022-07-01T12:01:12.814Z,,,1,AV,2858.4599999999045,,,,119490,119489.8999999999,116614.763,116618.3999999999,116631.44,119499.98,,grey
Fixation,canvas.Screen,2_5_0_0,2022-07-01T12:01:14.459Z,,,0,V,1651.0339999999997,timeout,,,121135.19999999995,121134.337,119483.303,119490.69999999995,119499.98,121151.014,,grey
Stimulus,canvas.Screen,2_5_0_1,2022-07-01T12:01:14.560Z,,,0,V,99.75300000001153,timeout,,,121235.30000000005,121234.093,121134.337,121135.3999999999,121151.014,121250.767,,grey
Reaction,canvas.Screen,2_5_0_2,2022-07-01T12:01:14.969Z,,,0,V,392.8329999998532,response,stim_detected,mousedown,121645,121643.59999999986,121234.093,121235.69999999995,121250.767,121651.378,,grey
Trial,flow.Sequence,2_5_0,2022-07-01T12:01:14.970Z,,,0,V,2143.6199999998644,completion,,,121645.5,121643.59999999986,119483.303,119490.59999999986,119499.98,121651.378,,grey
Frame,canvas.Frame,2_5,2022-07-01T12:01:14.970Z,,,0,V,2145.8200000000506,,,,121646.09999999986,121645.80000000005,119483.303,119490,119499.98,121651.378,,grey
Fixation,canvas.Screen,2_6_0_0,2022-07-01T12:01:17.395Z,,,1,A,2434.1500000000087,timeout,,,124070.3999999999,124068.855,121634.701,121647.19999999995,121651.378,124085.528,,black
Stimulus,canvas.Screen,2_6_0_1,2022-07-01T12:01:17.496Z,,,1,A,100.7549999999901,timeout,,,124171.30000000005,124169.606,124068.855,124071.09999999986,124085.528,124186.283,,black
Reaction,canvas.Screen,2_6_0_2,2022-07-01T12:01:18.052Z,,,1,A,540.1169999999111,response,stim_detected,mousedown,124728.19999999995,124726.3999999999,124169.606,124171.69999999995,124186.283,124736.648,,black
Trial,flow.Sequence,2_6_0,2022-07-01T12:01:18.053Z,,,1,A,3075.02199999991,completion,,,124728.59999999986,124726.3999999999,121634.701,121647.19999999995,121651.378,124736.648,,black
Frame,canvas.Frame,2_6,2022-07-01T12:01:18.053Z,,,1,A,3077.4220000000496,,,,124729,124728.80000000005,121634.701,121646.19999999995,121651.378,124736.648,,black
Fixation,canvas.Screen,2_7_0_0,2022-07-01T12:01:20.315Z,,,1,A,2268.743000000002,timeout,,,126990.5,126988.71,124719.971,124730.3999999999,124736.648,127005.391,,black
Stimulus,canvas.Screen,2_7_0_1,2022-07-01T12:01:20.414Z,,,1,A,99.51399999999558,timeout,,,127090.19999999995,127088.228,126988.71,126990.80000000005,127005.391,127104.905,,black
Reaction,canvas.Screen,2_7_0_2,2022-07-01T12:01:20.754Z,,,1,A,323.39500000004773,response,stim_detected,mousedown,127429.80000000005,127428.30000000005,127088.228,127090.3999999999,127104.905,127438.425,,black
Trial,flow.Sequence,2_7_0,2022-07-01T12:01:20.755Z,,,1,A,2691.6520000000455,completion,,,127430.30000000005,127428.30000000005,124719.971,124730.19999999995,124736.648,127438.425,,black
Frame,canvas.Frame,2_7,2022-07-01T12:01:20.755Z,,,1,A,2693.751999999906,,,,127430.69999999995,127430.3999999999,124719.971,124729.19999999995,124736.648,127438.425,,black
Fixation,canvas.Screen,2_8_0_0,2022-07-01T12:01:22.449Z,,,0,V,1701.077999999994,timeout,,,129124.3999999999,129122.826,127421.748,127431.8999999999,127438.425,129139.503,,grey
Stimulus,canvas.Screen,2_8_0_1,2022-07-01T12:01:22.549Z,,,0,V,99.95200000000477,timeout,,,129224.3999999999,129222.779,129122.826,129124.69999999995,129139.503,129239.455,,grey
Reaction,canvas.Screen,2_8_0_2,2022-07-01T12:01:23.065Z,,,0,V,499.7449999999517,response,stim_detected,mousedown,129740.80000000005,129739.19999999995,129222.779,129224.69999999995,129239.455,129756.573,,grey
Trial,flow.Sequence,2_8_0,2022-07-01T12:01:23.066Z,,,0,V,2300.7749999999505,completion,,,129741.30000000005,129739.19999999995,127421.748,127431.80000000005,127438.425,129756.573,,grey
Frame,canvas.Frame,2_8,2022-07-01T12:01:23.066Z,,,0,V,2303.074999999997,,,,129741.69999999995,129741.5,127421.748,127430.8999999999,127438.425,129756.573,,grey
Fixation,canvas.Screen,2_9_0_0,2022-07-01T12:01:24.784Z,,,0,V,1717.883999999991,timeout,,,131459.59999999986,131457.779,129739.896,129743,129756.573,131474.457,,grey
Stimulus,canvas.Screen,2_9_0_1,2022-07-01T12:01:24.883Z,,,0,V,99.93100000001141,timeout,,,131559.30000000005,131557.66,131457.779,131459.80000000005,131474.457,131574.388,,grey
Reaction,canvas.Screen,2_9_0_2,2022-07-01T12:01:25.227Z,,,0,V,326.81199999994715,response,stim_detected,mousedown,131902.80000000005,131901.19999999995,131557.66,131559.59999999986,131574.388,131907.928,,grey
Trial,flow.Sequence,2_9_0,2022-07-01T12:01:25.227Z,,,0,V,2144.6269999999495,completion,,,131903.19999999995,131901.19999999995,129739.896,129742.8999999999,129756.573,131907.928,,grey
Frame,canvas.Frame,2_9,2022-07-01T12:01:25.228Z,,,0,V,2146.826999999903,,,,131903.69999999995,131903.3999999999,129739.896,129742,129756.573,131907.928,,grey
Fixation,canvas.Screen,2_10_0_0,2022-07-01T12:01:27.486Z,,,0,V,2269.139999999985,timeout,,,134161.5,134160.384,131891.251,131904.80000000005,131907.928,134177.068,,grey
Stimulus,canvas.Screen,2_10_0_1,2022-07-01T12:01:27.585Z,,,0,V,98.77499999999418,timeout,,,134260.5,134259.168,134160.384,134161.69999999995,134177.068,134275.843,,grey
Reaction,canvas.Screen,2_10_0_2,2022-07-01T12:01:27.975Z,,,0,V,373.1570000000065,response,stim_detected,mousedown,134650.69999999995,134649,134259.168,134260.80000000005,134275.843,134676.407,,grey
Trial,flow.Sequence,2_10_0,2022-07-01T12:01:27.975Z,,,0,V,2741.0719999999856,completion,,,134651.19999999995,134649,131891.251,131904.69999999995,131907.928,134676.407,,grey
Frame,canvas.Frame,2_10,2022-07-01T12:01:27.976Z,,,0,V,2743.372000000032,,,,134651.5,134651.30000000005,131891.251,131903.80000000005,131907.928,134676.407,,grey
Fixation,canvas.Screen,2_11_0_0,2022-07-01T12:01:29.953Z,,,1,A,1967.61599999998,timeout,,,136628.69999999995,136627.348,134643.053,134652.5,134676.407,136644.023,,black
Stimulus,canvas.Screen,2_11_0_1,2022-07-01T12:01:30.053Z,,,1,A,100.39500000001863,timeout,,,136728.80000000005,136727.741,136627.348,136629.09999999986,136644.023,136744.418,,black
Reaction,canvas.Screen,2_11_0_2,2022-07-01T12:01:30.368Z,,,1,A,297.5819999999949,response,stim_detected,mousedown,137043.5,137042,136727.741,136729,136744.418,137061.242,,black
Trial,flow.Sequence,2_11_0,2022-07-01T12:01:30.368Z,,,1,A,2365.5929999999935,completion,,,137043.8999999999,137042,134643.053,134652.3999999999,134676.407,137061.242,,black
Frame,canvas.Frame,2_11,2022-07-01T12:01:30.368Z,,,1,A,2367.5929999999935,,,,137044.30000000005,137044,134643.053,134651.59999999986,134676.407,137061.242,,black
Fixation,canvas.Screen,2_12_0_0,2022-07-01T12:01:32.256Z,,,1,AV,1885.475999999995,timeout,,,138932.09999999986,138930.033,137044.565,137045.3999999999,137061.242,138946.718,,grey
Stimulus,canvas.Screen,2_12_0_1,2022-07-01T12:01:32.355Z,,,1,AV,99.14400000000023,timeout,,,139030.8999999999,139029.185,138930.033,138932.30000000005,138946.718,139045.862,,grey
Reaction,canvas.Screen,2_12_0_2,2022-07-01T12:01:32.657Z,,,1,AV,285.1380000000063,response,stim_detected,mousedown,139332.3999999999,139331,139029.185,139031.09999999986,139045.862,139346.067,,grey
Trial,flow.Sequence,2_12_0,2022-07-01T12:01:32.657Z,,,1,AV,2269.7580000000016,completion,,,139332.8999999999,139331,137044.565,137045.30000000005,137061.242,139346.067,,grey
Frame,canvas.Frame,2_12,2022-07-01T12:01:32.657Z,,,1,AV,2271.7580000000016,,,,139333.09999999986,139333,137044.565,137044.3999999999,137061.242,139346.067,,grey
Fixation,canvas.Screen,2_13_0_0,2022-07-01T12:01:35.107Z,,,1,A,2452.3559999999998,timeout,,,141782.69999999995,141781.741,139329.39,139334.19999999995,139346.067,141798.423,,black
Stimulus,canvas.Screen,2_13_0_1,2022-07-01T12:01:35.207Z,,,1,A,99.2719999999972,timeout,,,141882.69999999995,141881.018,141781.741,141783,141798.423,141897.695,,black
Reaction,canvas.Screen,2_13_0_2,2022-07-01T12:01:35.713Z,,,1,A,489.2049999998999,response,stim_detected,mousedown,142388.5,142386.8999999999,141881.018,141883,141897.695,142398.02,,black
Trial,flow.Sequence,2_13_0,2022-07-01T12:01:35.713Z,,,1,A,3040.832999999897,completion,,,142388.80000000005,142386.8999999999,139329.39,139334.09999999986,139346.067,142398.02,,black
Frame,canvas.Frame,2_13,2022-07-01T12:01:35.713Z,,,1,A,3042.93299999999,,,,142389.19999999995,142389,139329.39,139333.30000000005,139346.067,142398.02,,black
Fixation,canvas.Screen,2_14_0_0,2022-07-01T12:01:38.042Z,,,0,V,2335.5840000000026,timeout,,,144717.8999999999,144716.922,142381.343,142390.30000000005,142398.02,144733.604,,grey
Stimulus,canvas.Screen,2_14_0_1,2022-07-01T12:01:38.143Z,,,0,V,99.08500000002095,timeout,,,144818.3999999999,144816.014,144716.922,144718.19999999995,144733.604,144832.689,,grey
Reaction,canvas.Screen,2_14_0_2,2022-07-01T12:01:38.374Z,,,0,V,215.11100000003353,response,stim_detected,mousedown,145049.3999999999,145047.80000000005,144816.014,144818.69999999995,144832.689,145066.4,,grey
Trial,flow.Sequence,2_14_0,2022-07-01T12:01:38.374Z,,,0,V,2649.780000000057,completion,,,145049.80000000005,145047.80000000005,142381.343,142390.19999999995,142398.02,145066.4,,grey
Frame,canvas.Frame,2_14,2022-07-01T12:01:38.374Z,,,0,V,2651.8799999999173,,,,145050.09999999986,145049.8999999999,142381.343,142389.30000000005,142398.02,145066.4,,grey
Fixation,canvas.Screen,2_15_0_0,2022-07-01T12:01:39.978Z,,,1,A,1601.9100000000035,timeout,,,146652.80000000005,146651.625,145049.723,145051.3999999999,145066.4,146668.31,,black
Stimulus,canvas.Screen,2_15_0_1,2022-07-01T12:01:40.078Z,,,1,A,99.20000000001164,timeout,,,146751.8999999999,146750.833,146651.625,146653,146668.31,146767.51,,black
Reaction,canvas.Screen,2_15_0_2,2022-07-01T12:01:40.589Z,,,1,A,494.1899999999441,response,stim_detected,mousedown,147263.19999999995,147261.69999999995,146750.833,146752.19999999995,146767.51,147284.524,,black
Trial,flow.Sequence,2_15_0,2022-07-01T12:01:40.589Z,,,1,A,2195.2999999999593,completion,,,147263.69999999995,147261.69999999995,145049.723,145051.19999999995,145066.4,147284.524,,black
Frame,canvas.Frame,2_15,2022-07-01T12:01:40.590Z,,,1,A,2197.2999999999593,,,,147264,147263.69999999995,145049.723,145050.30000000005,145066.4,147284.524,,black
Fixation,canvas.Screen,2_16_0_0,2022-07-01T12:01:42.579Z,,,1,AV,1984.136999999988,timeout,,,149253,149251.987,147251.17,147265,147284.524,149268.661,,grey
Stimulus,canvas.Screen,2_16_0_1,2022-07-01T12:01:42.680Z,,,1,AV,100.50599999999395,timeout,,,149354.19999999995,149352.49,149251.987,149253.3999999999,149268.661,149369.167,,grey
Reaction,canvas.Screen,2_16_0_2,2022-07-01T12:01:43.032Z,,,1,AV,335.4329999998736,response,stim_detected,mousedown,149706,149704.59999999986,149352.49,149354.59999999986,149369.167,149719.385,,grey
Trial,flow.Sequence,2_16_0,2022-07-01T12:01:43.032Z,,,1,AV,2420.0759999998554,completion,,,149706.5,149704.59999999986,147251.17,147264.8999999999,147284.524,149719.385,,grey
Frame,canvas.Frame,2_16,2022-07-01T12:01:43.033Z,,,1,AV,2422.1759999999485,,,,149707,149706.69999999995,147251.17,147264.19999999995,147284.524,149719.385,,grey
Fixation,canvas.Screen,2_17_0_0,2022-07-01T12:01:45.384Z,,,1,AV,2352.8059999999823,timeout,,,152058,152055.505,149702.708,149708.09999999986,149719.385,152072.191,,grey
Stimulus,canvas.Screen,2_17_0_1,2022-07-01T12:01:45.482Z,,,1,AV,98.82200000001467,timeout,,,152156.09999999986,152154.229,152055.505,152058.30000000005,152072.191,152171.013,,grey
Reaction,canvas.Screen,2_17_0_2,2022-07-01T12:01:45.819Z,,,1,AV,320.4869999999937,response,stim_detected,mousedown,152492.8999999999,152491.5,152154.229,152156.3999999999,152171.013,152504.553,,grey
Trial,flow.Sequence,2_17_0,2022-07-01T12:01:45.819Z,,,1,AV,2772.1149999999907,completion,,,152493.3999999999,152491.5,149702.708,149707.8999999999,149719.385,152504.553,,grey
Frame,canvas.Frame,2_17,2022-07-01T12:01:45.820Z,,,1,AV,2774.214999999851,,,,152493.80000000005,152493.59999999986,149702.708,149707.09999999986,149719.385,152504.553,,grey
Fixation,canvas.Screen,2_18_0_0,2022-07-01T12:01:47.866Z,,,1,A,2050.5559999999823,timeout,,,154540.09999999986,154538.437,152487.876,152495,152504.553,154555.109,,black
Stimulus,canvas.Screen,2_18_0_1,2022-07-01T12:01:47.967Z,,,1,A,100.83900000000722,timeout,,,154641.09999999986,154639.271,154538.437,154540.19999999995,154555.109,154655.948,,black
Reaction,canvas.Screen,2_18_0_2,2022-07-01T12:01:48.251Z,,,1,A,268.3520000000426,response,stim_detected,mousedown,154925.80000000005,154924.30000000005,154639.271,154641.3999999999,154655.948,154939.437,,black
Trial,flow.Sequence,2_18_0,2022-07-01T12:01:48.252Z,,,1,A,2419.747000000032,completion,,,154926.19999999995,154924.30000000005,152487.876,152494.80000000005,152504.553,154939.437,,black
Frame,canvas.Frame,2_18,2022-07-01T12:01:48.252Z,,,1,A,2421.8469999998924,,,,154926.69999999995,154926.3999999999,152487.876,152494,152504.553,154939.437,,black
Fixation,canvas.Screen,2_19_0_0,2022-07-01T12:01:50.602Z,,,1,A,2352.0959999999905,timeout,,,157276.09999999986,157274.852,154922.76,154927.80000000005,154939.437,157291.533,,black
Stimulus,canvas.Screen,2_19_0_1,2022-07-01T12:01:50.702Z,,,1,A,99.4770000000135,timeout,,,157376.19999999995,157374.252,157274.852,157276.3999999999,157291.533,157391.01,,black
Reaction,canvas.Screen,2_19_0_2,2022-07-01T12:01:51.195Z,,,1,A,476.79000000003725,response,stim_detected,mousedown,157869.3999999999,157867.80000000005,157374.252,157376.30000000005,157391.01,157874.643,,black
Trial,flow.Sequence,2_19_0,2022-07-01T12:01:51.195Z,,,1,A,2928.363000000041,completion,,,157869.69999999995,157867.80000000005,154922.76,154927.69999999995,154939.437,157874.643,,black
Frame,canvas.Frame,2_19,2022-07-01T12:01:51.196Z,,,1,A,2930.363000000041,,,,157870.09999999986,157869.80000000005,154922.76,154926.80000000005,154939.437,157874.643,,black
Fixation,canvas.Screen,2_20_0_0,2022-07-01T12:01:52.820Z,,,1,A,1634.61599999998,timeout,,,159494.09999999986,159492.58,157857.966,157871.3999999999,157874.643,159509.259,,black
Stimulus,canvas.Screen,2_20_0_1,2022-07-01T12:01:52.920Z,,,1,A,99.92900000000373,timeout,,,159594,159592.511,159492.58,159494.30000000005,159509.259,159609.188,,black
Reaction,canvas.Screen,2_20_0_2,2022-07-01T12:01:53.207Z,,,1,A,271.0119999999588,response,stim_detected,mousedown,159881.69999999995,159880.19999999995,159592.511,159594.30000000005,159609.188,159892.625,,black
Trial,flow.Sequence,2_20_0,2022-07-01T12:01:53.208Z,,,1,A,2005.5569999999425,completion,,,159882.09999999986,159880.19999999995,157857.966,157871.30000000005,157874.643,159892.625,,black
Frame,canvas.Frame,2_20,2022-07-01T12:01:53.208Z,,,1,A,2007.5569999999425,,,,159882.3999999999,159882.19999999995,157857.966,157870.30000000005,157874.643,159892.625,,black
Fixation,canvas.Screen,2_21_0_0,2022-07-01T12:01:54.771Z,,,1,AV,1568.2159999999858,timeout,,,161445.19999999995,161444.159,159875.948,159883.5,159892.625,161460.841,,grey
Stimulus,canvas.Screen,2_21_0_1,2022-07-01T12:01:54.870Z,,,1,AV,99.47500000000582,timeout,,,161544.69999999995,161543.64,161444.159,161445.3999999999,161460.841,161560.316,,grey
Reaction,canvas.Screen,2_21_0_2,2022-07-01T12:01:55.133Z,,,1,AV,245.68400000000838,response,stim_detected,mousedown,161807.5,161806,161543.64,161544.8999999999,161560.316,161810.481,,grey
Trial,flow.Sequence,2_21_0,2022-07-01T12:01:55.133Z,,,1,AV,1913.375,completion,,,161807.69999999995,161806,159875.948,159883.3999999999,159892.625,161810.481,,grey
Frame,canvas.Frame,2_21,2022-07-01T12:01:55.134Z,,,1,AV,1915.1750000000466,,,,161807.8999999999,161807.80000000005,159875.948,159882.59999999986,159892.625,161810.481,,grey
Fixation,canvas.Screen,2_22_0_0,2022-07-01T12:01:57.141Z,,,0,V,2020.4290000000037,timeout,,,163815.09999999986,163814.213,161793.805,161808.69999999995,161810.481,163830.91,,grey
Stimulus,canvas.Screen,2_22_0_1,2022-07-01T12:01:57.239Z,,,0,V,97.45900000000256,timeout,,,163913.19999999995,163911.694,163814.213,163815.3999999999,163830.91,163928.369,,grey
Reaction,canvas.Screen,2_22_0_2,2022-07-01T12:01:57.525Z,,,0,V,269.63099999999395,response,stim_detected,mousedown,164199.5,164198,163911.694,163913.5,163928.369,164212.1,,grey
Trial,flow.Sequence,2_22_0,2022-07-01T12:01:57.526Z,,,0,V,2387.5190000000002,completion,,,164199.80000000005,164198,161793.805,161808.59999999986,161810.481,164212.1,,grey
Frame,canvas.Frame,2_22,2022-07-01T12:01:57.526Z,,,0,V,2389.418999999907,,,,164200.09999999986,164199.8999999999,161793.805,161808,161810.481,164212.1,,grey
Fixation,canvas.Screen,2_23_0_0,2022-07-01T12:01:59.924Z,,,1,A,2401.32699999999,timeout,,,166598.19999999995,166596.751,164195.423,164201.09999999986,164212.1,166613.427,,black
Stimulus,canvas.Screen,2_23_0_1,2022-07-01T12:02:00.024Z,,,1,A,100.23800000001211,timeout,,,166698.30000000005,166696.988,166596.751,166598.3999999999,166613.427,166713.665,,black
Reaction,canvas.Screen,2_23_0_2,2022-07-01T12:02:00.322Z,,,1,A,281.33499999999185,response,stim_detected,mousedown,166996.5,166995,166696.988,166698.69999999995,166713.665,167013.856,,black
Trial,flow.Sequence,2_23_0,2022-07-01T12:02:00.323Z,,,1,A,2782.899999999994,completion,,,166997,166995,164195.423,164201.09999999986,164212.1,167013.856,,black
Frame,canvas.Frame,2_23,2022-07-01T12:02:00.323Z,,,1,A,2784.9999999998545,,,,166997.30000000005,166997.09999999986,164195.423,164200.30000000005,164212.1,167013.856,,black
Fixation,canvas.Screen,2_24_0_0,2022-07-01T12:02:02.492Z,,,1,A,2167.7820000000065,timeout,,,169166.3999999999,169164.963,166997.179,166998.80000000005,167013.856,169181.638,,black
Stimulus,canvas.Screen,2_24_0_1,2022-07-01T12:02:02.592Z,,,1,A,100.27700000000186,timeout,,,169266.30000000005,169265.239,169164.963,169166.59999999986,169181.638,169281.915,,black
Reaction,canvas.Screen,2_24_0_2,2022-07-01T12:02:03.088Z,,,1,A,478.9849999998987,response,stim_detected,mousedown,169762.30000000005,169760.8999999999,169265.239,169266.5,169281.915,169765.655,,black
Trial,flow.Sequence,2_24_0,2022-07-01T12:02:03.088Z,,,1,A,2747.043999999907,completion,,,169762.69999999995,169760.8999999999,166997.179,166998.69999999995,167013.856,169765.655,,black
Frame,canvas.Frame,2_24,2022-07-01T12:02:03.089Z,,,1,A,2748.944000000047,,,,169763,169762.80000000005,166997.179,166997.80000000005,167013.856,169765.655,,black
Fixation,canvas.Screen,2_25_0_0,2022-07-01T12:02:05.226Z,,,1,A,2150.366000000009,timeout,,,171900.69999999995,171899.35,169748.978,169764,169765.655,171916.021,,black
Stimulus,canvas.Screen,2_25_0_1,2022-07-01T12:02:05.327Z,,,1,A,101.1019999999844,timeout,,,172001.5,172000.445,171899.35,171900.8999999999,171916.021,172017.123,,black
Reaction,canvas.Screen,2_25_0_2,2022-07-01T12:02:05.773Z,,,1,A,428.67700000005425,response,stim_detected,mousedown,172447.5,172445.80000000005,172000.445,172001.69999999995,172017.123,172467.393,,black
Trial,flow.Sequence,2_25_0,2022-07-01T12:02:05.774Z,,,1,A,2680.1450000000477,completion,,,172447.8999999999,172445.80000000005,169748.978,169763.8999999999,169765.655,172467.393,,black
Frame,canvas.Frame,2_25,2022-07-01T12:02:05.774Z,,,1,A,2682.345000000001,,,,172448.19999999995,172448,169748.978,169763.19999999995,169765.655,172467.393,,black
Fixation,canvas.Screen,2_26_0_0,2022-07-01T12:02:07.695Z,,,1,AV,1917.4339999999793,timeout,,,174369.5,174368.153,172434.039,172471.80000000005,172467.393,174384.827,,grey
Stimulus,canvas.Screen,2_26_0_1,2022-07-01T12:02:07.796Z,,,1,AV,100.55100000000675,timeout,,,174470.5,174468.701,174368.153,174369.69999999995,174384.827,174485.378,,grey
Reaction,canvas.Screen,2_26_0_2,2022-07-01T12:02:08.178Z,,,1,AV,365.4220000000496,response,stim_detected,mousedown,174852.30000000005,174850.80000000005,174468.701,174470.80000000005,174485.378,174868.943,,grey
Trial,flow.Sequence,2_26_0,2022-07-01T12:02:08.178Z,,,1,AV,2383.4070000000356,completion,,,174852.59999999986,174850.80000000005,172434.039,172471.69999999995,172467.393,174868.943,,grey
Frame,canvas.Frame,2_26,2022-07-01T12:02:08.179Z,,,1,AV,2385.4070000000356,,,,174853,174852.80000000005,172434.039,172448.3999999999,172467.393,174868.943,,grey
Fixation,canvas.Screen,2_27_0_0,2022-07-01T12:02:10.147Z,,,1,A,1968.0530000000144,timeout,,,176821.3999999999,176820.318,174852.266,174854.19999999995,174868.943,176836.996,,black
Stimulus,canvas.Screen,2_27_0_1,2022-07-01T12:02:10.247Z,,,1,A,99.98099999999977,timeout,,,176921.5,176920.3,176820.318,176821.69999999995,176836.996,176936.977,,black
Reaction,canvas.Screen,2_27_0_2,2022-07-01T12:02:10.838Z,,,1,A,573.7229999999399,response,stim_detected,mousedown,177512.09999999986,177510.69999999995,176920.3,176921.80000000005,176936.977,177520.643,,black
Trial,flow.Sequence,2_27_0,2022-07-01T12:02:10.838Z,,,1,A,2641.756999999954,completion,,,177512.5,177510.69999999995,174852.266,174854.09999999986,174868.943,177520.643,,black
Frame,canvas.Frame,2_27,2022-07-01T12:02:10.839Z,,,1,A,2643.756999999954,,,,177512.8999999999,177512.69999999995,174852.266,174853.19999999995,174868.943,177520.643,,black
Fixation,canvas.Screen,2_28_0_0,2022-07-01T12:02:13.234Z,,,1,A,2402.145999999979,timeout,,,179908.19999999995,179906.108,177503.966,177514.19999999995,177520.643,179922.789,,black
Stimulus,canvas.Screen,2_28_0_1,2022-07-01T12:02:13.332Z,,,1,A,99.29099999999744,timeout,,,180006.5,180005.404,179906.108,179908.3999999999,179922.789,180022.08,,black
Reaction,canvas.Screen,2_28_0_2,2022-07-01T12:02:13.639Z,,,1,A,289.4200000000128,response,stim_detected,mousedown,180313,180311.5,180005.404,180006.8999999999,180022.08,180322.459,,black
Trial,flow.Sequence,2_28_0,2022-07-01T12:02:13.639Z,,,1,A,2790.856999999989,completion,,,180313.3999999999,180311.5,177503.966,177514.09999999986,177520.643,180322.459,,black
Frame,canvas.Frame,2_28,2022-07-01T12:02:13.639Z,,,1,A,2792.856999999989,,,,180313.69999999995,180313.5,177503.966,177513,177520.643,180322.459,,black
Fixation,canvas.Screen,2_29_0_0,2022-07-01T12:02:15.267Z,,,1,AV,1634.5899999999965,timeout,,,181941.5,181940.37,180305.782,180315,180322.459,181957.049,,grey
Stimulus,canvas.Screen,2_29_0_1,2022-07-01T12:02:15.367Z,,,1,AV,99.89400000000023,timeout,,,182041.5,182040.266,181940.37,181941.80000000005,181957.049,182056.943,,grey
Reaction,canvas.Screen,2_29_0_2,2022-07-01T12:02:15.923Z,,,1,AV,538.5570000000007,response,stim_detected,mousedown,182597.09999999986,182595.5,182040.266,182041.80000000005,182056.943,182607.253,,grey
Trial,flow.Sequence,2_29_0,2022-07-01T12:02:15.923Z,,,1,AV,2273.0409999999974,completion,,,182597.3999999999,182595.5,180305.782,180314.8999999999,180322.459,182607.253,,grey
Frame,canvas.Frame,2_29,2022-07-01T12:02:15.924Z,,,1,AV,2275.1409999998577,,,,182597.80000000005,182597.59999999986,180305.782,180314,180322.459,182607.253,,grey
Fixation,canvas.Screen,2_30_0_0,2022-07-01T12:02:17.602Z,,,0,V,1684.5310000000172,timeout,,,184276.69999999995,184275.106,182590.576,182598.80000000005,182607.253,184291.784,,grey
Stimulus,canvas.Screen,2_30_0_1,2022-07-01T12:02:17.702Z,,,0,V,99.93499999999767,timeout,,,184376.30000000005,184375.042,184275.106,184276.8999999999,184291.784,184391.719,,grey
Reaction,canvas.Screen,2_30_0_2,2022-07-01T12:02:18.227Z,,,0,V,507.680999999895,response,stim_detected,mousedown,184901,184899.3999999999,184375.042,184376.3999999999,184391.719,184908.736,,grey
Trial,flow.Sequence,2_30_0,2022-07-01T12:02:18.227Z,,,0,V,2292.14699999991,completion,,,184901.3999999999,184899.3999999999,182590.576,182598.69999999995,182607.253,184908.736,,grey
Frame,canvas.Frame,2_30,2022-07-01T12:02:18.227Z,,,0,V,2294.247000000003,,,,184901.59999999986,184901.5,182590.576,182598,182607.253,184908.736,,grey
Fixation,canvas.Screen,2_31_0_0,2022-07-01T12:02:20.704Z,,,0,V,2485.42300000001,timeout,,,187378.69999999995,187377.479,184892.059,184902.8999999999,184908.736,187394.159,,grey
Stimulus,canvas.Screen,2_31_0_1,2022-07-01T12:02:20.804Z,,,0,V,99.65499999999884,timeout,,,187478.59999999986,187477.137,187377.479,187378.8999999999,187394.159,187493.814,,grey
Reaction,canvas.Screen,2_31_0_2,2022-07-01T12:02:21.394Z,,,0,V,573.3859999999404,response,stim_detected,mousedown,188068.59999999986,188067.19999999995,187477.137,187478.80000000005,187493.814,188077.389,,grey
Trial,flow.Sequence,2_31_0,2022-07-01T12:02:21.395Z,,,0,V,3158.463999999949,completion,,,188069.09999999986,188067.19999999995,184892.059,184902.80000000005,184908.736,188077.389,,grey
Frame,canvas.Frame,2_31,2022-07-01T12:02:21.395Z,,,0,V,3160.564000000042,,,,188069.5,188069.30000000005,184892.059,184902,184908.736,188077.389,,grey
Fixation,canvas.Screen,2_32_0_0,2022-07-01T12:02:23.823Z,,,0,V,2435.709999999992,timeout,,,190497.80000000005,190496.417,188060.713,188070.59999999986,188077.389,190513.099,,grey
Stimulus,canvas.Screen,2_32_0_1,2022-07-01T12:02:23.923Z,,,0,V,99.28700000001118,timeout,,,190596.80000000005,190595.709,190496.417,190498,190513.099,190612.386,,grey
Reaction,canvas.Screen,2_32_0_2,2022-07-01T12:02:24.382Z,,,0,V,442.2139999998617,response,stim_detected,mousedown,191056.3999999999,191054.59999999986,190595.709,190597.19999999995,190612.386,191062.708,,grey
Trial,flow.Sequence,2_32_0,2022-07-01T12:02:24.383Z,,,0,V,2977.2109999998647,completion,,,191056.80000000005,191054.59999999986,188060.713,188070.5,188077.389,191062.708,,grey
Frame,canvas.Frame,2_32,2022-07-01T12:02:24.383Z,,,0,V,2979.6110000000044,,,,191057.30000000005,191057,188060.713,188069.69999999995,188077.389,191062.708,,grey
Fixation,canvas.Screen,2_33_0_0,2022-07-01T12:02:26.858Z,,,1,A,2484.3369999999995,timeout,,,193531.80000000005,193530.371,191046.031,191058.3999999999,191062.708,193547.045,,black
Stimulus,canvas.Screen,2_33_0_1,2022-07-01T12:02:26.958Z,,,1,A,100.66899999999441,timeout,,,193632,193631.037,193530.371,193532,193547.045,193647.714,,black
Reaction,canvas.Screen,2_33_0_2,2022-07-01T12:02:27.317Z,,,1,A,342.3859999998531,response,stim_detected,mousedown,193991.59999999986,193990.09999999986,193631.037,193632.19999999995,193647.714,193997.933,,black
Trial,flow.Sequence,2_33_0,2022-07-01T12:02:27.318Z,,,1,A,2927.391999999847,completion,,,193992,193990.09999999986,191046.031,191058.30000000005,191062.708,193997.933,,black
Frame,canvas.Frame,2_33,2022-07-01T12:02:27.318Z,,,1,A,2929.391999999847,,,,193992.19999999995,193992.09999999986,191046.031,191057.3999999999,191062.708,193997.933,,black
Fixation,canvas.Screen,2_34_0_0,2022-07-01T12:02:29.594Z,,,1,AV,2284.6050000000105,timeout,,,196268.19999999995,196265.862,193981.256,193993.30000000005,193997.933,196282.538,,grey
Stimulus,canvas.Screen,2_34_0_1,2022-07-01T12:02:29.694Z,,,1,AV,100.3409999999858,timeout,,,196368.09999999986,196366.202,196265.862,196268.59999999986,196282.538,196382.879,,grey
Reaction,canvas.Screen,2_34_0_2,2022-07-01T12:02:30.193Z,,,1,AV,483.12100000001374,response,stim_detected,mousedown,196867.59999999986,196866,196366.202,196368.30000000005,196382.879,196883.051,,grey
Trial,flow.Sequence,2_34_0,2022-07-01T12:02:30.194Z,,,1,AV,2868.06700000001,completion,,,196868,196866,193981.256,193993.09999999986,193997.933,196883.051,,grey
Frame,canvas.Frame,2_34,2022-07-01T12:02:30.194Z,,,1,AV,2870.56700000001,,,,196868.80000000005,196868.5,193981.256,193992.5,193997.933,196883.051,,grey
Fixation,canvas.Screen,2_35_0_0,2022-07-01T12:02:31.862Z,,,1,A,1668.5659999999916,timeout,,,198536,198534.932,196866.375,196869.80000000005,196883.051,198551.617,,black
Stimulus,canvas.Screen,2_35_0_1,2022-07-01T12:02:31.962Z,,,1,A,99.28500000000349,timeout,,,198635.8999999999,198634.225,198534.932,198536.3999999999,198551.617,198650.902,,black
Reaction,canvas.Screen,2_35_0_2,2022-07-01T12:02:32.373Z,,,1,A,394.997999999905,response,stim_detected,mousedown,199047.69999999995,199045.8999999999,198634.225,198636.19999999995,198650.902,199051.152,,black
Trial,flow.Sequence,2_35_0,2022-07-01T12:02:32.374Z,,,1,A,2162.8489999999,completion,,,199048,199045.8999999999,196866.375,196869.69999999995,196883.051,199051.152,,black
Frame,canvas.Frame,2_35,2022-07-01T12:02:32.374Z,,,1,A,2165.0489999998535,,,,199048.3999999999,199048.09999999986,196866.375,196868.8999999999,196883.051,199051.152,,black
Fixation,canvas.Screen,2_36_0_0,2022-07-01T12:02:34.030Z,,,0,V,1668.3830000000016,timeout,,,200704,200702.852,199034.475,199049.3999999999,199051.152,200719.535,,grey
Stimulus,canvas.Screen,2_36_0_1,2022-07-01T12:02:34.129Z,,,0,V,99.20699999999488,timeout,,,200803.09999999986,200802.067,200702.852,200704.19999999995,200719.535,200818.742,,grey
Reaction,canvas.Screen,2_36_0_2,2022-07-01T12:02:34.557Z,,,0,V,411.1579999999085,response,stim_detected,mousedown,201231.30000000005,201229.8999999999,200802.067,200803.19999999995,200818.742,201235.898,,grey
Trial,flow.Sequence,2_36_0,2022-07-01T12:02:34.557Z,,,0,V,2178.747999999905,completion,,,201231.69999999995,201229.8999999999,199034.475,199049.30000000005,199051.152,201235.898,,grey
Frame,canvas.Frame,2_36,2022-07-01T12:02:34.558Z,,,0,V,2180.6480000000447,,,,201232,201231.80000000005,199034.475,199048.59999999986,199051.152,201235.898,,grey
Fixation,canvas.Screen,2_37_0_0,2022-07-01T12:02:36.816Z,,,1,A,2269.1870000000054,timeout,,,203490.09999999986,203488.4,201219.221,201233,201235.898,203505.085,,black
Stimulus,canvas.Screen,2_37_0_1,2022-07-01T12:02:36.914Z,,,1,A,98.7950000000128,timeout,,,203588.09999999986,203587.205,203488.4,203490.19999999995,203505.085,203603.88,,black
Reaction,canvas.Screen,2_37_0_2,2022-07-01T12:02:37.297Z,,,1,A,365.9200000000419,response,stim_detected,mousedown,203971.09999999986,203969.80000000005,203587.205,203588.30000000005,203603.88,203987.652,,black
Trial,flow.Sequence,2_37_0,2022-07-01T12:02:37.297Z,,,1,A,2733.90200000006,completion,,,203971.5,203969.80000000005,201219.221,201232.8999999999,201235.898,203987.652,,black
Frame,canvas.Frame,2_37,2022-07-01T12:02:37.298Z,,,1,A,2735.701999999874,,,,203971.80000000005,203971.59999999986,201219.221,201232.19999999995,201235.898,203987.652,,black
Fixation,canvas.Screen,2_38_0_0,2022-07-01T12:02:39.518Z,,,0,V,2219.518000000011,timeout,,,206192.19999999995,206190.483,203970.975,203972.8999999999,203987.652,206207.17,,grey
Stimulus,canvas.Screen,2_38_0_1,2022-07-01T12:02:39.616Z,,,0,V,98.58599999998114,timeout,,,206290.19999999995,206289.08,206190.483,206192.5,206207.17,206305.756,,grey
Reaction,canvas.Screen,2_38_0_2,2022-07-01T12:02:40.006Z,,,0,V,371.74400000000605,response,stim_detected,mousedown,206678.09999999986,206677.5,206289.08,206290.5,206305.756,206689.433,,grey
Trial,flow.Sequence,2_38_0,2022-07-01T12:02:40.006Z,,,0,V,2689.847999999998,completion,,,206678.30000000005,206677.5,203970.975,203972.80000000005,203987.652,206689.433,,grey
Frame,canvas.Frame,2_38,2022-07-01T12:02:40.006Z,,,0,V,2690.747999999905,,,,206678.5,206678.3999999999,203970.975,203972,203987.652,206689.433,,grey
Fixation,canvas.Screen,2_39_0_0,2022-07-01T12:02:42.487Z,,,0,V,2484.8770000000077,timeout,,,209159.09999999986,209157.633,206672.756,206679,206689.433,209174.31,,grey
Stimulus,canvas.Screen,2_39_0_1,2022-07-01T12:02:42.587Z,,,0,V,99.77400000000489,timeout,,,209259.09999999986,209257.409,209157.633,209159.3999999999,209174.31,209274.084,,grey
Reaction,canvas.Screen,2_39_0_2,2022-07-01T12:02:42.966Z,,,0,V,362.6159999999509,response,stim_detected,mousedown,209638.19999999995,209636.69999999995,209257.409,209259.3999999999,209274.084,209641.328,,grey
Trial,flow.Sequence,2_39_0,2022-07-01T12:02:42.967Z,,,0,V,2947.2669999999634,completion,,,209638.69999999995,209636.69999999995,206672.756,206679,206689.433,209641.328,,grey
Frame,canvas.Frame,2_39,2022-07-01T12:02:42.967Z,,,0,V,2949.466999999917,,,,209639,209638.8999999999,206672.756,206678.59999999986,206689.433,209641.328,,grey
Fixation,canvas.Screen,2_40_0_0,2022-07-01T12:02:44.455Z,,,0,V,1501.1749999999884,timeout,,,211127.30000000005,211125.824,209624.651,209640.19999999995,209641.328,211142.503,,grey
Stimulus,canvas.Screen,2_40_0_1,2022-07-01T12:02:44.555Z,,,0,V,99.8410000000149,timeout,,,211227.19999999995,211225.667,211125.824,211127.59999999986,211142.503,211242.344,,grey
Reaction,canvas.Screen,2_40_0_2,2022-07-01T12:02:44.993Z,,,0,V,421.1559999999881,response,stim_detected,mousedown,211664.8999999999,211663.5,211225.667,211227.3999999999,211242.344,211675.912,,grey
Trial,flow.Sequence,2_40_0,2022-07-01T12:02:44.993Z,,,0,V,2022.1719999999914,completion,,,211665.30000000005,211663.5,209624.651,209640,209641.328,211675.912,,grey
Frame,canvas.Frame,2_40,2022-07-01T12:02:44.994Z,,,0,V,2024.1719999999914,,,,211665.69999999995,211665.5,209624.651,209639.19999999995,209641.328,211675.912,,grey
Fixation,canvas.Screen,2_41_0_0,2022-07-01T12:02:47.458Z,,,1,AV,2469.667999999976,timeout,,,214130.30000000005,214128.894,211659.236,211667.09999999986,211675.912,214145.58,,grey
Stimulus,canvas.Screen,2_41_0_1,2022-07-01T12:02:47.556Z,,,1,AV,98.68900000001304,timeout,,,214228.30000000005,214227.286,214128.894,214130.5,214145.58,214244.269,,grey
Reaction,canvas.Screen,2_41_0_2,2022-07-01T12:02:47.771Z,,,1,AV,197.13099999990663,response,stim_detected,mousedown,214442.8999999999,214441.3999999999,214227.286,214228.69999999995,214244.269,214444.393,,grey
Trial,flow.Sequence,2_41_0,2022-07-01T12:02:47.771Z,,,1,AV,2765.4879999998957,completion,,,214443.19999999995,214441.3999999999,211659.236,211667,211675.912,214444.393,,grey
Frame,canvas.Frame,2_41,2022-07-01T12:02:47.771Z,,,1,AV,2767.4879999998957,,,,214443.59999999986,214443.3999999999,211659.236,211665.8999999999,211675.912,214444.393,,grey
Fixation,canvas.Screen,2_42_0_0,2022-07-01T12:02:49.709Z,,,0,V,1952.1499999999942,timeout,,,216381.30000000005,216379.859,214427.716,214444.59999999986,214444.393,216396.543,,grey
Stimulus,canvas.Screen,2_42_0_1,2022-07-01T12:02:49.808Z,,,0,V,99.112999999983,timeout,,,216480.30000000005,216478.98,216379.859,216381.59999999986,216396.543,216495.656,,grey
Reaction,canvas.Screen,2_42_0_2,2022-07-01T12:02:50.243Z,,,0,V,417.74399999991874,response,stim_detected,mousedown,216914.8999999999,216913.3999999999,216478.98,216480.5,216495.656,216929.354,,grey
Trial,flow.Sequence,2_42_0,2022-07-01T12:02:50.243Z,,,0,V,2469.006999999896,completion,,,216915.19999999995,216913.3999999999,214427.716,214444.5,214444.393,216929.354,,grey
Frame,canvas.Frame,2_42,2022-07-01T12:02:50.244Z,,,0,V,2470.9070000000356,,,,216915.59999999986,216915.30000000005,214427.716,214443.80000000005,214444.393,216929.354,,grey
Fixation,canvas.Screen,2_43_0_0,2022-07-01T12:02:52.360Z,,,1,AV,2118.4410000000207,timeout,,,219032.3999999999,219031.115,216912.677,216916.69999999995,216929.354,219047.795,,grey
Stimulus,canvas.Screen,2_43_0_1,2022-07-01T12:02:52.460Z,,,1,AV,99.57199999998556,timeout,,,219132.3999999999,219130.691,219031.115,219032.59999999986,219047.795,219147.367,,grey
Reaction,canvas.Screen,2_43_0_2,2022-07-01T12:02:52.731Z,,,1,AV,253.83299999995506,response,stim_detected,mousedown,219402.69999999995,219401.19999999995,219130.691,219132.59999999986,219147.367,219414.275,,grey
Trial,flow.Sequence,2_43_0,2022-07-01T12:02:52.731Z,,,1,AV,2471.8459999999614,completion,,,219403.09999999986,219401.19999999995,216912.677,216916.59999999986,216929.354,219414.275,,grey
Frame,canvas.Frame,2_43,2022-07-01T12:02:52.731Z,,,1,AV,2473.8459999999614,,,,219403.3999999999,219403.19999999995,216912.677,216915.80000000005,216929.354,219414.275,,grey
Fixation,canvas.Screen,2_44_0_0,2022-07-01T12:02:54.444Z,,,1,AV,1717.3820000000123,timeout,,,221116.30000000005,221114.983,219397.598,219404.59999999986,219414.275,221131.657,,grey
Stimulus,canvas.Screen,2_44_0_1,2022-07-01T12:02:54.544Z,,,1,AV,100.55999999999767,timeout,,,221216.5,221215.538,221114.983,221116.59999999986,221131.657,221232.217,,grey
Reaction,canvas.Screen,2_44_0_2,2022-07-01T12:02:54.864Z,,,1,AV,302.7829999999958,response,stim_detected,mousedown,221535.8999999999,221535,221215.538,221216.80000000005,221232.217,221548.943,,grey
Trial,flow.Sequence,2_44_0,2022-07-01T12:02:54.864Z,,,1,AV,2120.725000000006,completion,,,221536.09999999986,221535,219397.598,219404.5,219414.275,221548.943,,grey
Frame,canvas.Frame,2_44,2022-07-01T12:02:54.864Z,,,1,AV,2121.9249999999593,,,,221536.30000000005,221536.19999999995,219397.598,219403.5,219414.275,221548.943,,grey
Fixation,canvas.Screen,2_45_0_0,2022-07-01T12:02:56.730Z,,,0,V,1868.4599999999919,timeout,,,223402.3999999999,223400.721,221532.267,221537,221548.943,223417.403,,grey
Stimulus,canvas.Screen,2_45_0_1,2022-07-01T12:02:56.829Z,,,0,V,99.5460000000021,timeout,,,223501.5,223500.272,223400.721,223402.69999999995,223417.403,223516.949,,grey
Reaction,canvas.Screen,2_45_0_2,2022-07-01T12:02:57.339Z,,,0,V,493.15099999986705,response,stim_detected,mousedown,224011.5,224010.09999999986,223500.272,223501.69999999995,223516.949,224033.927,,grey
Trial,flow.Sequence,2_45_0,2022-07-01T12:02:57.340Z,,,0,V,2461.156999999861,completion,,,224011.8999999999,224010.09999999986,221532.267,221537,221548.943,224033.927,,grey
Frame,canvas.Frame,2_45,2022-07-01T12:02:57.340Z,,,0,V,2463.0570000000007,,,,224012.19999999995,224012,221532.267,221536.3999999999,221548.943,224033.927,,grey
Fixation,canvas.Screen,2_46_0_0,2022-07-01T12:02:59.148Z,,,0,V,1801.1510000000126,timeout,,,225819.69999999995,225818.401,224000.573,224013.19999999995,224033.927,225835.078,,grey
Stimulus,canvas.Screen,2_46_0_1,2022-07-01T12:02:59.247Z,,,0,V,99.99299999998766,timeout,,,225919.5,225918.395,225818.401,225819.8999999999,225835.078,225935.071,,grey
Reaction,canvas.Screen,2_46_0_2,2022-07-01T12:02:59.502Z,,,0,V,237.92900000000373,response,stim_detected,mousedown,226174.3999999999,226173,225918.395,225919.69999999995,225935.071,226185.332,,grey
Trial,flow.Sequence,2_46_0,2022-07-01T12:02:59.503Z,,,0,V,2139.073000000004,completion,,,226174.80000000005,226173,224000.573,224013.09999999986,224033.927,226185.332,,grey
Frame,canvas.Frame,2_46,2022-07-01T12:02:59.503Z,,,0,V,2141.073000000004,,,,226175.09999999986,226175,224000.573,224012.30000000005,224033.927,226185.332,,grey
Fixation,canvas.Screen,2_47_0_0,2022-07-01T12:03:01.449Z,,,1,AV,1950.6689999999944,timeout,,,228120.59999999986,228119.328,226168.655,226176.30000000005,226185.332,228136.001,,grey
Stimulus,canvas.Screen,2_47_0_1,2022-07-01T12:03:01.549Z,,,1,AV,100.62400000001071,timeout,,,228221.59999999986,228219.948,228119.328,228120.8999999999,228136.001,228236.625,,grey
Reaction,canvas.Screen,2_47_0_2,2022-07-01T12:03:01.877Z,,,1,AV,311.27499999990687,response,stim_detected,mousedown,228549.30000000005,228547.8999999999,228219.948,228221.80000000005,228236.625,228553.469,,grey
Trial,flow.Sequence,2_47_0,2022-07-01T12:03:01.878Z,,,1,AV,2362.567999999912,completion,,,228549.69999999995,228547.8999999999,226168.655,226176.19999999995,226185.332,228553.469,,grey
Frame,canvas.Frame,2_47,2022-07-01T12:03:01.878Z,,,1,AV,2364.4680000000517,,,,228550,228549.80000000005,226168.655,226175.30000000005,226185.332,228553.469,,grey
Fixation,canvas.Screen,2_48_0_0,2022-07-01T12:03:03.702Z,,,1,AV,1835.3979999999865,timeout,,,230373.59999999986,230372.182,228536.792,228551,228553.469,230388.867,,grey
Stimulus,canvas.Screen,2_48_0_1,2022-07-01T12:03:03.800Z,,,1,AV,98.90299999999115,timeout,,,230472.59999999986,230471.096,230372.182,230373.80000000005,230388.867,230487.77,,grey
Reaction,canvas.Screen,2_48_0_2,2022-07-01T12:03:04.094Z,,,1,AV,277.03000000005704,response,stim_detected,mousedown,230766.3999999999,230764.80000000005,230471.096,230472.80000000005,230487.77,230771.595,,grey
Trial,flow.Sequence,2_48_0,2022-07-01T12:03:04.095Z,,,1,AV,2211.3310000000347,completion,,,230766.69999999995,230764.80000000005,228536.792,228550.8999999999,228553.469,230771.595,,grey
Frame,canvas.Frame,2_48,2022-07-01T12:03:04.095Z,,,1,AV,2213.3310000000347,,,,230767,230766.80000000005,228536.792,228550.19999999995,228553.469,230771.595,,grey
Fixation,canvas.Screen,2_49_0_0,2022-07-01T12:03:06.070Z,,,1,AV,1985.1389999999956,timeout,,,232741.69999999995,232740.053,230754.918,230768.09999999986,230771.595,232756.734,,grey
Stimulus,canvas.Screen,2_49_0_1,2022-07-01T12:03:06.168Z,,,1,AV,99.46199999999953,timeout,,,232840.59999999986,232839.52,232740.053,232741.8999999999,232756.734,232856.196,,grey
Reaction,canvas.Screen,2_49_0_2,2022-07-01T12:03:06.519Z,,,1,AV,333.50399999995716,response,stim_detected,mousedown,233191.19999999995,233189.69999999995,232839.52,232840.80000000005,232856.196,233206.506,,grey
Trial,flow.Sequence,2_49_0,2022-07-01T12:03:06.519Z,,,1,AV,2418.1049999999523,completion,,,233191.5,233189.69999999995,230754.918,230768,230771.595,233206.506,,grey
Frame,canvas.Frame,2_49,2022-07-01T12:03:06.520Z,,,1,AV,2420.1049999999523,,,,233191.8999999999,233191.69999999995,230754.918,230767.19999999995,230771.595,233206.506,,grey
Fixation,canvas.Screen,2_50_0_0,2022-07-01T12:03:08.070Z,,,1,A,1550.3940000000002,timeout,,,234741.69999999995,234740.228,233189.829,233192.80000000005,233206.506,234756.9,,black
Stimulus,canvas.Screen,2_50_0_1,2022-07-01T12:03:08.171Z,,,1,A,100.72200000000885,timeout,,,234842.69999999995,234840.945,234740.228,234741.8999999999,234756.9,234857.622,,black
Reaction,canvas.Screen,2_50_0_2,2022-07-01T12:03:08.570Z,,,1,A,383.0779999999504,response,stim_detected,mousedown,235242.19999999995,235240.69999999995,234840.945,234842.8999999999,234857.622,235257.817,,black
Trial,flow.Sequence,2_50_0,2022-07-01T12:03:08.570Z,,,1,A,2034.1939999999595,completion,,,235242.5,235240.69999999995,233189.829,233192.80000000005,233206.506,235257.817,,black
Frame,canvas.Frame,2_50,2022-07-01T12:03:08.571Z,,,1,A,2036.0939999998664,,,,235242.80000000005,235242.59999999986,233189.829,233192,233206.506,235257.817,,black
Fixation,canvas.Screen,2_51_0_0,2022-07-01T12:03:11.005Z,,,1,A,2434.3369999999995,timeout,,,237677.09999999986,237675.48,235241.14,235243.80000000005,235257.817,237692.154,,black
Stimulus,canvas.Screen,2_51_0_1,2022-07-01T12:03:11.106Z,,,1,A,100.68399999997928,timeout,,,237777.8999999999,237776.16,237675.48,237677.30000000005,237692.154,237792.838,,black
Reaction,canvas.Screen,2_51_0_2,2022-07-01T12:03:11.409Z,,,1,A,286.7619999998715,response,stim_detected,mousedown,238081.09999999986,238079.59999999986,237776.16,237778.09999999986,237792.838,238092.97,,black
Trial,flow.Sequence,2_51_0,2022-07-01T12:03:11.409Z,,,1,A,2821.7829999998503,completion,,,238081.3999999999,238079.59999999986,235241.14,235243.69999999995,235257.817,238092.97,,black
Frame,canvas.Frame,2_51,2022-07-01T12:03:11.410Z,,,1,A,2823.68299999999,,,,238081.69999999995,238081.5,235241.14,235243,235257.817,238092.97,,black
Fixation,canvas.Screen,2_52_0_0,2022-07-01T12:03:13.774Z,,,1,AV,2368.6389999999956,timeout,,,240446.30000000005,240444.929,238076.293,238082.59999999986,238092.97,240461.609,,grey
Stimulus,canvas.Screen,2_52_0_1,2022-07-01T12:03:13.874Z,,,1,AV,99.23399999999674,timeout,,,240546,240544.169,240444.929,240446.59999999986,240461.609,240560.843,,grey
Reaction,canvas.Screen,2_52_0_2,2022-07-01T12:03:14.127Z,,,1,AV,236.5569999999134,response,stim_detected,mousedown,240799,240797.3999999999,240544.169,240546.19999999995,240560.843,240811.358,,grey
Trial,flow.Sequence,2_52_0,2022-07-01T12:03:14.127Z,,,1,AV,2704.4299999999057,completion,,,240799.30000000005,240797.3999999999,238076.293,238082.59999999986,238092.97,240811.358,,grey
Frame,canvas.Frame,2_52,2022-07-01T12:03:14.127Z,,,1,AV,2706.4299999999057,,,,240799.59999999986,240799.3999999999,238076.293,238081.80000000005,238092.97,240811.358,,grey
Fixation,canvas.Screen,2_53_0_0,2022-07-01T12:03:15.860Z,,,1,A,1735.5849999999919,timeout,,,242531.8999999999,242530.255,240794.681,240800.59999999986,240811.358,242546.943,,black
Stimulus,canvas.Screen,2_53_0_1,2022-07-01T12:03:15.958Z,,,1,A,98.84799999999814,timeout,,,242629.8999999999,242629.115,242530.255,242532.09999999986,242546.943,242645.791,,black
Reaction,canvas.Screen,2_53_0_2,2022-07-01T12:03:16.174Z,,,1,A,198.70900000000256,response,stim_detected,mousedown,242845.8999999999,242844.5,242629.115,242630.19999999995,242645.791,242862.705,,black
Trial,flow.Sequence,2_53_0,2022-07-01T12:03:16.174Z,,,1,A,2033.1419999999925,completion,,,242846.3999999999,242844.5,240794.681,240800.5,240811.358,242862.705,,black
Frame,canvas.Frame,2_53,2022-07-01T12:03:16.175Z,,,1,A,2035.1419999999925,,,,242846.59999999986,242846.5,240794.681,240799.80000000005,240811.358,242862.705,,black
Fixation,canvas.Screen,2_54_0_0,2022-07-01T12:03:17.994Z,,,1,A,1818.3910000000033,timeout,,,244666,244664.414,242846.028,242847.69999999995,242862.705,244681.096,,black
Stimulus,canvas.Screen,2_54_0_1,2022-07-01T12:03:18.093Z,,,1,A,99.50700000001234,timeout,,,244765,244763.926,244664.414,244666.19999999995,244681.096,244780.603,,black
Reaction,canvas.Screen,2_54_0_2,2022-07-01T12:03:18.304Z,,,1,A,193.79699999990407,response,stim_detected,mousedown,244975.8999999999,244974.3999999999,244763.926,244765.19999999995,244780.603,244980.752,,black
Trial,flow.Sequence,2_54_0,2022-07-01T12:03:18.304Z,,,1,A,2111.6949999999197,completion,,,244976.19999999995,244974.3999999999,242846.028,242847.59999999986,242862.705,244980.752,,black
Frame,canvas.Frame,2_54,2022-07-01T12:03:18.304Z,,,1,A,2113.6949999999197,,,,244976.5,244976.3999999999,242846.028,242846.80000000005,242862.705,244980.752,,black
Fixation,canvas.Screen,2_55_0_0,2022-07-01T12:03:19.894Z,,,1,AV,1600.7759999999835,timeout,,,246566,246564.853,244964.075,244977.59999999986,244980.752,246581.528,,grey
Stimulus,canvas.Screen,2_55_0_1,2022-07-01T12:03:19.994Z,,,1,AV,100.28600000002189,timeout,,,246666,246665.137,246564.853,246566.19999999995,246581.528,246681.814,,grey
Reaction,canvas.Screen,2_55_0_2,2022-07-01T12:03:20.248Z,,,1,AV,236.48600000003353,response,stim_detected,mousedown,246919.69999999995,246918.30000000005,246665.137,246666.19999999995,246681.814,246931.998,,grey
Trial,flow.Sequence,2_55_0,2022-07-01T12:03:20.248Z,,,1,AV,1937.5480000000389,completion,,,246920.09999999986,246918.30000000005,244964.075,244977.5,244980.752,246931.998,,grey
Frame,canvas.Frame,2_55,2022-07-01T12:03:20.248Z,,,1,AV,1939.4479999999458,,,,246920.3999999999,246920.19999999995,244964.075,244976.69999999995,244980.752,246931.998,,grey
Fixation,canvas.Screen,2_56_0_0,2022-07-01T12:03:22.213Z,,,1,A,1968.4260000000068,timeout,,,248885.09999999986,248883.743,246915.321,246921.3999999999,246931.998,248900.424,,black
Stimulus,canvas.Screen,2_56_0_1,2022-07-01T12:03:22.312Z,,,1,A,99.49400000000605,timeout,,,248984.19999999995,248983.242,248883.743,248885.5,248900.424,248999.918,,black
Reaction,canvas.Screen,2_56_0_2,2022-07-01T12:03:22.546Z,,,1,A,217.2819999999483,response,stim_detected,mousedown,249218.59999999986,249217.19999999995,248983.242,248984.3999999999,248999.918,249250.136,,black
Trial,flow.Sequence,2_56_0,2022-07-01T12:03:22.547Z,,,1,A,2285.201999999961,completion,,,249219,249217.19999999995,246915.321,246921.30000000005,246931.998,249250.136,,black
Frame,canvas.Frame,2_56,2022-07-01T12:03:22.569Z,,,1,A,2287.101999999868,,,,249241,249219.09999999986,246915.321,246920.5,246931.998,249250.136,,black
Fixation,canvas.Screen,2_57_0_0,2022-07-01T12:03:24.431Z,,,1,AV,1868.6290000000154,timeout,,,251103.09999999986,251102.082,249233.459,249242,249250.136,251118.765,,grey
Stimulus,canvas.Screen,2_57_0_1,2022-07-01T12:03:24.530Z,,,1,AV,98.96499999999651,timeout,,,251202.09999999986,251201.056,251102.082,251103.30000000005,251118.765,251217.73,,grey
Reaction,canvas.Screen,2_57_0_2,2022-07-01T12:03:24.724Z,,,1,AV,176.36999999984982,response,stim_detected,mousedown,251395.69999999995,251394.09999999986,251201.056,251202.5,251217.73,251401.516,,grey
Trial,flow.Sequence,2_57_0,2022-07-01T12:03:24.724Z,,,1,AV,2143.9639999998617,completion,,,251396.09999999986,251394.09999999986,249233.459,249242,249250.136,251401.516,,grey
Frame,canvas.Frame,2_57,2022-07-01T12:03:24.724Z,,,1,AV,2146.063999999955,,,,251396.3999999999,251396.19999999995,249233.459,249241.09999999986,249250.136,251401.516,,grey
Fixation,canvas.Screen,2_58_0_0,2022-07-01T12:03:27.016Z,,,0,V,2302.345000000001,timeout,,,253688.5,253687.178,251384.839,251397.3999999999,251401.516,253703.861,,grey
Stimulus,canvas.Screen,2_58_0_1,2022-07-01T12:03:27.116Z,,,0,V,99.25500000000466,timeout,,,253788.30000000005,253786.439,253687.178,253688.69999999995,253703.861,253803.116,,grey
Reaction,canvas.Screen,2_58_0_2,2022-07-01T12:03:27.489Z,,,0,V,356.8839999999909,response,stim_detected,mousedown,254161.5,254160,253786.439,253788.5,253803.116,254169.987,,grey
Trial,flow.Sequence,2_58_0,2022-07-01T12:03:27.490Z,,,0,V,2758.4839999999967,completion,,,254161.8999999999,254160,251384.839,251397.30000000005,251401.516,254169.987,,grey
Frame,canvas.Frame,2_58,2022-07-01T12:03:27.490Z,,,0,V,2760.4839999999967,,,,254162.09999999986,254162,251384.839,251396.5,251401.516,254169.987,,grey
Fixation,canvas.Screen,2_59_0_0,2022-07-01T12:03:29.401Z,,,1,AV,1918.2690000000002,timeout,,,256073.19999999995,256071.576,254153.31,254163.09999999986,254169.987,256088.256,,grey
Stimulus,canvas.Screen,2_59_0_1,2022-07-01T12:03:29.500Z,,,1,AV,99.6820000000007,timeout,,,256172.19999999995,256171.261,256071.576,256073.59999999986,256088.256,256187.938,,grey
Reaction,canvas.Screen,2_59_0_2,2022-07-01T12:03:29.811Z,,,1,AV,293.9619999999122,response,stim_detected,mousedown,256483.3999999999,256481.8999999999,256171.261,256172.59999999986,256187.938,256488.15,,grey
Trial,flow.Sequence,2_59_0,2022-07-01T12:03:29.812Z,,,1,AV,2311.912999999913,completion,,,256483.80000000005,256481.8999999999,254153.31,254163.09999999986,254169.987,256488.15,,grey
Frame,canvas.Frame,2_59,2022-07-01T12:03:29.812Z,,,1,AV,2314.0130000000063,,,,256484.09999999986,256484,254153.31,254162.30000000005,254169.987,256488.15,,grey
Fixation,canvas.Screen,2_60_0_0,2022-07-01T12:03:31.785Z,,,1,A,1984.9690000000119,timeout,,,258457.30000000005,258456.439,256471.473,256485.19999999995,256488.15,258473.119,,black
Stimulus,canvas.Screen,2_60_0_1,2022-07-01T12:03:31.885Z,,,1,A,99.63099999999395,timeout,,,258557.19999999995,258556.074,258456.439,258457.5,258473.119,258572.75,,black
Reaction,canvas.Screen,2_60_0_2,2022-07-01T12:03:32.468Z,,,1,A,566.1499999999069,response,stim_detected,mousedown,259140.30000000005,259138.8999999999,258556.074,258557.5,258572.75,259156.532,,black
Trial,flow.Sequence,2_60_0,2022-07-01T12:03:32.469Z,,,1,A,2650.7499999999127,completion,,,259140.80000000005,259138.8999999999,256471.473,256485.19999999995,256488.15,259156.532,,black
Frame,canvas.Frame,2_60,2022-07-01T12:03:32.469Z,,,1,A,2652.7499999999127,,,,259141,259140.8999999999,256471.473,256484.19999999995,256488.15,259156.532,,black
Fixation,canvas.Screen,2_61_0_0,2022-07-01T12:03:34.586Z,,,0,V,2117.326000000001,timeout,,,261258.59999999986,261257.185,259139.855,259142.09999999986,259156.532,261273.858,,grey
Stimulus,canvas.Screen,2_61_0_1,2022-07-01T12:03:34.687Z,,,0,V,100.72000000000116,timeout,,,261359.59999999986,261357.901,261257.185,261258.8999999999,261273.858,261374.578,,grey
Reaction,canvas.Screen,2_61_0_2,2022-07-01T12:03:34.971Z,,,0,V,267.4219999999914,response,stim_detected,mousedown,261643.3999999999,261642,261357.901,261359.80000000005,261374.578,261658.14,,grey
Trial,flow.Sequence,2_61_0,2022-07-01T12:03:34.972Z,,,0,V,2485.4679999999935,completion,,,261643.69999999995,261642,259139.855,259141.8999999999,259156.532,261658.14,,grey
Frame,canvas.Frame,2_61,2022-07-01T12:03:34.972Z,,,0,V,2487.26800000004,,,,261644,261643.80000000005,259139.855,259141.19999999995,259156.532,261658.14,,grey
Fixation,canvas.Screen,2_62_0_0,2022-07-01T12:03:36.806Z,,,0,V,1835.3250000000116,timeout,,,263478.3999999999,263476.78,261641.463,261645.19999999995,261658.14,263493.465,,grey
Stimulus,canvas.Screen,2_62_0_1,2022-07-01T12:03:36.904Z,,,0,V,98.69799999997485,timeout,,,263576.3999999999,263575.491,263476.78,263479,263493.465,263592.163,,grey
Reaction,canvas.Screen,2_62_0_2,2022-07-01T12:03:37.178Z,,,0,V,256.6370000000461,response,stim_detected,mousedown,263850.19999999995,263848.80000000005,263575.491,263576.59999999986,263592.163,263859.567,,grey
Trial,flow.Sequence,2_62_0,2022-07-01T12:03:37.178Z,,,0,V,2190.6600000000326,completion,,,263850.59999999986,263848.80000000005,261641.463,261645.09999999986,261658.14,263859.567,,grey
Frame,canvas.Frame,2_62,2022-07-01T12:03:37.179Z,,,0,V,2192.5599999999395,,,,263850.8999999999,263850.69999999995,261641.463,261644.19999999995,261658.14,263859.567,,grey
Fixation,canvas.Screen,2_63_0_0,2022-07-01T12:03:39.340Z,,,1,A,2168.6510000000126,timeout,,,266012.3999999999,266011.536,263842.89,263851.8999999999,263859.567,266028.218,,black
Stimulus,canvas.Screen,2_63_0_1,2022-07-01T12:03:39.440Z,,,1,A,99.39299999998184,timeout,,,266112.3999999999,266110.935,266011.536,266012.69999999995,266028.218,266127.611,,black
Reaction,canvas.Screen,2_63_0_2,2022-07-01T12:03:39.781Z,,,1,A,324.0889999999781,response,stim_detected,mousedown,266453.09999999986,266451.69999999995,266110.935,266112.69999999995,266127.611,266461.233,,black
Trial,flow.Sequence,2_63_0,2022-07-01T12:03:39.781Z,,,1,A,2592.1329999999725,completion,,,266453.3999999999,266451.69999999995,263842.89,263851.80000000005,263859.567,266461.233,,black
Frame,canvas.Frame,2_63,2022-07-01T12:03:39.782Z,,,1,A,2594.0329999998794,,,,266453.80000000005,266453.59999999986,263842.89,263851.09999999986,263859.567,266461.233,,black
Fixation,canvas.Screen,2_64_0_0,2022-07-01T12:03:41.326Z,,,1,A,1549.9120000000112,timeout,,,267995.30000000005,267994.477,266444.556,266454.80000000005,266461.233,268011.145,,black
Stimulus,canvas.Screen,2_64_0_1,2022-07-01T12:03:41.427Z,,,1,A,101.18599999998696,timeout,,,268096.5,268095.651,267994.477,267995.59999999986,268011.145,268112.331,,black
Reaction,canvas.Screen,2_64_0_2,2022-07-01T12:03:41.728Z,,,1,A,284.1689999999944,response,stim_detected,mousedown,268397.8999999999,268396.5,268095.651,268096.80000000005,268112.331,268412.506,,black
Trial,flow.Sequence,2_64_0,2022-07-01T12:03:41.728Z,,,1,A,1935.2669999999925,completion,,,268398.30000000005,268396.5,266444.556,266454.69999999995,266461.233,268412.506,,black
Frame,canvas.Frame,2_64,2022-07-01T12:03:41.729Z,,,1,A,1937.1669999998994,,,,268398.5,268398.3999999999,266444.556,266453.8999999999,266461.233,268412.506,,black
Fixation,canvas.Screen,2_65_0_0,2022-07-01T12:03:43.962Z,,,0,V,2234.414999999979,timeout,,,270631.69999999995,270630.246,268395.829,268399.59999999986,268412.506,270646.921,,grey
Stimulus,canvas.Screen,2_65_0_1,2022-07-01T12:03:44.062Z,,,0,V,100.37800000002608,timeout,,,270731.69999999995,270730.622,270630.246,270631.8999999999,270646.921,270747.299,,grey
Reaction,canvas.Screen,2_65_0_2,2022-07-01T12:03:44.355Z,,,0,V,276.20100000000093,response,stim_detected,mousedown,271025,271023.5,270730.622,270731.80000000005,270747.299,271030.846,,grey
Trial,flow.Sequence,2_65_0,2022-07-01T12:03:44.356Z,,,0,V,2610.994000000006,completion,,,271025.30000000005,271023.5,268395.829,268399.5,268412.506,271030.846,,grey
Frame,canvas.Frame,2_65,2022-07-01T12:03:44.356Z,,,0,V,2612.994000000006,,,,271025.69999999995,271025.5,268395.829,268398.80000000005,268412.506,271030.846,,grey
Fixation,canvas.Screen,2_66_0_0,2022-07-01T12:03:46.580Z,,,1,A,2234.255999999994,timeout,,,273249.59999999986,273248.428,271014.169,271026.59999999986,271030.846,273265.102,,black
Stimulus,canvas.Screen,2_66_0_1,2022-07-01T12:03:46.681Z,,,1,A,100.62900000001537,timeout,,,273350.59999999986,273349.054,273248.428,273249.8999999999,273265.102,273365.731,,black
Reaction,canvas.Screen,2_66_0_2,2022-07-01T12:03:46.945Z,,,1,A,247.5690000000177,response,stim_detected,mousedown,273614.80000000005,273613.30000000005,273349.054,273350.80000000005,273365.731,273632.514,,black
Trial,flow.Sequence,2_66_0,2022-07-01T12:03:46.945Z,,,1,A,2582.454000000027,completion,,,273615.19999999995,273613.30000000005,271014.169,271026.5,271030.846,273632.514,,black
Frame,canvas.Frame,2_66,2022-07-01T12:03:46.946Z,,,1,A,2584.353999999934,,,,273615.5,273615.19999999995,271014.169,271025.8999999999,271030.846,273632.514,,black
Fixation,canvas.Screen,2_67_0_0,2022-07-01T12:03:49.233Z,,,1,AV,2285.4719999999506,timeout,,,275903.09999999986,275901.304,273615.837,273616.69999999995,273632.514,275917.986,,grey
Stimulus,canvas.Screen,2_67_0_1,2022-07-01T12:03:49.332Z,,,1,AV,99.31400000001304,timeout,,,276001.80000000005,276000.624,275901.304,275903.3999999999,275917.986,276017.3,,grey
Reaction,canvas.Screen,2_67_0_2,2022-07-01T12:03:49.562Z,,,1,AV,213.0000000000582,response,stim_detected,mousedown,276231.69999999995,276230.30000000005,276000.624,276002.09999999986,276017.3,276234.205,,grey
Trial,flow.Sequence,2_67_0,2022-07-01T12:03:49.562Z,,,1,AV,2597.786000000022,completion,,,276232.19999999995,276230.30000000005,273615.837,273616.5,273632.514,276234.205,,grey
Frame,canvas.Frame,2_67,2022-07-01T12:03:49.563Z,,,1,AV,2599.6859999999288,,,,276232.3999999999,276232.19999999995,273615.837,273615.59999999986,273632.514,276234.205,,grey
Fixation,canvas.Screen,2_68_0_0,2022-07-01T12:03:51.567Z,,,1,AV,2017.783999999985,timeout,,,278236.69999999995,278235.313,276217.528,276233.8999999999,276234.205,278251.989,,grey
Stimulus,canvas.Screen,2_68_0_1,2022-07-01T12:03:51.667Z,,,1,AV,100.02700000000186,timeout,,,278336.69999999995,278335.341,278235.313,278236.8999999999,278251.989,278352.016,,grey
Reaction,canvas.Screen,2_68_0_2,2022-07-01T12:03:51.907Z,,,1,AV,223.18399999995017,response,stim_detected,mousedown,278576.59999999986,278575.19999999995,278335.341,278337.09999999986,278352.016,278585.712,,grey
Trial,flow.Sequence,2_68_0,2022-07-01T12:03:51.907Z,,,1,AV,2340.994999999937,completion,,,278577,278575.19999999995,276217.528,276233.80000000005,276234.205,278585.712,,grey
Frame,canvas.Frame,2_68,2022-07-01T12:03:51.907Z,,,1,AV,2342.894999999844,,,,278577.30000000005,278577.09999999986,276217.528,276232.59999999986,276234.205,278585.712,,grey
Fixation,canvas.Screen,2_69_0_0,2022-07-01T12:03:53.769Z,,,1,AV,1868.2949999999837,timeout,,,280438.80000000005,280437.326,278569.035,278578.30000000005,278585.712,280454.007,,grey
Stimulus,canvas.Screen,2_69_0_1,2022-07-01T12:03:53.868Z,,,1,AV,99.51699999999255,timeout,,,280537.80000000005,280536.848,280437.326,280439.09999999986,280454.007,280553.524,,grey
Reaction,canvas.Screen,2_69_0_2,2022-07-01T12:03:54.123Z,,,1,AV,237.57599999988452,response,stim_detected,mousedown,280792.59999999986,280791.09999999986,280536.848,280538,280553.524,280803.812,,grey
Trial,flow.Sequence,2_69_0,2022-07-01T12:03:54.123Z,,,1,AV,2205.3879999998608,completion,,,280793,280791.09999999986,278569.035,278578.19999999995,278585.712,280803.812,,grey
Frame,canvas.Frame,2_69,2022-07-01T12:03:54.123Z,,,1,AV,2207.3879999998608,,,,280793.30000000005,280793.09999999986,278569.035,278577.3999999999,278585.712,280803.812,,grey
Fixation,canvas.Screen,2_70_0_0,2022-07-01T12:03:55.953Z,,,0,V,1834.3570000000182,timeout,,,282622.80000000005,282621.493,280787.135,280794.3999999999,280803.812,282638.169,,grey
Stimulus,canvas.Screen,2_70_0_1,2022-07-01T12:03:56.053Z,,,0,V,100.12900000001537,timeout,,,282722.80000000005,282721.622,282621.493,282623.09999999986,282638.169,282738.298,,grey
Reaction,canvas.Screen,2_70_0_2,2022-07-01T12:03:56.385Z,,,0,V,314.8019999998505,response,stim_detected,mousedown,283054.5,283053.09999999986,282721.622,282723,282738.298,283071.93,,grey
Trial,flow.Sequence,2_70_0,2022-07-01T12:03:56.385Z,,,0,V,2249.287999999884,completion,,,283055,283053.09999999986,280787.135,280794.30000000005,280803.812,283071.93,,grey
Frame,canvas.Frame,2_70,2022-07-01T12:03:56.385Z,,,0,V,2251.1880000000237,,,,283055.30000000005,283055,280787.135,280793.5,280803.812,283071.93,,grey
Fixation,canvas.Screen,2_71_0_0,2022-07-01T12:03:58.621Z,,,1,AV,2234.267999999982,timeout,,,285290.8999999999,285289.524,283055.253,283056.30000000005,283071.93,285306.198,,grey
Stimulus,canvas.Screen,2_71_0_1,2022-07-01T12:03:58.722Z,,,1,AV,100.67200000002049,timeout,,,285391.8999999999,285390.192,285289.524,285291.19999999995,285306.198,285406.87,,grey
Reaction,canvas.Screen,2_71_0_2,2022-07-01T12:03:59.015Z,,,1,AV,276.13000000000466,response,stim_detected,mousedown,285684.69999999995,285683,285390.192,285392.09999999986,285406.87,285690.293,,grey
Trial,flow.Sequence,2_71_0,2022-07-01T12:03:59.015Z,,,1,AV,2611.070000000007,completion,,,285685.09999999986,285683,283055.253,283056.19999999995,283071.93,285690.293,,grey
Frame,canvas.Frame,2_71,2022-07-01T12:03:59.016Z,,,1,AV,2613.2699999999604,,,,285685.3999999999,285685.19999999995,283055.253,283055.5,283071.93,285690.293,,grey
Fixation,canvas.Screen,2_72_0_0,2022-07-01T12:04:00.772Z,,,1,A,1767.0040000000154,timeout,,,287441.8999999999,287440.626,285673.616,285686.3999999999,285690.293,287457.297,,black
Stimulus,canvas.Screen,2_72_0_1,2022-07-01T12:04:00.873Z,,,1,A,101.3530000000028,timeout,,,287542.8999999999,287541.954,287440.626,287442.19999999995,287457.297,287558.65,,black
Reaction,canvas.Screen,2_72_0_2,2022-07-01T12:04:01.121Z,,,1,A,230.24999999988358,response,stim_detected,mousedown,287790.3999999999,287788.8999999999,287541.954,287543.19999999995,287558.65,287808.281,,black
Trial,flow.Sequence,2_72_0,2022-07-01T12:04:01.121Z,,,1,A,2098.6069999999017,completion,,,287790.80000000005,287788.8999999999,285673.616,285686.30000000005,285690.293,287808.281,,black
Frame,canvas.Frame,2_72,2022-07-01T12:04:01.121Z,,,1,A,2100.6069999999017,,,,287791.09999999986,287790.8999999999,285673.616,285685.5,285690.293,287808.281,,black
Fixation,canvas.Screen,2_73_0_0,2022-07-01T12:04:03.375Z,,,1,A,2252.1179999999586,timeout,,,290044.69999999995,290043.717,287791.605,287792.30000000005,287808.281,290060.399,,black
Stimulus,canvas.Screen,2_73_0_1,2022-07-01T12:04:03.474Z,,,1,A,98.80400000000373,timeout,,,290144.19999999995,290142.53,290043.717,290044.80000000005,290060.399,290159.203,,black
Reaction,canvas.Screen,2_73_0_2,2022-07-01T12:04:03.649Z,,,1,A,158.59700000006706,response,stim_detected,mousedown,290319,290317.80000000005,290142.53,290144.5,290159.203,290326.565,,black
Trial,flow.Sequence,2_73_0,2022-07-01T12:04:03.650Z,,,1,A,2509.5190000000293,completion,,,290319.30000000005,290317.80000000005,287791.605,287792.19999999995,287808.281,290326.565,,black
Frame,canvas.Frame,2_73,2022-07-01T12:04:03.650Z,,,1,A,2511.2189999999828,,,,290319.59999999986,290319.5,287791.605,287791.30000000005,287808.281,290326.565,,black
Fixation,canvas.Screen,2_74_0_0,2022-07-01T12:04:05.659Z,,,0,V,2018.1959999999963,timeout,,,292329,292328.082,290309.888,290320.3999999999,290326.565,292344.761,,grey
Stimulus,canvas.Screen,2_74_0_1,2022-07-01T12:04:05.759Z,,,0,V,99.93699999997625,timeout,,,292429,292428.019,292328.082,292329.19999999995,292344.761,292444.698,,grey
Reaction,canvas.Screen,2_74_0_2,2022-07-01T12:04:06.056Z,,,0,V,280.0019999999786,response,stim_detected,mousedown,292726.19999999995,292724.69999999995,292428.019,292429.30000000005,292444.698,292728.155,,grey
Trial,flow.Sequence,2_74_0,2022-07-01T12:04:06.057Z,,,0,V,2398.134999999951,completion,,,292726.5,292724.69999999995,290309.888,290320.30000000005,290326.565,292728.155,,grey
Frame,canvas.Frame,2_74,2022-07-01T12:04:06.057Z,,,0,V,2400.134999999951,,,,292726.8999999999,292726.69999999995,290309.888,290319.80000000005,290326.565,292728.155,,grey
Fixation,canvas.Screen,2_75_0_0,2022-07-01T12:04:07.610Z,,,1,AV,1566.9709999999614,timeout,,,294280.09999999986,294278.455,292711.478,292727.8999999999,292728.155,294295.126,,grey
Stimulus,canvas.Screen,2_75_0_1,2022-07-01T12:04:07.711Z,,,1,AV,100.86300000001211,timeout,,,294381,294379.311,294278.455,294280.3999999999,294295.126,294395.989,,grey
Reaction,canvas.Screen,2_75_0_2,2022-07-01T12:04:08.027Z,,,1,AV,299.6109999998589,response,stim_detected,mousedown,294697.19999999995,294695.59999999986,294379.311,294381.19999999995,294395.989,294712.769,,grey
Trial,flow.Sequence,2_75_0,2022-07-01T12:04:08.028Z,,,1,AV,1967.4449999998324,completion,,,294697.8999999999,294695.59999999986,292711.478,292727.69999999995,292728.155,294712.769,,grey
Frame,canvas.Frame,2_75,2022-07-01T12:04:08.028Z,,,1,AV,1969.844999999972,,,,294698.30000000005,294698,292711.478,292727,292728.155,294712.769,,grey
Fixation,canvas.Screen,2_76_0_0,2022-07-01T12:04:10.462Z,,,0,V,2434.0080000000307,timeout,,,297131.80000000005,297130.105,294696.092,294699.3999999999,294712.769,297146.777,,grey
Stimulus,canvas.Screen,2_76_0_1,2022-07-01T12:04:10.562Z,,,0,V,100.81400000001304,timeout,,,297232.30000000005,297230.915,297130.105,297131.8999999999,297146.777,297247.591,,grey
Reaction,canvas.Screen,2_76_0_2,2022-07-01T12:04:10.796Z,,,0,V,216.9089999999851,response,stim_detected,mousedown,297466.09999999986,297464.5,297230.915,297232.5,297247.591,297481.191,,grey
Trial,flow.Sequence,2_76_0,2022-07-01T12:04:10.797Z,,,0,V,2751.731000000029,completion,,,297466.5,297464.5,294696.092,294699.30000000005,294712.769,297481.191,,grey
Frame,canvas.Frame,2_76,2022-07-01T12:04:10.797Z,,,0,V,2753.830999999889,,,,297466.69999999995,297466.59999999986,294696.092,294698.3999999999,294712.769,297481.191,,grey
Fixation,canvas.Screen,2_77_0_0,2022-07-01T12:04:12.313Z,,,0,V,1517.6170000000275,timeout,,,298983.3999999999,298982.131,297464.514,297467.8999999999,297481.191,298998.808,,grey
Stimulus,canvas.Screen,2_77_0_1,2022-07-01T12:04:12.413Z,,,0,V,100.18799999996554,timeout,,,299083.19999999995,299082.317,298982.131,298983.69999999995,298998.808,299098.996,,grey
Reaction,canvas.Screen,2_77_0_2,2022-07-01T12:04:12.754Z,,,0,V,323.50400000001537,response,stim_detected,mousedown,299424.09999999986,299422.5,299082.317,299083.3999999999,299098.996,299432.472,,grey
Trial,flow.Sequence,2_77_0,2022-07-01T12:04:12.755Z,,,0,V,1941.3090000000084,completion,,,299424.59999999986,299422.5,297464.514,297467.69999999995,297481.191,299432.472,,grey
Frame,canvas.Frame,2_77,2022-07-01T12:04:12.755Z,,,0,V,1943.5089999999618,,,,299424.8999999999,299424.69999999995,297464.514,297467,297481.191,299432.472,,grey
Fixation,canvas.Screen,2_78_0_0,2022-07-01T12:04:15.015Z,,,0,V,2267.6059999999707,timeout,,,301684.5,301683.404,299415.795,299426.09999999986,299432.472,301700.078,,grey
Stimulus,canvas.Screen,2_78_0_1,2022-07-01T12:04:15.115Z,,,0,V,100.46500000002561,timeout,,,301785.19999999995,301783.867,301683.404,301684.80000000005,301700.078,301800.543,,grey
Reaction,canvas.Screen,2_78_0_2,2022-07-01T12:04:15.425Z,,,0,V,292.85699999990175,response,stim_detected,mousedown,302094.8999999999,302093.3999999999,301783.867,301785.5,301800.543,302100.831,,grey
Trial,flow.Sequence,2_78_0,2022-07-01T12:04:15.425Z,,,0,V,2660.927999999898,completion,,,302095.30000000005,302093.3999999999,299415.795,299426,299432.472,302100.831,,grey
Frame,canvas.Frame,2_78,2022-07-01T12:04:15.426Z,,,0,V,2662.927999999898,,,,302095.80000000005,302095.3999999999,299415.795,299425.30000000005,299432.472,302100.831,,grey
Fixation,canvas.Screen,2_79_0_0,2022-07-01T12:04:17.567Z,,,1,AV,2152.1560000000172,timeout,,,304237.30000000005,304236.304,302084.154,302096.8999999999,302100.831,304252.987,,grey
Stimulus,canvas.Screen,2_79_0_1,2022-07-01T12:04:17.667Z,,,1,AV,99.21700000000419,timeout,,,304337.19999999995,304335.528,304236.304,304237.5,304252.987,304352.204,,grey
Reaction,canvas.Screen,2_79_0_2,2022-07-01T12:04:17.954Z,,,1,AV,270.19599999987986,response,stim_detected,mousedown,304623.8999999999,304622.3999999999,304335.528,304337.5,304352.204,304635.806,,grey
Trial,flow.Sequence,2_79_0,2022-07-01T12:04:17.954Z,,,1,AV,2521.5689999999013,completion,,,304624.30000000005,304622.3999999999,302084.154,302096.80000000005,302100.831,304635.806,,grey
Frame,canvas.Frame,2_79,2022-07-01T12:04:17.955Z,,,1,AV,2523.469000000041,,,,304624.5,304624.30000000005,302084.154,302095.8999999999,302100.831,304635.806,,grey
Fixation,canvas.Screen,2_80_0_0,2022-07-01T12:04:19.752Z,,,1,AV,1801.5250000000233,timeout,,,306422.30000000005,306420.651,304619.129,304625.59999999986,304635.806,306437.331,,grey
Stimulus,canvas.Screen,2_80_0_1,2022-07-01T12:04:19.851Z,,,1,AV,99.63299999997253,timeout,,,306521.30000000005,306520.288,306420.651,306422.5,306437.331,306536.964,,grey
Reaction,canvas.Screen,2_80_0_2,2022-07-01T12:04:20.101Z,,,1,AV,232.33600000006845,response,stim_detected,mousedown,306770.69999999995,306769.30000000005,306520.288,306521.5,306536.964,306787.205,,grey
Trial,flow.Sequence,2_80_0,2022-07-01T12:04:20.101Z,,,1,AV,2133.4940000000643,completion,,,306771.09999999986,306769.30000000005,304619.129,304625.5,304635.806,306787.205,,grey
Frame,canvas.Frame,2_80,2022-07-01T12:04:20.102Z,,,1,AV,2135.393999999971,,,,306771.3999999999,306771.19999999995,304619.129,304624.80000000005,304635.806,306787.205,,grey
Fixation,canvas.Screen,2_81_0_0,2022-07-01T12:04:22.253Z,,,0,V,2150.6019999999553,timeout,,,308922.59999999986,308921.135,306770.528,306772.59999999986,306787.205,308937.807,,grey
Stimulus,canvas.Screen,2_81_0_1,2022-07-01T12:04:22.354Z,,,0,V,100.89300000004005,timeout,,,309023.5,309022.022,308921.135,308922.8999999999,308937.807,309038.7,,grey
Reaction,canvas.Screen,2_81_0_2,2022-07-01T12:04:22.778Z,,,0,V,407.39999999984866,response,stim_detected,mousedown,309447.59999999986,309446.09999999986,309022.022,309023.80000000005,309038.7,309455.565,,grey
Trial,flow.Sequence,2_81_0,2022-07-01T12:04:22.778Z,,,0,V,2658.894999999844,completion,,,309448,309446.09999999986,306770.528,306772.3999999999,306787.205,309455.565,,grey
Frame,canvas.Frame,2_81,2022-07-01T12:04:22.778Z,,,0,V,2660.894999999844,,,,309448.30000000005,309448.09999999986,306770.528,306771.69999999995,306787.205,309455.565,,grey
Fixation,canvas.Screen,2_82_0_0,2022-07-01T12:04:24.623Z,,,1,A,1851.8609999999753,timeout,,,311292.5,311290.743,309438.888,309449.30000000005,309455.565,311307.426,,black
Stimulus,canvas.Screen,2_82_0_1,2022-07-01T12:04:24.721Z,,,1,A,99.33800000004703,timeout,,,311391.19999999995,311390.088,311290.743,311292.69999999995,311307.426,311406.764,,black
Reaction,canvas.Screen,2_82_0_2,2022-07-01T12:04:25.011Z,,,1,A,272.2359999999753,response,stim_detected,mousedown,311680.3999999999,311679,311390.088,311391.30000000005,311406.764,311690.281,,black
Trial,flow.Sequence,2_82_0,2022-07-01T12:04:25.011Z,,,1,A,2223.4349999999977,completion,,,311681,311679,309438.888,309449.19999999995,309455.565,311690.281,,black
Frame,canvas.Frame,2_82,2022-07-01T12:04:25.011Z,,,1,A,2225.534999999858,,,,311681.30000000005,311681.09999999986,309438.888,309448.5,309455.565,311690.281,,black
Fixation,canvas.Screen,2_83_0_0,2022-07-01T12:04:26.942Z,,,0,V,1936.6489999999758,timeout,,,313611.5,313610.237,311673.605,311683.30000000005,311690.281,313626.93,,grey
Stimulus,canvas.Screen,2_83_0_1,2022-07-01T12:04:27.040Z,,,0,V,98.1030000000028,timeout,,,313709.3999999999,313708.356,313610.237,313611.69999999995,313626.93,313725.033,,grey
Reaction,canvas.Screen,2_83_0_2,2022-07-01T12:04:27.248Z,,,0,V,190.9670000000042,response,stim_detected,mousedown,313917.3999999999,313916,313708.356,313710.3999999999,313725.033,313925.134,,grey
Trial,flow.Sequence,2_83_0,2022-07-01T12:04:27.248Z,,,0,V,2225.7189999999828,completion,,,313917.8999999999,313916,311673.605,311683.19999999995,311690.281,313925.134,,grey
Frame,canvas.Frame,2_83,2022-07-01T12:04:27.248Z,,,0,V,2227.818999999843,,,,313918.30000000005,313918.09999999986,311673.605,311681.5,311690.281,313925.134,,grey
Fixation,canvas.Screen,2_84_0_0,2022-07-01T12:04:29.675Z,,,1,AV,2434.3580000000075,timeout,,,316344.59999999986,316342.818,313908.457,313919.30000000005,313925.134,316359.492,,grey
Stimulus,canvas.Screen,2_84_0_1,2022-07-01T12:04:29.775Z,,,1,AV,100.66699999995762,timeout,,,316444.5,316443.481,316342.818,316344.80000000005,316359.492,316460.159,,grey
Reaction,canvas.Screen,2_84_0_2,2022-07-01T12:04:30.001Z,,,1,AV,208.74099999992177,response,stim_detected,mousedown,316670.3999999999,316668.8999999999,316443.481,316444.80000000005,316460.159,316676.898,,grey
Trial,flow.Sequence,2_84_0,2022-07-01T12:04:30.001Z,,,1,AV,2743.765999999887,completion,,,316670.80000000005,316668.8999999999,313908.457,313919.30000000005,313925.134,316676.898,,grey
Frame,canvas.Frame,2_84,2022-07-01T12:04:30.001Z,,,1,AV,2745.765999999887,,,,316671.09999999986,316670.8999999999,313908.457,313918.3999999999,313925.134,316676.898,,grey
Fixation,canvas.Screen,2_85_0_0,2022-07-01T12:04:32.494Z,,,1,AV,2501.7330000000075,timeout,,,319163.8999999999,319161.953,316660.221,316672.59999999986,316676.898,319178.631,,grey
Stimulus,canvas.Screen,2_85_0_1,2022-07-01T12:04:32.593Z,,,1,AV,99.68800000002375,timeout,,,319262.69999999995,319261.644,319161.953,319164.09999999986,319178.631,319278.319,,grey
Reaction,canvas.Screen,2_85_0_2,2022-07-01T12:04:32.784Z,,,1,AV,174.48100000002887,response,stim_detected,mousedown,319454.19999999995,319452.80000000005,319261.644,319263.30000000005,319278.319,319461.992,,grey
Trial,flow.Sequence,2_85_0,2022-07-01T12:04:32.785Z,,,1,AV,2775.90200000006,completion,,,319454.59999999986,319452.80000000005,316660.221,316672.5,316676.898,319461.992,,grey
Frame,canvas.Frame,2_85,2022-07-01T12:04:32.785Z,,,1,AV,2777.90200000006,,,,319454.8999999999,319454.80000000005,316660.221,316671.30000000005,316676.898,319461.992,,grey
Fixation,canvas.Screen,2_86_0_0,2022-07-01T12:04:34.462Z,,,1,A,1685.2139999999781,timeout,,,321131.59999999986,321130.521,319445.315,319456.3999999999,319461.992,321147.206,,black
Stimulus,canvas.Screen,2_86_0_1,2022-07-01T12:04:34.561Z,,,1,A,98.87699999997858,timeout,,,321230.69999999995,321229.41,321130.521,321131.80000000005,321147.206,321246.083,,black
Reaction,canvas.Screen,2_86_0_2,2022-07-01T12:04:34.898Z,,,1,A,320.7170000000624,response,stim_detected,mousedown,321568.19999999995,321566.80000000005,321229.41,321231,321246.083,321580.057,,black
Trial,flow.Sequence,2_86_0,2022-07-01T12:04:34.899Z,,,1,A,2104.808000000019,completion,,,321568.59999999986,321566.80000000005,319445.315,319456.3999999999,319461.992,321580.057,,black
Frame,canvas.Frame,2_86,2022-07-01T12:04:34.899Z,,,1,A,2106.707999999926,,,,321568.8999999999,321568.69999999995,319445.315,319455.19999999995,319461.992,321580.057,,black
Fixation,canvas.Screen,2_87_0_0,2022-07-01T12:04:36.779Z,,,1,A,1883.8300000000163,timeout,,,323448.69999999995,323447.215,321563.38,321569.8999999999,321580.057,323463.887,,black
Stimulus,canvas.Screen,2_87_0_1,2022-07-01T12:04:36.880Z,,,1,A,100.82300000003306,timeout,,,323549.8999999999,323548.033,323447.215,323448.8999999999,323463.887,323564.71,,black
Reaction,canvas.Screen,2_87_0_2,2022-07-01T12:04:37.265Z,,,1,A,368.9899999999325,response,stim_detected,mousedown,323935.09999999986,323933.69999999995,323548.033,323550.19999999995,323564.71,323948.212,,black
Trial,flow.Sequence,2_87_0,2022-07-01T12:04:37.266Z,,,1,A,2353.642999999982,completion,,,323935.5,323933.69999999995,321563.38,321569.80000000005,321580.057,323948.212,,black
Frame,canvas.Frame,2_87,2022-07-01T12:04:37.266Z,,,1,A,2355.5429999998887,,,,323935.69999999995,323935.59999999986,321563.38,321569.09999999986,321580.057,323948.212,,black
Fixation,canvas.Screen,2_88_0_0,2022-07-01T12:04:39.249Z,,,1,AV,1985.6560000000172,timeout,,,325918.80000000005,325917.182,323931.535,323936.80000000005,323948.212,325933.868,,grey
Stimulus,canvas.Screen,2_88_0_1,2022-07-01T12:04:39.348Z,,,1,AV,98.96799999999348,timeout,,,326017.8999999999,326016.16,325917.182,325919.19999999995,325933.868,326032.836,,grey
Reaction,canvas.Screen,2_88_0_2,2022-07-01T12:04:39.559Z,,,1,AV,194.76399999985006,response,stim_detected,mousedown,326229,326227.59999999986,326016.16,326018.09999999986,326032.836,326233.048,,grey
Trial,flow.Sequence,2_88_0,2022-07-01T12:04:39.560Z,,,1,AV,2279.3879999998608,completion,,,326229.5,326227.59999999986,323931.535,323936.69999999995,323948.212,326233.048,,grey
Frame,canvas.Frame,2_88,2022-07-01T12:04:39.560Z,,,1,AV,2281.3879999998608,,,,326229.69999999995,326229.59999999986,323931.535,323935.8999999999,323948.212,326233.048,,grey
Fixation,canvas.Screen,2_89_0_0,2022-07-01T12:04:41.935Z,,,0,V,2385.2550000000047,timeout,,,328603,328601.623,326216.371,326230.8999999999,326233.048,328618.303,,grey
Stimulus,canvas.Screen,2_89_0_1,2022-07-01T12:04:42.035Z,,,0,V,99.64899999997579,timeout,,,328702.8999999999,328701.275,328601.623,328603.19999999995,328618.303,328717.952,,grey
Reaction,canvas.Screen,2_89_0_2,2022-07-01T12:04:42.275Z,,,0,V,223.54800000000978,response,stim_detected,mousedown,328942.8999999999,328941.5,328701.275,328703.09999999986,328717.952,328951.468,,grey
Trial,flow.Sequence,2_89_0,2022-07-01T12:04:42.276Z,,,0,V,2708.45199999999,completion,,,328943.30000000005,328941.5,326216.371,326230.69999999995,326233.048,328951.468,,grey
Frame,canvas.Frame,2_89,2022-07-01T12:04:42.276Z,,,0,V,2710.351999999897,,,,328943.59999999986,328943.3999999999,326216.371,326230,326233.048,328951.468,,grey
Fixation,canvas.Screen,2_90_0_0,2022-07-01T12:04:44.220Z,,,0,V,1951.4820000000182,timeout,,,330887.8999999999,330886.271,328934.791,328944.59999999986,328951.468,330902.95,,grey
Stimulus,canvas.Screen,2_90_0_1,2022-07-01T12:04:44.319Z,,,0,V,99.85399999999208,timeout,,,330987,330985.739,330886.271,330888.09999999986,330902.95,331002.804,,grey
Reaction,canvas.Screen,2_90_0_2,2022-07-01T12:04:44.558Z,,,0,V,221.59599999990314,response,stim_detected,mousedown,331225.8999999999,331224.3999999999,330985.739,330987.19999999995,331002.804,331236.282,,grey
Trial,flow.Sequence,2_90_0,2022-07-01T12:04:44.558Z,,,0,V,2272.9319999999134,completion,,,331226.30000000005,331224.3999999999,328934.791,328944.59999999986,328951.468,331236.282,,grey
Frame,canvas.Frame,2_90,2022-07-01T12:04:44.559Z,,,0,V,2274.832000000053,,,,331226.59999999986,331226.30000000005,328934.791,328943.80000000005,328951.468,331236.282,,grey
Loop,flow.Loop,2,2022-07-01T12:04:44.559Z,,,,,225703.60100000005,completion,,,331226.8999999999,331226.30000000005,105506.035,105507.8999999999,105522.699,331236.282,,
end,html.Page,3,2022-07-01T12:04:55.137Z,,,,,10567.717999999993,form submission,,,341804.80000000005,341804,331219.605,331227.09999999986,331236.282,341810.269,,
root,flow.Sequence,,2022-07-01T12:04:55.138Z,,,,,337928.49,completion,,,341806.09999999986,341804,3858.827,3865,3875.51,341810.269,,