sender,sender_type,sender_id,timestamp,meta,,aud,condition,duration,ended_on,response,response_action,time_commit,time_end,time_render,time_run,time_show,time_switch,url,vis
Instructions,html.Page,0,2022-07-04T16:44:20.024Z,"{""labjs_version"":""20.2.4"",""labjs_build"":{""flavor"":""production"",""commit"":""f5b4a49f956347addd546a832a3327688c2c0fef""},""location"":""file:///C:/Users/Proband%207/Desktop/RTE/index.html"",""userAgent"":""Mozilla/5.0 (Windows NT 6.1; Win64; x64) AppleWebKit/537.36 (KHTML, like Gecko) Chrome/103.0.0.0 Safari/537.36"",""platform"":""Win32"",""language"":""de-DE"",""locale"":""de"",""timeZone"":""Europe/Berlin"",""timezoneOffset"":-120,""screen_width"":1366,""screen_height"":768,""scroll_width"":1366,""scroll_height"":609,""window_innerWidth"":1366,""window_innerHeight"":657,""devicePixelRatio"":1}",,,,1413582.094,form submission,,,1415571.7999999998,1415571,1972.227,1981.5,1988.906,1415578.229,{},
Change Background,canvas.Screen,1,2022-07-04T16:44:23.008Z,,,,,2992.118999999948,timeout,,,1418555.8999999994,1418553.661,1415561.579,1415572.2999999998,1415578.229,1418570.348,,
Fixation,canvas.Screen,2_0_0_0,2022-07-04T16:44:24.601Z,,,0,V,1593.7439999999478,timeout,,,1420148.6999999993,1420147.443,1418553.661,1418557.3999999994,1418570.348,1420164.092,,grey
Stimulus,canvas.Screen,2_0_0_1,2022-07-04T16:44:24.707Z,,,0,V,106.28900000010617,timeout,,,1420254.5,1420253.627,1420147.443,1420149,1420164.092,1420270.381,,grey
Reaction,canvas.Screen,2_0_0_2,2022-07-04T16:44:25.017Z,,,0,V,292.4189999997616,response,stim_detected,mousedown,1420564.8999999994,1420562.7999999998,1420253.627,1420254.7999999998,1420270.381,1420570.567,,grey
Trial,flow.Sequence,2_0_0,2022-07-04T16:44:25.018Z,,,0,V,1992.4519999998156,completion,,,1420565.3999999994,1420562.7999999998,1418553.661,1418557.2999999998,1418570.348,1420570.567,,grey
Frame,canvas.Frame,2_0,2022-07-04T16:44:25.019Z,,,0,V,1995.3519999992568,,,,1420566,1420565.6999999993,1418553.661,1418556.3999999994,1418570.348,1420570.567,,grey
Fixation,canvas.Screen,2_1_0_0,2022-07-04T16:44:26.592Z,,,1,AV,1584.436999999918,timeout,,,1422139.5,1422138.326,1420553.89,1420567.2999999998,1420570.567,1422155.004,,grey
Stimulus,canvas.Screen,2_1_0_1,2022-07-04T16:44:26.692Z,,,1,AV,100.09400000004098,timeout,,,1422239.7999999998,1422238.42,1422138.326,1422139.7999999998,1422155.004,1422255.098,,grey
Reaction,canvas.Screen,2_1_0_2,2022-07-04T16:44:26.924Z,,,1,AV,214.6019999992568,response,stim_detected,mousedown,1422471.5,1422469.6999999993,1422238.42,1422240.1999999993,1422255.098,1422488.509,,grey
Trial,flow.Sequence,2_1_0,2022-07-04T16:44:26.925Z,,,1,AV,1899.1329999992158,completion,,,1422472.5,1422469.6999999993,1420553.89,1420567.1999999993,1420570.567,1422488.509,,grey
Frame,canvas.Frame,2_1,2022-07-04T16:44:26.926Z,,,1,AV,1902.1329999992158,,,,1422473.0999999996,1422472.6999999993,1420553.89,1420566.2999999998,1420570.567,1422488.509,,grey
Fixation,canvas.Screen,2_2_0_0,2022-07-04T16:44:29.393Z,,,1,A,2467.7009999998845,timeout,,,1424940.8999999994,1424939.536,1422471.832,1422474.1999999993,1422488.509,1424956.21,,black
Stimulus,canvas.Screen,2_2_0_1,2022-07-04T16:44:29.495Z,,,1,A,100.69699999992736,timeout,,,1425042,1425040.23,1424939.536,1424941.0999999996,1424956.21,1425056.907,,black
Reaction,canvas.Screen,2_2_0_2,2022-07-04T16:44:29.861Z,,,1,A,349.79299999936484,response,stim_detected,mousedown,1425408.7999999998,1425406.6999999993,1425040.23,1425042.3999999994,1425056.907,1425440.458,,black
Trial,flow.Sequence,2_2_0,2022-07-04T16:44:29.862Z,,,1,A,2918.1909999991767,completion,,,1425409.1999999993,1425406.6999999993,1422471.832,1422474.0999999996,1422488.509,1425440.458,,black
Frame,canvas.Frame,2_2,2022-07-04T16:44:29.862Z,,,1,A,2920.890999999363,,,,1425409.5999999996,1425409.3999999994,1422471.832,1422473.2999999998,1422488.509,1425440.458,,black
Fixation,canvas.Screen,2_3_0_0,2022-07-04T16:44:32.098Z,,,1,A,2219.597999999998,timeout,,,1427645.7999999998,1427643.368,1425407.104,1425411,1425440.458,1427660.056,,black
Stimulus,canvas.Screen,2_3_0_1,2022-07-04T16:44:32.196Z,,,1,A,98.57399999978952,timeout,,,1427743,1427741.953,1427643.368,1427646.2999999998,1427660.056,1427758.63,,black
Reaction,canvas.Screen,2_3_0_2,2022-07-04T16:44:32.446Z,,,1,A,233.0699999993667,response,stim_detected,mousedown,1427993.6999999993,1427991.6999999993,1427741.953,1427743.1999999993,1427758.63,1428008.87,,black
Trial,flow.Sequence,2_3_0,2022-07-04T16:44:32.447Z,,,1,A,2551.2419999991544,completion,,,1427994.1999999993,1427991.6999999993,1425407.104,1425410.8999999994,1425440.458,1428008.87,,black
Frame,canvas.Frame,2_3,2022-07-04T16:44:32.447Z,,,1,A,2553.841999999713,,,,1427994.5999999996,1427994.2999999998,1425407.104,1425409.7999999998,1425440.458,1428008.87,,black
Fixation,canvas.Screen,2_4_0_0,2022-07-04T16:44:34.781Z,,,0,V,2334.7979999999516,timeout,,,1430328,1430326.991,1427992.193,1427996,1428008.87,1430343.668,,grey
Stimulus,canvas.Screen,2_4_0_1,2022-07-04T16:44:34.881Z,,,0,V,100.26599999982864,timeout,,,1430428.8999999994,1430427.255,1430326.991,1430328.2999999998,1430343.668,1430443.934,,grey
Reaction,canvas.Screen,2_4_0_2,2022-07-04T16:44:35.197Z,,,0,V,298.6659999997355,response,stim_detected,mousedown,1430744.5999999996,1430742.5999999996,1430427.255,1430429.1999999993,1430443.934,1430760.695,,grey
Trial,flow.Sequence,2_4_0,2022-07-04T16:44:35.198Z,,,0,V,2733.7299999995157,completion,,,1430745.1999999993,1430742.5999999996,1427992.193,1427995.8999999994,1428008.87,1430760.695,,grey
Frame,canvas.Frame,2_4,2022-07-04T16:44:35.198Z,,,0,V,2736.429999999702,,,,1430745.5999999996,1430745.2999999998,1427992.193,1427994.7999999998,1428008.87,1430760.695,,grey
Fixation,canvas.Screen,2_5_0_0,2022-07-04T16:44:37.051Z,,,1,AV,1852.219999999972,timeout,,,1432598,1432596.23,1430744.018,1430746.8999999994,1430760.695,1432612.915,,grey
Stimulus,canvas.Screen,2_5_0_1,2022-07-04T16:44:37.150Z,,,1,AV,98.98799999989569,timeout,,,1432697,1432695.227,1432596.23,1432598.1999999993,1432612.915,1432711.903,,grey
Reaction,canvas.Screen,2_5_0_2,2022-07-04T16:44:37.338Z,,,1,AV,171.59700000006706,response,stim_detected,mousedown,1432885.3999999994,1432883.5,1432695.227,1432697.1999999993,1432711.903,1432895.469,,grey
Trial,flow.Sequence,2_5_0,2022-07-04T16:44:37.339Z,,,1,AV,2122.804999999935,completion,,,1432886,1432883.5,1430744.018,1430746.7999999998,1430760.695,1432895.469,,grey
Frame,canvas.Frame,2_5,2022-07-04T16:44:37.339Z,,,1,AV,2125.5049999991897,,,,1432886.3999999994,1432886.1999999993,1430744.018,1430745.6999999993,1430760.695,1432895.469,,grey
Fixation,canvas.Screen,2_6_0_0,2022-07-04T16:44:39.702Z,,,1,AV,2369.0470000000205,timeout,,,1435249.2999999998,1435247.833,1432878.792,1432887.6999999993,1432895.469,1435264.516,,grey
Stimulus,canvas.Screen,2_6_0_1,2022-07-04T16:44:39.801Z,,,1,AV,98.87599999993108,timeout,,,1435348.2999999998,1435346.717,1435247.833,1435249.6999999993,1435264.516,1435363.392,,grey
Reaction,canvas.Screen,2_6_0_2,2022-07-04T16:44:39.989Z,,,1,AV,171.3079999992624,response,stim_detected,mousedown,1435536.3999999994,1435534.6999999993,1435346.717,1435348.5,1435363.392,1435547.267,,grey
Trial,flow.Sequence,2_6_0,2022-07-04T16:44:39.989Z,,,1,AV,2639.230999999214,completion,,,1435536.7999999998,1435534.6999999993,1432878.792,1432887.5999999996,1432895.469,1435547.267,,grey
Frame,canvas.Frame,2_6,2022-07-04T16:44:39.990Z,,,1,AV,2641.4309999994002,,,,1435537.0999999996,1435536.8999999994,1432878.792,1432886.6999999993,1432895.469,1435547.267,,grey
Fixation,canvas.Screen,2_7_0_0,2022-07-04T16:44:42.086Z,,,1,A,2101.30700000003,timeout,,,1437633.1999999993,1437631.897,1435530.59,1435538.2999999998,1435547.267,1437648.574,,black
Stimulus,canvas.Screen,2_7_0_1,2022-07-04T16:44:42.186Z,,,1,A,100.22799999988638,timeout,,,1437733.1999999993,1437732.123,1437631.897,1437633.3999999994,1437648.574,1437748.802,,black
Reaction,canvas.Screen,2_7_0_2,2022-07-04T16:44:42.514Z,,,1,A,310.79799999971874,response,stim_detected,mousedown,1438061.2999999998,1438059.5999999996,1437732.123,1437733.3999999994,1437748.802,1438065.608,,black
Trial,flow.Sequence,2_7_0,2022-07-04T16:44:42.514Z,,,1,A,2512.332999999635,completion,,,1438061.6999999993,1438059.5999999996,1435530.59,1435538.2999999998,1435547.267,1438065.608,,black
Frame,canvas.Frame,2_7,2022-07-04T16:44:42.515Z,,,1,A,2514.532999999821,,,,1438062,1438061.7999999998,1435530.59,1435537.2999999998,1435547.267,1438065.608,,black
Fixation,canvas.Screen,2_8_0_0,2022-07-04T16:44:44.587Z,,,1,AV,2084.337999999989,timeout,,,1440134.2999999998,1440133.271,1438048.931,1438063.1999999993,1438065.608,1440149.946,,grey
Stimulus,canvas.Screen,2_8_0_1,2022-07-04T16:44:44.689Z,,,1,AV,100.36100000003353,timeout,,,1440236.1999999993,1440233.63,1440133.271,1440134.5,1440149.946,1440250.307,,grey
Reaction,canvas.Screen,2_8_0_2,2022-07-04T16:44:44.876Z,,,1,AV,171.29299999959767,response,stim_detected,mousedown,1440423.2999999998,1440421.5999999996,1440233.63,1440236.5999999996,1440250.307,1440450.506,,grey
Trial,flow.Sequence,2_8_0,2022-07-04T16:44:44.876Z,,,1,AV,2355.99199999962,completion,,,1440423.6999999993,1440421.5999999996,1438048.931,1438063.0999999996,1438065.608,1440450.506,,grey
Frame,canvas.Frame,2_8,2022-07-04T16:44:44.877Z,,,1,AV,2358.2919999994338,,,,1440424,1440423.8999999994,1438048.931,1438062.1999999993,1438065.608,1440450.506,,grey
Fixation,canvas.Screen,2_9_0_0,2022-07-04T16:44:47.390Z,,,1,A,2501.8819999999832,timeout,,,1442937.5999999996,1442935.709,1440417.152,1440425.3999999994,1440450.506,1442952.388,,black
Stimulus,canvas.Screen,2_9_0_1,2022-07-04T16:44:47.489Z,,,1,A,99.97299999999814,timeout,,,1443036.6999999993,1443035.682,1442935.709,1442938,1442952.388,1443052.361,,black
Reaction,canvas.Screen,2_9_0_2,2022-07-04T16:44:47.750Z,,,1,A,243.13899999996647,response,stim_detected,mousedown,1443297.2999999998,1443295.5,1443035.682,1443036.8999999994,1443052.361,1443302.433,,black
Trial,flow.Sequence,2_9_0,2022-07-04T16:44:47.750Z,,,1,A,2844.993999999948,completion,,,1443297.7999999998,1443295.5,1440417.152,1440425.2999999998,1440450.506,1443302.433,,black
Frame,canvas.Frame,2_9,2022-07-04T16:44:47.751Z,,,1,A,2847.393999999389,,,,1443298.0999999996,1443297.8999999994,1440417.152,1440424.1999999993,1440450.506,1443302.433,,black
Fixation,canvas.Screen,2_10_0_0,2022-07-04T16:44:49.474Z,,,1,A,1734.7770000000019,timeout,,,1445021.5,1445020.53,1443285.756,1443299.1999999993,1443302.433,1445037.21,,black
Stimulus,canvas.Screen,2_10_0_1,2022-07-04T16:44:49.574Z,,,1,A,99.82199999992736,timeout,,,1445121.5,1445120.355,1445020.53,1445021.7999999998,1445037.21,1445137.032,,black
Reaction,canvas.Screen,2_10_0_2,2022-07-04T16:44:49.912Z,,,1,A,320.4680000001099,response,stim_detected,mousedown,1445459.5,1445457.5,1445120.355,1445121.6999999993,1445137.032,1445470.569,,black
Trial,flow.Sequence,2_10_0,2022-07-04T16:44:49.912Z,,,1,A,2155.067000000039,completion,,,1445459.7999999998,1445457.5,1443285.756,1443299.0999999996,1443302.433,1445470.569,,black
Frame,canvas.Frame,2_10,2022-07-04T16:44:49.913Z,,,1,A,2157.567000000039,,,,1445460.1999999993,1445460,1443285.756,1443298.1999999993,1443302.433,1445470.569,,black
Fixation,canvas.Screen,2_11_0_0,2022-07-04T16:44:52.327Z,,,0,V,2418.1670000001322,timeout,,,1447874.1999999993,1447872.059,1445453.892,1445461.2999999998,1445470.569,1447888.736,,grey
Stimulus,canvas.Screen,2_11_0_1,2022-07-04T16:44:52.426Z,,,0,V,100.14699999988079,timeout,,,1447973.7999999998,1447972.206,1447872.059,1447874.3999999994,1447888.736,1447988.883,,grey
Reaction,canvas.Screen,2_11_0_2,2022-07-04T16:44:52.795Z,,,0,V,351.5169999995269,response,stim_detected,mousedown,1448342.3999999994,1448340.3999999994,1447972.206,1447974,1447988.883,1448355.816,,grey
Trial,flow.Sequence,2_11_0,2022-07-04T16:44:52.795Z,,,0,V,2869.83099999954,completion,,,1448342.6999999993,1448340.3999999994,1445453.892,1445461.1999999993,1445470.569,1448355.816,,grey
Frame,canvas.Frame,2_11,2022-07-04T16:44:52.796Z,,,0,V,2872.33099999954,,,,1448343,1448342.8999999994,1445453.892,1445460.3999999994,1445470.569,1448355.816,,grey
Fixation,canvas.Screen,2_12_0_0,2022-07-04T16:44:55.044Z,,,1,A,2251.716999999946,timeout,,,1450591.7999999998,1450590.854,1448339.139,1448344.1999999993,1448355.816,1450607.533,,black
Stimulus,canvas.Screen,2_12_0_1,2022-07-04T16:44:55.144Z,,,1,A,99.83400000003166,timeout,,,1450691.7999999998,1450690.69,1450590.854,1450592,1450607.533,1450707.367,,black
Reaction,canvas.Screen,2_12_0_2,2022-07-04T16:44:55.433Z,,,1,A,271.1329999999143,response,stim_detected,mousedown,1450980.0999999996,1450978.5,1450690.69,1450692,1450707.367,1450990.914,,black
Trial,flow.Sequence,2_12_0,2022-07-04T16:44:55.433Z,,,1,A,2622.683999999892,completion,,,1450980.5,1450978.5,1448339.139,1448344.1999999993,1448355.816,1450990.914,,black
Frame,canvas.Frame,2_12,2022-07-04T16:44:55.433Z,,,1,A,2624.7839999995194,,,,1450980.7999999998,1450980.5999999996,1448339.139,1448343.1999999993,1448355.816,1450990.914,,black
Fixation,canvas.Screen,2_13_0_0,2022-07-04T16:44:57.562Z,,,1,AV,2134.812999999849,timeout,,,1453109.8999999994,1453109.049,1450974.237,1450982,1450990.914,1453125.727,,grey
Stimulus,canvas.Screen,2_13_0_1,2022-07-04T16:44:57.662Z,,,1,AV,99.98600000003353,timeout,,,1453209.8999999994,1453209.036,1453109.049,1453110.1999999993,1453125.727,1453225.713,,grey
Reaction,canvas.Screen,2_13_0_2,2022-07-04T16:44:57.881Z,,,1,AV,200.88699999963865,response,stim_detected,mousedown,1453428.2999999998,1453426.5999999996,1453209.036,1453210.2999999998,1453225.713,1453442.555,,grey
Trial,flow.Sequence,2_13_0,2022-07-04T16:44:57.881Z,,,1,AV,2435.6859999995213,completion,,,1453428.6999999993,1453426.5999999996,1450974.237,1450981.8999999994,1450990.914,1453442.555,,grey
Frame,canvas.Frame,2_13,2022-07-04T16:44:57.882Z,,,1,AV,2437.8859999997076,,,,1453429.0999999996,1453428.7999999998,1450974.237,1450981,1450990.914,1453442.555,,grey
Fixation,canvas.Screen,2_14_0_0,2022-07-04T16:44:59.481Z,,,1,A,1601.1190000001807,timeout,,,1455028,1455026.996,1453425.878,1453430.1999999993,1453442.555,1455043.674,,black
Stimulus,canvas.Screen,2_14_0_1,2022-07-04T16:44:59.581Z,,,1,A,100.03099999995902,timeout,,,1455128,1455126.953,1455026.996,1455028.1999999993,1455043.674,1455143.705,,black
Reaction,canvas.Screen,2_14_0_2,2022-07-04T16:44:59.838Z,,,1,A,239.6949999993667,response,stim_detected,mousedown,1455385.3999999994,1455383.3999999994,1455126.953,1455128.1999999993,1455143.705,1455410.537,,black
Trial,flow.Sequence,2_14_0,2022-07-04T16:44:59.838Z,,,1,A,1940.8449999995064,completion,,,1455385.7999999998,1455383.3999999994,1453425.878,1453430.0999999996,1453442.555,1455410.537,,black
Frame,canvas.Frame,2_14,2022-07-04T16:44:59.839Z,,,1,A,1943.3449999995064,,,,1455386.0999999996,1455385.8999999994,1453425.878,1453429.2999999998,1453442.555,1455410.537,,black
Fixation,canvas.Screen,2_15_0_0,2022-07-04T16:45:01.598Z,,,1,A,1750.5979999999981,timeout,,,1457145.5,1457144.462,1455377.183,1455387.3999999994,1455410.537,1457161.135,,black
Stimulus,canvas.Screen,2_15_0_1,2022-07-04T16:45:01.699Z,,,1,A,100.63199999998324,timeout,,,1457246,1457245.09,1457144.462,1457145.7999999998,1457161.135,1457261.767,,black
Reaction,canvas.Screen,2_15_0_2,2022-07-04T16:45:01.925Z,,,1,A,208.63299999944866,response,stim_detected,mousedown,1457472.1999999993,1457470.3999999994,1457245.09,1457246.2999999998,1457261.767,1457478.576,,black
Trial,flow.Sequence,2_15_0,2022-07-04T16:45:01.925Z,,,1,A,2059.86299999943,completion,,,1457472.5999999996,1457470.3999999994,1455377.183,1455387.2999999998,1455410.537,1457478.576,,black
Frame,canvas.Frame,2_15,2022-07-04T16:45:01.925Z,,,1,A,2062.1629999992438,,,,1457472.8999999994,1457472.6999999993,1455377.183,1455386.2999999998,1455410.537,1457478.576,,black
Fixation,canvas.Screen,2_16_0_0,2022-07-04T16:45:04.217Z,,,0,V,2301.123000000138,timeout,,,1459764.5999999996,1459763.024,1457461.899,1457474.1999999993,1457478.576,1459779.699,,grey
Stimulus,canvas.Screen,2_16_0_1,2022-07-04T16:45:04.317Z,,,0,V,100.52600000007078,timeout,,,1459864.5,1459863.547,1459763.024,1459764.8999999994,1459779.699,1459880.225,,grey
Reaction,canvas.Screen,2_16_0_2,2022-07-04T16:45:04.625Z,,,0,V,290.1749999993481,response,stim_detected,mousedown,1460172.0999999996,1460170.3999999994,1459863.547,1459864.7999999998,1459880.225,1460180.399,,grey
Trial,flow.Sequence,2_16_0,2022-07-04T16:45:04.625Z,,,0,V,2691.8239999995567,completion,,,1460172.5,1460170.3999999994,1457461.899,1457474,1457478.576,1460180.399,,grey
Frame,canvas.Frame,2_16,2022-07-04T16:45:04.625Z,,,0,V,2694.023999999743,,,,1460172.7999999998,1460172.5999999996,1457461.899,1457473.0999999996,1457478.576,1460180.399,,grey
Fixation,canvas.Screen,2_17_0_0,2022-07-04T16:45:06.936Z,,,0,V,2317.9539999999106,timeout,,,1462483.3999999994,1462481.677,1460163.722,1460173.8999999994,1460180.399,1462498.353,,grey
Stimulus,canvas.Screen,2_17_0_1,2022-07-04T16:45:07.036Z,,,0,V,100.39000000013039,timeout,,,1462583.2999999998,1462582.065,1462481.677,1462483.5,1462498.353,1462598.743,,grey
Reaction,canvas.Screen,2_17_0_2,2022-07-04T16:45:07.339Z,,,0,V,285.556999999797,response,stim_detected,mousedown,1462886.0999999996,1462884.2999999998,1462582.065,1462583.6999999993,1462598.743,1462898.839,,grey
Trial,flow.Sequence,2_17_0,2022-07-04T16:45:07.339Z,,,0,V,2703.900999999838,completion,,,1462886.5999999996,1462884.2999999998,1460163.722,1460173.8999999994,1460180.399,1462898.839,,grey
Frame,canvas.Frame,2_17,2022-07-04T16:45:07.339Z,,,0,V,2706.300999999279,,,,1462886.8999999994,1462886.6999999993,1460163.722,1460173,1460180.399,1462898.839,,grey
Fixation,canvas.Screen,2_18_0_0,2022-07-04T16:45:09.421Z,,,0,V,2085.467000000179,timeout,,,1464968.5,1464967.623,1462882.162,1462888.0999999996,1462898.839,1464984.306,,grey
Stimulus,canvas.Screen,2_18_0_1,2022-07-04T16:45:09.521Z,,,0,V,99.3269999998156,timeout,,,1465068.5,1465066.956,1464967.623,1464968.6999999993,1464984.306,1465083.633,,grey
Reaction,canvas.Screen,2_18_0_2,2022-07-04T16:45:09.782Z,,,0,V,243.7669999995269,response,stim_detected,mousedown,1465329,1465327.3999999994,1465066.956,1465068.6999999993,1465083.633,1465333.833,,grey
Trial,flow.Sequence,2_18_0,2022-07-04T16:45:09.782Z,,,0,V,2428.5609999995213,completion,,,1465329.5,1465327.3999999994,1462882.162,1462888,1462898.839,1465333.833,,grey
Frame,canvas.Frame,2_18,2022-07-04T16:45:09.782Z,,,0,V,2430.7609999997076,,,,1465329.8999999994,1465329.5999999996,1462882.162,1462887,1462898.839,1465333.833,,grey
Fixation,canvas.Screen,2_19_0_0,2022-07-04T16:45:11.489Z,,,1,AV,1718.060999999987,timeout,,,1467036.6999999993,1467035.214,1465317.156,1465331,1465333.833,1467051.894,,grey
Stimulus,canvas.Screen,2_19_0_1,2022-07-04T16:45:11.588Z,,,1,AV,99.44499999983236,timeout,,,1467135.5999999996,1467134.665,1467035.214,1467036.8999999994,1467051.894,1467151.339,,grey
Reaction,canvas.Screen,2_19_0_2,2022-07-04T16:45:11.810Z,,,1,AV,203.96099999989383,response,stim_detected,mousedown,1467357.0999999996,1467355.2999999998,1467134.665,1467135.7999999998,1467151.339,1467368.537,,grey
Trial,flow.Sequence,2_19_0,2022-07-04T16:45:11.810Z,,,1,AV,2021.4669999997132,completion,,,1467357.3999999994,1467355.2999999998,1465317.156,1465330.8999999994,1465333.833,1467368.537,,grey
Frame,canvas.Frame,2_19,2022-07-04T16:45:11.810Z,,,1,AV,2023.6669999998994,,,,1467357.7999999998,1467357.5,1465317.156,1465330,1465333.833,1467368.537,,grey
Fixation,canvas.Screen,2_20_0_0,2022-07-04T16:45:13.390Z,,,1,AV,1584.4220000000205,timeout,,,1468937.6999999993,1468936.281,1467351.86,1467359,1467368.537,1468952.959,,grey
Stimulus,canvas.Screen,2_20_0_1,2022-07-04T16:45:13.490Z,,,1,AV,99.92399999988265,timeout,,,1469037.6999999993,1469036.207,1468936.281,1468937.7999999998,1468952.959,1469052.883,,grey
Reaction,canvas.Screen,2_20_0_2,2022-07-04T16:45:13.678Z,,,1,AV,170.41699999989942,response,stim_detected,mousedown,1469225.2999999998,1469223.2999999998,1469036.207,1469037.8999999994,1469052.883,1469236.436,,grey
Trial,flow.Sequence,2_20_0,2022-07-04T16:45:13.678Z,,,1,AV,1854.7629999998026,completion,,,1469225.6999999993,1469223.2999999998,1467351.86,1467358.7999999998,1467368.537,1469236.436,,grey
Frame,canvas.Frame,2_20,2022-07-04T16:45:13.679Z,,,1,AV,1857.36299999943,,,,1469226,1469225.8999999994,1467351.86,1467358,1467368.537,1469236.436,,grey
Fixation,canvas.Screen,2_21_0_0,2022-07-04T16:45:15.775Z,,,1,A,2102.1480000000447,timeout,,,1471322.7999999998,1471321.901,1469219.759,1469227.1999999993,1469236.436,1471338.584,,black
Stimulus,canvas.Screen,2_21_0_1,2022-07-04T16:45:15.875Z,,,1,A,99.26000000000931,timeout,,,1471422.6999999993,1471421.167,1471321.901,1471323.0999999996,1471338.584,1471437.844,,black
Reaction,canvas.Screen,2_21_0_2,2022-07-04T16:45:16.103Z,,,1,A,210.45599999977276,response,stim_detected,mousedown,1471650.0999999996,1471648.2999999998,1471421.167,1471423,1471437.844,1471654.723,,black
Trial,flow.Sequence,2_21_0,2022-07-04T16:45:16.103Z,,,1,A,2411.863999999827,completion,,,1471650.5,1471648.2999999998,1469219.759,1469227.0999999996,1469236.436,1471654.723,,black
Frame,canvas.Frame,2_21,2022-07-04T16:45:16.104Z,,,1,A,2414.263999999268,,,,1471651,1471650.6999999993,1469219.759,1469226.1999999993,1469236.436,1471654.723,,black
Fixation,canvas.Screen,2_22_0_0,2022-07-04T16:45:18.377Z,,,0,V,2284.4459999999963,timeout,,,1473924.3999999994,1473922.494,1471638.046,1471652.1999999993,1471654.723,1473939.169,,grey
Stimulus,canvas.Screen,2_22_0_1,2022-07-04T16:45:18.477Z,,,0,V,100.43699999991804,timeout,,,1474023.8999999994,1474022.929,1473922.494,1473924.7999999998,1473939.169,1474039.606,,grey
Reaction,canvas.Screen,2_22_0_2,2022-07-04T16:45:18.757Z,,,0,V,262.6939999999013,response,stim_detected,mousedown,1474304,1474302.2999999998,1474022.929,1474024.3999999994,1474039.606,1474306.497,,grey
Trial,flow.Sequence,2_22_0,2022-07-04T16:45:18.757Z,,,0,V,2647.5769999998156,completion,,,1474304.5,1474302.2999999998,1471638.046,1471652.0999999996,1471654.723,1474306.497,,grey
Frame,canvas.Frame,2_22,2022-07-04T16:45:18.757Z,,,0,V,2649.777000000002,,,,1474304.7999999998,1474304.5,1471638.046,1471651.1999999993,1471654.723,1474306.497,,grey
Fixation,canvas.Screen,2_23_0_0,2022-07-04T16:45:21.079Z,,,0,V,2334.625,timeout,,,1476626,1476624.446,1474289.82,1474306.0999999996,1474306.497,1476641.122,,grey
Stimulus,canvas.Screen,2_23_0_1,2022-07-04T16:45:21.179Z,,,0,V,100.36300000012852,timeout,,,1476726,1476724.808,1476624.446,1476626.3999999994,1476641.122,1476741.485,,grey
Reaction,canvas.Screen,2_23_0_2,2022-07-04T16:45:21.471Z,,,0,V,274.7149999991525,response,stim_detected,mousedown,1477018,1477016.1999999993,1476724.808,1476726.2999999998,1476741.485,1477024.969,,grey
Trial,flow.Sequence,2_23_0,2022-07-04T16:45:21.471Z,,,0,V,2709.702999999281,completion,,,1477018.3999999994,1477016.1999999993,1474289.82,1474306,1474306.497,1477024.969,,grey
Frame,canvas.Frame,2_23,2022-07-04T16:45:21.471Z,,,0,V,2712.202999999281,,,,1477018.8999999994,1477018.6999999993,1474289.82,1474304.8999999994,1474306.497,1477024.969,,grey
Fixation,canvas.Screen,2_24_0_0,2022-07-04T16:45:23.097Z,,,1,AV,1634.9930000000168,timeout,,,1478644.0999999996,1478643.279,1477008.292,1477020.0999999996,1477024.969,1478659.962,,grey
Stimulus,canvas.Screen,2_24_0_1,2022-07-04T16:45:23.197Z,,,1,AV,99.30400000000373,timeout,,,1478744.0999999996,1478742.591,1478643.279,1478644.3999999994,1478659.962,1478759.266,,grey
Reaction,canvas.Screen,2_24_0_2,2022-07-04T16:45:23.408Z,,,1,AV,193.93399999919347,response,stim_detected,mousedown,1478955.1999999993,1478953.1999999993,1478742.591,1478744.3999999994,1478759.266,1478959.617,,grey
Trial,flow.Sequence,2_24_0,2022-07-04T16:45:23.408Z,,,1,AV,1928.230999999214,completion,,,1478955.5999999996,1478953.1999999993,1477008.292,1477020,1477024.969,1478959.617,,grey
Frame,canvas.Frame,2_24,2022-07-04T16:45:23.409Z,,,1,AV,1930.8309999997728,,,,1478955.8999999994,1478955.7999999998,1477008.292,1477019.1999999993,1477024.969,1478959.617,,grey
Fixation,canvas.Screen,2_25_0_0,2022-07-04T16:45:25.882Z,,,1,A,2485.3649999999907,timeout,,,1481429.3999999994,1481428.302,1478942.94,1478957.2999999998,1478959.617,1481444.982,,black
Stimulus,canvas.Screen,2_25_0_1,2022-07-04T16:45:25.981Z,,,1,A,98.76699999999255,timeout,,,1481528.3999999994,1481527.077,1481428.302,1481429.6999999993,1481444.982,1481543.749,,black
Reaction,canvas.Screen,2_25_0_2,2022-07-04T16:45:26.225Z,,,1,A,227.45099999918602,response,stim_detected,mousedown,1481772.8999999994,1481771.1999999993,1481527.077,1481528.6999999993,1481543.749,1481778.133,,black
Trial,flow.Sequence,2_25_0,2022-07-04T16:45:26.226Z,,,1,A,2811.5829999991693,completion,,,1481773.2999999998,1481771.1999999993,1478942.94,1478957.1999999993,1478959.617,1481778.133,,black
Frame,canvas.Frame,2_25,2022-07-04T16:45:26.226Z,,,1,A,2813.7829999993555,,,,1481773.5999999996,1481773.3999999994,1478942.94,1478956.1999999993,1478959.617,1481778.133,,black
Fixation,canvas.Screen,2_26_0_0,2022-07-04T16:45:28.518Z,,,1,A,2301.907000000123,timeout,,,1484065.2999999998,1484063.36,1481761.456,1481774.8999999994,1481778.133,1484080.04,,black
Stimulus,canvas.Screen,2_26_0_1,2022-07-04T16:45:28.617Z,,,1,A,99.67800000007264,timeout,,,1484164.3999999994,1484163.041,1484063.36,1484065.5,1484080.04,1484179.718,,black
Reaction,canvas.Screen,2_26_0_2,2022-07-04T16:45:28.860Z,,,1,A,225.58199999970384,response,stim_detected,mousedown,1484407,1484405.2999999998,1484163.041,1484164.7999999998,1484179.718,1484413.244,,black
Trial,flow.Sequence,2_26_0,2022-07-04T16:45:28.860Z,,,1,A,2627.1669999998994,completion,,,1484407.3999999994,1484405.2999999998,1481761.456,1481774.7999999998,1481778.133,1484413.244,,black
Frame,canvas.Frame,2_26,2022-07-04T16:45:28.860Z,,,1,A,2629.3670000000857,,,,1484407.8999999994,1484407.5,1481761.456,1481773.7999999998,1481778.133,1484413.244,,black
Fixation,canvas.Screen,2_27_0_0,2022-07-04T16:45:30.685Z,,,1,AV,1834.9930000000168,timeout,,,1486232.3999999994,1486231.556,1484396.567,1484409,1484413.244,1486248.237,,grey
Stimulus,canvas.Screen,2_27_0_1,2022-07-04T16:45:30.785Z,,,1,AV,99.57199999992736,timeout,,,1486332.5,1486331.132,1486231.556,1486232.6999999993,1486248.237,1486347.809,,grey
Reaction,canvas.Screen,2_27_0_2,2022-07-04T16:45:30.964Z,,,1,AV,162.2909999997355,response,stim_detected,mousedown,1486511.8999999994,1486510.0999999996,1486331.132,1486332.7999999998,1486347.809,1486514.659,,grey
Trial,flow.Sequence,2_27_0,2022-07-04T16:45:30.965Z,,,1,AV,2096.8559999996796,completion,,,1486512.3999999994,1486510.0999999996,1484396.567,1484408.8999999994,1484413.244,1486514.659,,grey
Frame,canvas.Frame,2_27,2022-07-04T16:45:30.965Z,,,1,AV,2099.3559999996796,,,,1486512.6999999993,1486512.5999999996,1484396.567,1484408,1484413.244,1486514.659,,grey
Fixation,canvas.Screen,2_28_0_0,2022-07-04T16:45:32.936Z,,,0,V,1984.3030000000726,timeout,,,1488483.5999999996,1488482.287,1486497.982,1486513.8999999994,1486514.659,1488498.962,,grey
Stimulus,canvas.Screen,2_28_0_1,2022-07-04T16:45:33.036Z,,,0,V,100.5,timeout,,,1488583.5999999996,1488582.784,1488482.287,1488483.8999999994,1488498.962,1488599.462,,grey
Reaction,canvas.Screen,2_28_0_2,2022-07-04T16:45:33.338Z,,,0,V,283.63799999956973,response,stim_detected,mousedown,1488885.5999999996,1488883.0999999996,1488582.784,1488583.7999999998,1488599.462,1488899.596,,grey
Trial,flow.Sequence,2_28_0,2022-07-04T16:45:33.339Z,,,0,V,2368.4409999996424,completion,,,1488886.0999999996,1488883.0999999996,1486497.982,1486513.7999999998,1486514.659,1488899.596,,grey
Frame,canvas.Frame,2_28,2022-07-04T16:45:33.339Z,,,0,V,2371.54099999927,,,,1488886.2999999998,1488886.1999999993,1486497.982,1486513,1486514.659,1488899.596,,grey
Fixation,canvas.Screen,2_29_0_0,2022-07-04T16:45:34.888Z,,,1,AV,1551.1380000000354,timeout,,,1490435.7999999998,1490434.055,1488882.919,1488887.3999999994,1488899.596,1490450.734,,grey
Stimulus,canvas.Screen,2_29_0_1,2022-07-04T16:45:34.988Z,,,1,AV,99.79900000011548,timeout,,,1490535,1490533.857,1490434.055,1490436,1490450.734,1490550.533,,grey
Reaction,canvas.Screen,2_29_0_2,2022-07-04T16:45:35.182Z,,,1,AV,177.66699999920093,response,stim_detected,mousedown,1490729.6999999993,1490728.1999999993,1490533.857,1490535.1999999993,1490550.533,1490734.158,,grey
Trial,flow.Sequence,2_29_0,2022-07-04T16:45:35.183Z,,,1,AV,1828.6039999993518,completion,,,1490730.1999999993,1490728.1999999993,1488882.919,1488887.2999999998,1488899.596,1490734.158,,grey
Frame,canvas.Frame,2_29,2022-07-04T16:45:35.183Z,,,1,AV,1830.7039999999106,,,,1490730.3999999994,1490730.2999999998,1488882.919,1488886.5,1488899.596,1490734.158,,grey
Fixation,canvas.Screen,2_30_0_0,2022-07-04T16:45:37.339Z,,,0,V,2168.440999999875,timeout,,,1492886.7999999998,1492885.919,1490717.481,1490731.5999999996,1490734.158,1492902.599,,grey
Stimulus,canvas.Screen,2_30_0_1,2022-07-04T16:45:37.439Z,,,0,V,99.77700000000186,timeout,,,1492986.7999999998,1492985.699,1492885.919,1492887.0999999996,1492902.599,1493002.376,,grey
Reaction,canvas.Screen,2_30_0_2,2022-07-04T16:45:38.103Z,,,0,V,646.6240000000689,response,stim_detected,mousedown,1493650.6999999993,1493649,1492985.699,1492987,1493002.376,1493669.391,,grey
Trial,flow.Sequence,2_30_0,2022-07-04T16:45:38.104Z,,,0,V,2914.841999999946,completion,,,1493651.1999999993,1493649,1490717.481,1490731.5,1490734.158,1493669.391,,grey
Frame,canvas.Frame,2_30,2022-07-04T16:45:38.104Z,,,0,V,2917.1419999997597,,,,1493651.5,1493651.2999999998,1490717.481,1490730.6999999993,1490734.158,1493669.391,,grey
Fixation,canvas.Screen,2_31_0_0,2022-07-04T16:45:40.060Z,,,1,A,1953.0239999999758,timeout,,,1495607,1495605.723,1493636.037,1493652.5999999996,1493669.391,1495622.415,,black
Stimulus,canvas.Screen,2_31_0_1,2022-07-04T16:45:40.158Z,,,1,A,98.19999999995343,timeout,,,1495705.2999999998,1495703.939,1495605.723,1495607.1999999993,1495622.415,1495720.615,,black
Reaction,canvas.Screen,2_31_0_2,2022-07-04T16:45:40.386Z,,,1,A,211.48499999963678,response,stim_detected,mousedown,1495933.6999999993,1495932.0999999996,1495703.939,1495705.6999999993,1495720.615,1495937.625,,black
Trial,flow.Sequence,2_31_0,2022-07-04T16:45:40.387Z,,,1,A,2262.708999999566,completion,,,1495934.0999999996,1495932.0999999996,1493636.037,1493652.5,1493669.391,1495937.625,,black
Frame,canvas.Frame,2_31,2022-07-04T16:45:40.387Z,,,1,A,2264.9089999997523,,,,1495934.5,1495934.2999999998,1493636.037,1493651.6999999993,1493669.391,1495937.625,,black
Fixation,canvas.Screen,2_32_0_0,2022-07-04T16:45:42.393Z,,,1,A,2018.34300000011,timeout,,,1497940.0999999996,1497939.288,1495920.948,1495935.5999999996,1495937.625,1497955.968,,black
Stimulus,canvas.Screen,2_32_0_1,2022-07-04T16:45:42.493Z,,,1,A,99.54199999989942,timeout,,,1498040,1498038.834,1497939.288,1497940.2999999998,1497955.968,1498055.51,,black
Reaction,canvas.Screen,2_32_0_2,2022-07-04T16:45:42.780Z,,,1,A,270.58999999961816,response,stim_detected,mousedown,1498327.6999999993,1498326.0999999996,1498038.834,1498040.2999999998,1498055.51,1498339.231,,black
Trial,flow.Sequence,2_32_0,2022-07-04T16:45:42.781Z,,,1,A,2388.4749999996275,completion,,,1498328.0999999996,1498326.0999999996,1495920.948,1495935.5999999996,1495937.625,1498339.231,,black
Frame,canvas.Frame,2_32,2022-07-04T16:45:42.781Z,,,1,A,2390.6749999998137,,,,1498328.3999999994,1498328.2999999998,1495920.948,1495934.6999999993,1495937.625,1498339.231,,black
Fixation,canvas.Screen,2_33_0_0,2022-07-04T16:45:44.844Z,,,0,V,2067.817000000039,timeout,,,1500391.5999999996,1500390.372,1498322.554,1498329.5999999996,1498339.231,1500407.048,,grey
Stimulus,canvas.Screen,2_33_0_1,2022-07-04T16:45:44.945Z,,,0,V,100.20400000014342,timeout,,,1500492.5999999996,1500490.575,1500390.372,1500391.7999999998,1500407.048,1500507.252,,grey
Reaction,canvas.Screen,2_33_0_2,2022-07-04T16:45:45.287Z,,,0,V,325.747999999905,response,stim_detected,mousedown,1500834.5999999996,1500833,1500490.575,1500492.8999999994,1500507.252,1500857.57,,grey
Trial,flow.Sequence,2_33_0,2022-07-04T16:45:45.288Z,,,0,V,2493.7690000000875,completion,,,1500835.0999999996,1500833,1498322.554,1498329.5,1498339.231,1500857.57,,grey
Frame,canvas.Frame,2_33,2022-07-04T16:45:45.288Z,,,0,V,2495.9689999993425,,,,1500835.3999999994,1500835.1999999993,1498322.554,1498328.5999999996,1498339.231,1500857.57,,grey
Fixation,canvas.Screen,2_34_0_0,2022-07-04T16:45:46.929Z,,,1,AV,1634.2299999999814,timeout,,,1502476.1999999993,1502475.124,1500840.893,1500836.3999999994,1500857.57,1502491.8,,grey
Stimulus,canvas.Screen,2_34_0_1,2022-07-04T16:45:47.029Z,,,1,AV,100.32799999997951,timeout,,,1502576.2999999998,1502575.45,1502475.124,1502476.5,1502491.8,1502592.128,,grey
Reaction,canvas.Screen,2_34_0_2,2022-07-04T16:45:47.232Z,,,1,AV,185.87199999997392,response,stim_detected,mousedown,1502779.5,1502778,1502575.45,1502576.5,1502592.128,1502792.222,,grey
Trial,flow.Sequence,2_34_0,2022-07-04T16:45:47.233Z,,,1,AV,1920.4299999999348,completion,,,1502780,1502778,1500840.893,1500836.3999999994,1500857.57,1502792.222,,grey
Frame,canvas.Frame,2_34,2022-07-04T16:45:47.233Z,,,1,AV,1922.5299999995623,,,,1502780.2999999998,1502780.0999999996,1500840.893,1500835.6999999993,1500857.57,1502792.222,,grey
Fixation,canvas.Screen,2_35_0_0,2022-07-04T16:45:48.780Z,,,1,AV,1550.530999999959,timeout,,,1504327.3999999994,1504326.08,1502775.545,1502781.2999999998,1502792.222,1504342.753,,grey
Stimulus,canvas.Screen,2_35_0_1,2022-07-04T16:45:48.881Z,,,1,AV,100.65100000007078,timeout,,,1504428.2999999998,1504426.726,1504326.08,1504327.5999999996,1504342.753,1504443.404,,grey
Reaction,canvas.Screen,2_35_0_2,2022-07-04T16:45:49.095Z,,,1,AV,197.49599999934435,response,stim_detected,mousedown,1504642.5999999996,1504640.8999999994,1504426.726,1504428.6999999993,1504443.404,1504660.148,,grey
Trial,flow.Sequence,2_35_0,2022-07-04T16:45:49.096Z,,,1,AV,1848.6779999993742,completion,,,1504643,1504640.8999999994,1502775.545,1502781.1999999993,1502792.222,1504660.148,,grey
Frame,canvas.Frame,2_35,2022-07-04T16:45:49.096Z,,,1,AV,1850.8779999995604,,,,1504643.2999999998,1504643.0999999996,1502775.545,1502780.5,1502792.222,1504660.148,,grey
Fixation,canvas.Screen,2_36_0_0,2022-07-04T16:45:51.098Z,,,1,A,2000.847000000067,timeout,,,1506645.3999999994,1506644.321,1504643.471,1504644.8999999994,1504660.148,1506660.995,,black
Stimulus,canvas.Screen,2_36_0_1,2022-07-04T16:45:51.199Z,,,1,A,100.51499999989755,timeout,,,1506746.3999999994,1506744.833,1506644.321,1506645.6999999993,1506660.995,1506761.51,,black
Reaction,canvas.Screen,2_36_0_2,2022-07-04T16:45:51.391Z,,,1,A,175.3899999994319,response,stim_detected,mousedown,1506938.5999999996,1506936.8999999994,1506744.833,1506746.6999999993,1506761.51,1506961.669,,black
Trial,flow.Sequence,2_36_0,2022-07-04T16:45:51.392Z,,,1,A,2276.7519999993965,completion,,,1506939,1506936.8999999994,1504643.471,1504644.6999999993,1504660.148,1506961.669,,black
Frame,canvas.Frame,2_36,2022-07-04T16:45:51.392Z,,,1,A,2279.0519999992102,,,,1506939.3999999994,1506939.1999999993,1504643.471,1504643.5,1504660.148,1506961.669,,black
Fixation,canvas.Screen,2_37_0_0,2022-07-04T16:45:53.350Z,,,1,A,1951.3170000000391,timeout,,,1508897.5999999996,1508896.308,1506928.315,1506940.5999999996,1506961.669,1508912.986,,black
Stimulus,canvas.Screen,2_37_0_1,2022-07-04T16:45:53.450Z,,,1,A,99.62699999986216,timeout,,,1508997.6999999993,1508995.939,1508896.308,1508897.8999999994,1508912.986,1509012.613,,black
Reaction,canvas.Screen,2_37_0_2,2022-07-04T16:45:53.687Z,,,1,A,219.78699999954551,response,stim_detected,mousedown,1509234.1999999993,1509232.3999999994,1508995.939,1508997.8999999994,1509012.613,1509246.537,,black
Trial,flow.Sequence,2_37_0,2022-07-04T16:45:53.687Z,,,1,A,2270.730999999447,completion,,,1509234.5,1509232.3999999994,1506928.315,1506940.5,1506961.669,1509246.537,,black
Frame,canvas.Frame,2_37,2022-07-04T16:45:53.687Z,,,1,A,2273.0309999992605,,,,1509234.7999999998,1509234.6999999993,1506928.315,1506939.5999999996,1506961.669,1509246.537,,black
Fixation,canvas.Screen,2_38_0_0,2022-07-04T16:45:55.268Z,,,1,AV,1583.530999999959,timeout,,,1510815,1510813.398,1509229.86,1509236.0999999996,1509246.537,1510830.068,,grey
Stimulus,canvas.Screen,2_38_0_1,2022-07-04T16:45:55.368Z,,,1,AV,100.9660000000149,timeout,,,1510915.5999999996,1510914.355,1510813.398,1510815.2999999998,1510830.068,1510931.034,,grey
Reaction,canvas.Screen,2_38_0_2,2022-07-04T16:45:55.571Z,,,1,AV,185.9660000000149,response,stim_detected,mousedown,1511118.5,1511117,1510914.355,1510915.8999999994,1510931.034,1511131.091,,grey
Trial,flow.Sequence,2_38_0,2022-07-04T16:45:55.572Z,,,1,AV,1870.4629999999888,completion,,,1511119,1511117,1509229.86,1509235.8999999994,1509246.537,1511131.091,,grey
Frame,canvas.Frame,2_38,2022-07-04T16:45:55.572Z,,,1,AV,1872.6629999992438,,,,1511119.2999999998,1511119.1999999993,1509229.86,1509235.0999999996,1509246.537,1511131.091,,grey
Fixation,canvas.Screen,2_39_0_0,2022-07-04T16:45:57.353Z,,,1,AV,1785.5679999999702,timeout,,,1512900.5999999996,1512899.972,1511114.414,1511120.3999999994,1511131.091,1512916.659,,grey
Stimulus,canvas.Screen,2_39_0_1,2022-07-04T16:45:57.453Z,,,1,AV,98.85899999993853,timeout,,,1512999.8999999994,1512998.842,1512899.972,1512900.8999999994,1512916.659,1513015.518,,grey
Reaction,canvas.Screen,2_39_0_2,2022-07-04T16:45:57.733Z,,,1,AV,263.3819999995176,response,stim_detected,mousedown,1513280.5999999996,1513278.8999999994,1512998.842,1513000.0999999996,1513015.518,1513296.154,,grey
Trial,flow.Sequence,2_39_0,2022-07-04T16:45:57.734Z,,,1,AV,2147.8089999994263,completion,,,1513281,1513278.8999999994,1511114.414,1511120.3999999994,1511131.091,1513296.154,,grey
Frame,canvas.Frame,2_39,2022-07-04T16:45:57.734Z,,,1,AV,2150.10899999924,,,,1513281.2999999998,1513281.1999999993,1511114.414,1511119.5,1511131.091,1513296.154,,grey
Fixation,canvas.Screen,2_40_0_0,2022-07-04T16:45:59.504Z,,,0,V,1770.9859999998007,timeout,,,1515051.7999999998,1515050.462,1513279.631,1513282.5,1513296.154,1515067.14,,grey
Stimulus,canvas.Screen,2_40_0_1,2022-07-04T16:45:59.604Z,,,0,V,99.93800000008196,timeout,,,1515151.8999999994,1515150.401,1515050.462,1515052.1999999993,1515067.14,1515167.078,,grey
Reaction,canvas.Screen,2_40_0_2,2022-07-04T16:45:59.943Z,,,0,V,321.7219999998342,response,stim_detected,mousedown,1515490.5999999996,1515488.7999999998,1515150.401,1515152,1515167.078,1515500.676,,grey
Trial,flow.Sequence,2_40_0,2022-07-04T16:45:59.944Z,,,0,V,2192.645999999717,completion,,,1515491.0999999996,1515488.7999999998,1513279.631,1513282.3999999994,1513296.154,1515500.676,,grey
Frame,canvas.Frame,2_40,2022-07-04T16:45:59.944Z,,,0,V,2195.045999999158,,,,1515491.3999999994,1515491.1999999993,1513279.631,1513281.5,1513296.154,1515500.676,,grey
Fixation,canvas.Screen,2_41_0_0,2022-07-04T16:46:01.923Z,,,0,V,1985.6720000000205,timeout,,,1517470.8999999994,1517469.662,1515483.999,1515492.5999999996,1515500.676,1517486.348,,grey
Stimulus,canvas.Screen,2_41_0_1,2022-07-04T16:46:02.023Z,,,0,V,99.08599999989383,timeout,,,1517569.8999999994,1517568.757,1517469.662,1517471.0999999996,1517486.348,1517585.434,,grey
Reaction,canvas.Screen,2_41_0_2,2022-07-04T16:46:02.234Z,,,0,V,194.46599999954924,response,stim_detected,mousedown,1517781.5999999996,1517779.8999999994,1517568.757,1517570.2999999998,1517585.434,1517802.234,,grey
Trial,flow.Sequence,2_41_0,2022-07-04T16:46:02.235Z,,,0,V,2279.2239999994636,completion,,,1517782,1517779.8999999994,1515483.999,1515492.5,1515500.676,1517802.234,,grey
Frame,canvas.Frame,2_41,2022-07-04T16:46:02.235Z,,,0,V,2281.42399999965,,,,1517782.2999999998,1517782.0999999996,1515483.999,1515491.5999999996,1515500.676,1517802.234,,grey
Fixation,canvas.Screen,2_42_0_0,2022-07-04T16:46:04.492Z,,,0,V,2252.2099999999627,timeout,,,1520039.0999999996,1520037.761,1517768.88,1517783.3999999994,1517802.234,1520054.444,,grey
Stimulus,canvas.Screen,2_42_0_1,2022-07-04T16:46:04.590Z,,,0,V,98.52600000007078,timeout,,,1520137.0999999996,1520136.298,1520037.761,1520039.5,1520054.444,1520152.97,,grey
Reaction,canvas.Screen,2_42_0_2,2022-07-04T16:46:04.866Z,,,0,V,258.8299999998417,response,stim_detected,mousedown,1520413.7999999998,1520411.7999999998,1520136.298,1520137.2999999998,1520152.97,1520420.627,,grey
Trial,flow.Sequence,2_42_0,2022-07-04T16:46:04.867Z,,,0,V,2609.565999999875,completion,,,1520414.2999999998,1520411.7999999998,1517768.88,1517783.2999999998,1517802.234,1520420.627,,grey
Frame,canvas.Frame,2_42,2022-07-04T16:46:04.867Z,,,0,V,2612.1659999995027,,,,1520414.6999999993,1520414.3999999994,1517768.88,1517782.3999999994,1517802.234,1520420.627,,grey
Fixation,canvas.Screen,2_43_0_0,2022-07-04T16:46:06.576Z,,,0,V,1718.309999999823,timeout,,,1522123.0999999996,1522122.255,1520403.95,1520415.8999999994,1520420.627,1522138.937,,grey
Stimulus,canvas.Screen,2_43_0_1,2022-07-04T16:46:06.676Z,,,0,V,99.62300000013784,timeout,,,1522223.0999999996,1522221.883,1522122.255,1522123.2999999998,1522138.937,1522238.56,,grey
Reaction,canvas.Screen,2_43_0_2,2022-07-04T16:46:06.900Z,,,0,V,207.23999999975786,response,stim_detected,mousedown,1522447.3999999994,1522445.7999999998,1522221.883,1522223.2999999998,1522238.56,1522455.33,,grey
Trial,flow.Sequence,2_43_0,2022-07-04T16:46:06.900Z,,,0,V,2025.1729999997187,completion,,,1522447.7999999998,1522445.7999999998,1520403.95,1520415.7999999998,1520420.627,1522455.33,,grey
Frame,canvas.Frame,2_43,2022-07-04T16:46:06.901Z,,,0,V,2027.2729999993462,,,,1522448.0999999996,1522447.8999999994,1520403.95,1520414.8999999994,1520420.627,1522455.33,,grey
Fixation,canvas.Screen,2_44_0_0,2022-07-04T16:46:09.095Z,,,1,AV,2202.62099999981,timeout,,,1524642.2999999998,1524641.265,1522438.653,1522449.2999999998,1522455.33,1524657.951,,grey
Stimulus,canvas.Screen,2_44_0_1,2022-07-04T16:46:09.194Z,,,1,AV,98.98200000007637,timeout,,,1524741.2999999998,1524740.256,1524641.265,1524642.5,1524657.951,1524756.933,,grey
Reaction,canvas.Screen,2_44_0_2,2022-07-04T16:46:09.342Z,,,1,AV,130.86699999985285,response,stim_detected,mousedown,1524889.3999999994,1524887.7999999998,1524740.256,1524741.5999999996,1524756.933,1524906.987,,grey
Trial,flow.Sequence,2_44_0,2022-07-04T16:46:09.342Z,,,1,AV,2432.4699999997392,completion,,,1524889.8999999994,1524887.7999999998,1522438.653,1522449.1999999993,1522455.33,1524906.987,,grey
Frame,canvas.Frame,2_44,2022-07-04T16:46:09.343Z,,,1,AV,2434.6699999999255,,,,1524890.1999999993,1524890,1522438.653,1522448.1999999993,1522455.33,1524906.987,,grey
Fixation,canvas.Screen,2_45_0_0,2022-07-04T16:46:11.279Z,,,0,V,1934.4129999999423,timeout,,,1526826.3999999994,1526824.724,1524890.31,1524891.3999999994,1524906.987,1526841.4,,grey
Stimulus,canvas.Screen,2_45_0_1,2022-07-04T16:46:11.379Z,,,0,V,100.44599999999627,timeout,,,1526926.2999999998,1526925.167,1526824.724,1526826.5999999996,1526841.4,1526941.846,,grey
Reaction,canvas.Screen,2_45_0_2,2022-07-04T16:46:11.581Z,,,0,V,184.9539999999106,response,stim_detected,mousedown,1527128.5,1527126.7999999998,1526925.167,1526926.5999999996,1526941.846,1527141.819,,grey
Trial,flow.Sequence,2_45_0,2022-07-04T16:46:11.581Z,,,0,V,2219.812999999849,completion,,,1527128.7999999998,1527126.7999999998,1524890.31,1524891.2999999998,1524906.987,1527141.819,,grey
Frame,canvas.Frame,2_45,2022-07-04T16:46:11.582Z,,,0,V,2221.9129999994766,,,,1527129.1999999993,1527128.8999999994,1524890.31,1524890.3999999994,1524906.987,1527141.819,,grey
Fixation,canvas.Screen,2_46_0_0,2022-07-04T16:46:13.197Z,,,1,A,1618.3890000001993,timeout,,,1528744.5,1528743.524,1527125.142,1527130.1999999993,1527141.819,1528760.208,,black
Stimulus,canvas.Screen,2_46_0_1,2022-07-04T16:46:13.296Z,,,1,A,99.45299999997951,timeout,,,1528843.3999999994,1528842.683,1528743.524,1528744.7999999998,1528760.208,1528859.661,,black
Reaction,canvas.Screen,2_46_0_2,2022-07-04T16:46:13.504Z,,,1,A,190.03899999917485,response,stim_detected,mousedown,1529051.7999999998,1529049.6999999993,1528842.683,1528843.6999999993,1528859.661,1529076.462,,black
Trial,flow.Sequence,2_46_0,2022-07-04T16:46:13.505Z,,,1,A,1907.8809999993537,completion,,,1529052.0999999996,1529049.6999999993,1527125.142,1527130.1999999993,1527141.819,1529076.462,,black
Frame,canvas.Frame,2_46,2022-07-04T16:46:13.505Z,,,1,A,1910.4809999999125,,,,1529052.3999999994,1529052.2999999998,1527125.142,1527129.2999999998,1527141.819,1529076.462,,black
Fixation,canvas.Screen,2_47_0_0,2022-07-04T16:46:15.465Z,,,0,V,1951.2929999998305,timeout,,,1531012.5999999996,1531011.077,1529043.108,1529076,1529076.462,1531027.755,,grey
Stimulus,canvas.Screen,2_47_0_1,2022-07-04T16:46:15.564Z,,,0,V,99.58700000005774,timeout,,,1531111.6999999993,1531110.668,1531011.077,1531012.8999999994,1531027.755,1531127.342,,grey
Reaction,canvas.Screen,2_47_0_2,2022-07-04T16:46:15.781Z,,,0,V,199.45799999986775,response,stim_detected,mousedown,1531328.3999999994,1531326.7999999998,1531110.668,1531112,1531127.342,1531344.644,,grey
Trial,flow.Sequence,2_47_0,2022-07-04T16:46:15.781Z,,,0,V,2250.337999999756,completion,,,1531328.7999999998,1531326.7999999998,1529043.108,1529075.8999999994,1529076.462,1531344.644,,grey
Frame,canvas.Frame,2_47,2022-07-04T16:46:15.782Z,,,0,V,2252.5379999999423,,,,1531329.2999999998,1531329,1529043.108,1529052.6999999993,1529076.462,1531344.644,,grey
Fixation,canvas.Screen,2_48_0_0,2022-07-04T16:46:18.165Z,,,1,AV,2383.378999999957,timeout,,,1533712.5999999996,1533711.355,1531327.967,1531330.2999999998,1531344.644,1533728.023,,grey
Stimulus,canvas.Screen,2_48_0_1,2022-07-04T16:46:18.267Z,,,1,AV,101.53599999984726,timeout,,,1533813.6999999993,1533812.882,1533711.355,1533712.8999999994,1533728.023,1533829.559,,grey
Reaction,canvas.Screen,2_48_0_2,2022-07-04T16:46:18.404Z,,,1,AV,119.24099999992177,response,stim_detected,mousedown,1533950.5,1533948.7999999998,1533812.882,1533813.8999999994,1533829.559,1533963.064,,grey
Trial,flow.Sequence,2_48_0,2022-07-04T16:46:18.404Z,,,1,AV,2604.155999999726,completion,,,1533950.7999999998,1533948.7999999998,1531327.967,1531330.1999999993,1531344.644,1533963.064,,grey
Frame,canvas.Frame,2_48,2022-07-04T16:46:18.405Z,,,1,AV,2606.3559999999125,,,,1533951.1999999993,1533951,1531327.967,1531329.3999999994,1531344.644,1533963.064,,grey
Fixation,canvas.Screen,2_49_0_0,2022-07-04T16:46:20.402Z,,,0,V,2001.2439999999478,timeout,,,1535948.7999999998,1535947.631,1533946.387,1533952.1999999993,1533963.064,1535964.308,,grey
Stimulus,canvas.Screen,2_49_0_1,2022-07-04T16:46:20.502Z,,,0,V,99.89500000001863,timeout,,,1536048.3999999994,1536047.528,1535947.631,1535949,1535964.308,1536064.203,,grey
Reaction,canvas.Screen,2_49_0_2,2022-07-04T16:46:20.733Z,,,0,V,213.49699999927543,response,stim_detected,mousedown,1536279.2999999998,1536277.6999999993,1536047.528,1536048.5,1536064.203,1536281.258,,grey
Trial,flow.Sequence,2_49_0,2022-07-04T16:46:20.733Z,,,0,V,2314.635999999242,completion,,,1536279.7999999998,1536277.6999999993,1533946.387,1533952.1999999993,1533963.064,1536281.258,,grey
Frame,canvas.Frame,2_49,2022-07-04T16:46:20.733Z,,,0,V,2316.7359999998007,,,,1536280,1536279.7999999998,1533946.387,1533951.2999999998,1533963.064,1536281.258,,grey
Fixation,canvas.Screen,2_50_0_0,2022-07-04T16:46:22.320Z,,,0,V,1600.9820000000764,timeout,,,1537866.8999999994,1537865.563,1536264.581,1536281.1999999993,1536281.258,1537882.24,,grey
Stimulus,canvas.Screen,2_50_0_1,2022-07-04T16:46:22.420Z,,,0,V,99.89199999999255,timeout,,,1537966.7999999998,1537965.457,1537865.563,1537867.0999999996,1537882.24,1537982.132,,grey
Reaction,canvas.Screen,2_50_0_2,2022-07-04T16:46:22.674Z,,,0,V,236.46799999964423,response,stim_detected,mousedown,1538220.2999999998,1538218.5999999996,1537965.457,1537967.0999999996,1537982.132,1538232.571,,grey
Trial,flow.Sequence,2_50_0,2022-07-04T16:46:22.674Z,,,0,V,1937.3419999997132,completion,,,1538220.6999999993,1538218.5999999996,1536264.581,1536281.0999999996,1536281.258,1538232.571,,grey
Frame,canvas.Frame,2_50,2022-07-04T16:46:22.674Z,,,0,V,1939.5419999998994,,,,1538220.8999999994,1538220.7999999998,1536264.581,1536280.1999999993,1536281.258,1538232.571,,grey
Fixation,canvas.Screen,2_51_0_0,2022-07-04T16:46:24.238Z,,,0,V,1568.0770000000484,timeout,,,1539785.0999999996,1539783.967,1538215.894,1538222.0999999996,1538232.571,1539800.648,,grey
Stimulus,canvas.Screen,2_51_0_1,2022-07-04T16:46:24.338Z,,,0,V,99.42699999990873,timeout,,,1539885.0999999996,1539883.4,1539783.967,1539785.2999999998,1539800.648,1539900.075,,grey
Reaction,canvas.Screen,2_51_0_2,2022-07-04T16:46:24.547Z,,,0,V,191.42500000004657,response,stim_detected,mousedown,1540093.1999999993,1540091.5,1539883.4,1539885.2999999998,1539900.075,1540100.47,,grey
Trial,flow.Sequence,2_51_0,2022-07-04T16:46:24.547Z,,,0,V,1858.9290000000037,completion,,,1540093.6999999993,1540091.5,1538215.894,1538222.0999999996,1538232.571,1540100.47,,grey
Frame,canvas.Frame,2_51,2022-07-04T16:46:24.547Z,,,0,V,1861.2289999998175,,,,1540093.8999999994,1540093.7999999998,1538215.894,1538221.0999999996,1538232.571,1540100.47,,grey
Fixation,canvas.Screen,2_52_0_0,2022-07-04T16:46:26.290Z,,,0,V,1751.9560000000056,timeout,,,1541837.0999999996,1541835.741,1540083.793,1540095.0999999996,1540100.47,1541852.426,,grey
Stimulus,canvas.Screen,2_52_0_1,2022-07-04T16:46:26.389Z,,,0,V,99.3389999999199,timeout,,,1541936.0999999996,1541935.087,1541835.741,1541837.2999999998,1541852.426,1541951.765,,grey
Reaction,canvas.Screen,2_52_0_2,2022-07-04T16:46:26.577Z,,,0,V,169.83499999972992,response,stim_detected,mousedown,1542123.1999999993,1542121.5999999996,1541935.087,1541936.2999999998,1541951.765,1542135.192,,grey
Trial,flow.Sequence,2_52_0,2022-07-04T16:46:26.577Z,,,0,V,2021.1299999996554,completion,,,1542123.5999999996,1542121.5999999996,1540083.793,1540095,1540100.47,1542135.192,,grey
Frame,canvas.Frame,2_52,2022-07-04T16:46:26.577Z,,,0,V,2023.2299999992829,,,,1542123.8999999994,1542123.6999999993,1540083.793,1540094.0999999996,1540100.47,1542135.192,,grey
Fixation,canvas.Screen,2_53_0_0,2022-07-04T16:46:28.974Z,,,1,AV,2400.7099999999627,timeout,,,1544520.1999999993,1544519.23,1542118.515,1542125.1999999993,1542135.192,1544535.902,,grey
Stimulus,canvas.Screen,2_53_0_1,2022-07-04T16:46:29.075Z,,,1,AV,101.15200000000186,timeout,,,1544621.0999999996,1544620.375,1544519.23,1544520.3999999994,1544535.902,1544637.054,,grey
Reaction,canvas.Screen,2_53_0_2,2022-07-04T16:46:29.257Z,,,1,AV,164.54599999962375,response,stim_detected,mousedown,1544803.1999999993,1544801.5999999996,1544620.375,1544621.3999999994,1544637.054,1544820.317,,grey
Trial,flow.Sequence,2_53_0,2022-07-04T16:46:29.257Z,,,1,AV,2666.4079999995884,completion,,,1544803.5999999996,1544801.5999999996,1542118.515,1542125.0999999996,1542135.192,1544820.317,,grey
Frame,canvas.Frame,2_53,2022-07-04T16:46:29.257Z,,,1,AV,2668.507999999216,,,,1544804,1544803.6999999993,1542118.515,1542124.0999999996,1542135.192,1544820.317,,grey
Fixation,canvas.Screen,2_54_0_0,2022-07-04T16:46:30.876Z,,,1,A,1617.5649999999441,timeout,,,1546422.1999999993,1546421.206,1544803.64,1544805.1999999993,1544820.317,1546437.882,,black
Stimulus,canvas.Screen,2_54_0_1,2022-07-04T16:46:30.976Z,,,1,A,99.8389999999199,timeout,,,1546522.1999999993,1546521.047,1546421.206,1546422.3999999994,1546437.882,1546537.721,,black
Reaction,canvas.Screen,2_54_0_2,2022-07-04T16:46:31.279Z,,,1,A,285.87899999972433,response,stim_detected,mousedown,1546825.3999999994,1546823.5999999996,1546521.047,1546522.5,1546537.721,1546838.323,,black
Trial,flow.Sequence,2_54_0,2022-07-04T16:46:31.279Z,,,1,A,2003.2829999995884,completion,,,1546825.7999999998,1546823.5999999996,1544803.64,1544805.0999999996,1544820.317,1546838.323,,black
Frame,canvas.Frame,2_54,2022-07-04T16:46:31.279Z,,,1,A,2005.582999999402,,,,1546826.0999999996,1546825.8999999994,1544803.64,1544804.1999999993,1544820.317,1546838.323,,black
Fixation,canvas.Screen,2_55_0_0,2022-07-04T16:46:33.427Z,,,1,AV,2150.583999999799,timeout,,,1548973.5999999996,1548972.235,1546821.646,1546827.1999999993,1546838.323,1548988.907,,grey
Stimulus,canvas.Screen,2_55_0_1,2022-07-04T16:46:33.528Z,,,1,AV,100.94700000016019,timeout,,,1549074.5,1549073.176,1548972.235,1548974,1548988.907,1549089.854,,grey
Reaction,canvas.Screen,2_55_0_2,2022-07-04T16:46:33.717Z,,,1,AV,171.74599999957718,response,stim_detected,mousedown,1549263.1999999993,1549261.5999999996,1549073.176,1549074.6999999993,1549089.854,1549273.264,,grey
Trial,flow.Sequence,2_55_0,2022-07-04T16:46:33.717Z,,,1,AV,2423.276999999536,completion,,,1549263.5999999996,1549261.5999999996,1546821.646,1546827.0999999996,1546838.323,1549273.264,,grey
Frame,canvas.Frame,2_55,2022-07-04T16:46:33.717Z,,,1,AV,2425.3769999991637,,,,1549263.8999999994,1549263.6999999993,1546821.646,1546826.1999999993,1546838.323,1549273.264,,grey
Fixation,canvas.Screen,2_56_0_0,2022-07-04T16:46:35.931Z,,,0,V,2219.4610000001267,timeout,,,1551477.6999999993,1551476.038,1549256.587,1549265,1549273.264,1551492.725,,grey
Stimulus,canvas.Screen,2_56_0_1,2022-07-04T16:46:36.029Z,,,0,V,98.78599999984726,timeout,,,1551575.6999999993,1551574.301,1551476.038,1551478,1551492.725,1551591.511,,grey
Reaction,canvas.Screen,2_56_0_2,2022-07-04T16:46:36.313Z,,,0,V,265.9890000000596,response,stim_detected,mousedown,1551859.5,1551857.5,1551574.301,1551575.8999999994,1551591.511,1551875.02,,grey
Trial,flow.Sequence,2_56_0,2022-07-04T16:46:36.313Z,,,0,V,2584.2360000000335,completion,,,1551859.8999999994,1551857.5,1549256.587,1549265,1549273.264,1551875.02,,grey
Frame,canvas.Frame,2_56,2022-07-04T16:46:36.314Z,,,0,V,2586.835999999661,,,,1551860.1999999993,1551860.0999999996,1549256.587,1549264,1549273.264,1551875.02,,grey
Fixation,canvas.Screen,2_57_0_0,2022-07-04T16:46:38.531Z,,,1,A,2218.4830000000075,timeout,,,1554077.6999999993,1554076.823,1551858.343,1551861.3999999994,1551875.02,1554093.503,,black
Stimulus,canvas.Screen,2_57_0_1,2022-07-04T16:46:38.631Z,,,1,A,99.6480000000447,timeout,,,1554177.5999999996,1554176.474,1554076.823,1554078,1554093.503,1554193.151,,black
Reaction,canvas.Screen,2_57_0_2,2022-07-04T16:46:38.824Z,,,1,A,175.34899999992922,response,stim_detected,mousedown,1554370.0999999996,1554368.5,1554176.474,1554177.8999999994,1554193.151,1554376.71,,black
Trial,flow.Sequence,2_57_0,2022-07-04T16:46:38.824Z,,,1,A,2493.4799999999814,completion,,,1554370.5,1554368.5,1551858.343,1551861.2999999998,1551875.02,1554376.71,,black
Frame,canvas.Frame,2_57,2022-07-04T16:46:38.824Z,,,1,A,2495.6799999992363,,,,1554370.8999999994,1554370.6999999993,1551858.343,1551860.3999999994,1551875.02,1554376.71,,black
Fixation,canvas.Screen,2_58_0_0,2022-07-04T16:46:40.399Z,,,1,A,1584.8200000000652,timeout,,,1555945.7999999998,1555944.848,1554360.033,1554372.0999999996,1554376.71,1555961.53,,black
Stimulus,canvas.Screen,2_58_0_1,2022-07-04T16:46:40.499Z,,,1,A,99.25900000007823,timeout,,,1556045.7999999998,1556044.115,1555944.848,1555946,1555961.53,1556060.789,,black
Reaction,canvas.Screen,2_58_0_2,2022-07-04T16:46:40.815Z,,,1,A,298.91099999914877,response,stim_detected,mousedown,1556361.5999999996,1556359.6999999993,1556044.115,1556046,1556060.789,1556378.017,,black
Trial,flow.Sequence,2_58_0,2022-07-04T16:46:40.815Z,,,1,A,1982.9899999992922,completion,,,1556362,1556359.6999999993,1554360.033,1554371.8999999994,1554376.71,1556378.017,,black
Frame,canvas.Frame,2_58,2022-07-04T16:46:40.816Z,,,1,A,1985.3899999996647,,,,1556362.2999999998,1556362.0999999996,1554360.033,1554371,1554376.71,1556378.017,,black
Fixation,canvas.Screen,2_59_0_0,2022-07-04T16:46:42.986Z,,,0,V,2169.216000000015,timeout,,,1558532.6999999993,1558530.547,1556361.34,1556363.3999999994,1556378.017,1558547.233,,grey
Stimulus,canvas.Screen,2_59_0_1,2022-07-04T16:46:43.083Z,,,0,V,98.57599999988452,timeout,,,1558630,1558629.135,1558530.547,1558532.8999999994,1558547.233,1558645.809,,grey
Reaction,canvas.Screen,2_59_0_2,2022-07-04T16:46:43.325Z,,,0,V,224.59099999954924,response,stim_detected,mousedown,1558872.0999999996,1558870.3999999994,1558629.135,1558630.2999999998,1558645.809,1558879.682,,grey
Trial,flow.Sequence,2_59_0,2022-07-04T16:46:43.326Z,,,0,V,2492.3829999994487,completion,,,1558872.5,1558870.3999999994,1556361.34,1556363.3999999994,1556378.017,1558879.682,,grey
Frame,canvas.Frame,2_59,2022-07-04T16:46:43.326Z,,,0,V,2494.582999999635,,,,1558872.7999999998,1558872.5999999996,1556361.34,1556362.3999999994,1556378.017,1558879.682,,grey
Fixation,canvas.Screen,2_60_0_0,2022-07-04T16:46:45.020Z,,,1,AV,1702.3619999999646,timeout,,,1560567,1560565.356,1558863.005,1558873.8999999994,1558879.682,1560582.044,,grey
Stimulus,canvas.Screen,2_60_0_1,2022-07-04T16:46:45.118Z,,,1,AV,98.86199999996461,timeout,,,1560665,1560663.941,1560565.356,1560567.0999999996,1560582.044,1560680.906,,grey
Reaction,canvas.Screen,2_60_0_2,2022-07-04T16:46:45.395Z,,,1,AV,258.594000000041,response,stim_detected,mousedown,1560941.3999999994,1560939.5,1560663.941,1560665.2999999998,1560680.906,1560947.738,,grey
Trial,flow.Sequence,2_60_0,2022-07-04T16:46:45.395Z,,,1,AV,2059.81799999997,completion,,,1560941.7999999998,1560939.5,1558863.005,1558873.6999999993,1558879.682,1560947.738,,grey
Frame,canvas.Frame,2_60,2022-07-04T16:46:45.396Z,,,1,AV,2062.2179999994114,,,,1560942.0999999996,1560941.8999999994,1558863.005,1558872.8999999994,1558879.682,1560947.738,,grey
Fixation,canvas.Screen,2_61_0_0,2022-07-04T16:46:47.354Z,,,1,A,1968.6020000001881,timeout,,,1562901.0999999996,1562899.657,1560931.061,1560943.2999999998,1560947.738,1562916.34,,black
Stimulus,canvas.Screen,2_61_0_1,2022-07-04T16:46:47.454Z,,,1,A,98.96999999997206,timeout,,,1563000.0999999996,1562998.636,1562899.657,1562901.3999999994,1562916.34,1563015.31,,black
Reaction,canvas.Screen,2_61_0_2,2022-07-04T16:46:47.710Z,,,1,A,239.08999999938533,response,stim_detected,mousedown,1563256.2999999998,1563254.3999999994,1562998.636,1563000.5,1563015.31,1563265.966,,black
Trial,flow.Sequence,2_61_0,2022-07-04T16:46:47.710Z,,,1,A,2306.6619999995455,completion,,,1563256.6999999993,1563254.3999999994,1560931.061,1560943.0999999996,1560947.738,1563265.966,,black
Frame,canvas.Frame,2_61,2022-07-04T16:46:47.710Z,,,1,A,2309.061999999918,,,,1563257,1563256.7999999998,1560931.061,1560942.2999999998,1560947.738,1563265.966,,black
Fixation,canvas.Screen,2_62_0_0,2022-07-04T16:46:49.638Z,,,0,V,1933.4820000000764,timeout,,,1565184.1999999993,1565182.779,1563249.289,1563258.2999999998,1563265.966,1565199.448,,grey
Stimulus,canvas.Screen,2_62_0_1,2022-07-04T16:46:49.739Z,,,0,V,100.92799999983981,timeout,,,1565285.0999999996,1565283.701,1565182.779,1565184.3999999994,1565199.448,1565300.376,,grey
Reaction,canvas.Screen,2_62_0_2,2022-07-04T16:46:49.970Z,,,0,V,215.02399999951012,response,stim_detected,mousedown,1565517.0999999996,1565515.3999999994,1565283.701,1565285.3999999994,1565300.376,1565534.155,,grey
Trial,flow.Sequence,2_62_0,2022-07-04T16:46:49.971Z,,,0,V,2249.4339999994263,completion,,,1565517.5,1565515.3999999994,1563249.289,1563258.0999999996,1563265.966,1565534.155,,grey
Frame,canvas.Frame,2_62,2022-07-04T16:46:49.971Z,,,0,V,2251.73399999924,,,,1565517.7999999998,1565517.6999999993,1563249.289,1563257.1999999993,1563265.966,1565534.155,,grey
Fixation,canvas.Screen,2_63_0_0,2022-07-04T16:46:51.974Z,,,0,V,2002.0149999998976,timeout,,,1567520.2999999998,1567519.487,1565517.478,1565519.0999999996,1565534.155,1567536.17,,grey
Stimulus,canvas.Screen,2_63_0_1,2022-07-04T16:46:52.073Z,,,0,V,99.0480000001844,timeout,,,1567619.3999999994,1567618.543,1567519.487,1567520.5999999996,1567536.17,1567635.218,,grey
Reaction,canvas.Screen,2_63_0_2,2022-07-04T16:46:52.266Z,,,0,V,176.1819999993313,response,stim_detected,mousedown,1567813,1567811.3999999994,1567618.543,1567619.5999999996,1567635.218,1567819.059,,grey
Trial,flow.Sequence,2_63_0,2022-07-04T16:46:52.267Z,,,0,V,2277.2449999994133,completion,,,1567813.3999999994,1567811.3999999994,1565517.478,1565518.8999999994,1565534.155,1567819.059,,grey
Frame,canvas.Frame,2_63,2022-07-04T16:46:52.267Z,,,0,V,2279.4449999995995,,,,1567813.7999999998,1567813.5999999996,1565517.478,1565517.8999999994,1565534.155,1567819.059,,grey
Fixation,canvas.Screen,2_64_0_0,2022-07-04T16:46:54.508Z,,,1,A,2250.6500000001397,timeout,,,1570054.2999999998,1570053.037,1567802.382,1567814.7999999998,1567819.059,1570069.709,,black
Stimulus,canvas.Screen,2_64_0_1,2022-07-04T16:46:54.608Z,,,1,A,100.18900000001304,timeout,,,1570154.2999999998,1570153.225,1570053.037,1570054.5999999996,1570069.709,1570169.898,,black
Reaction,canvas.Screen,2_64_0_2,2022-07-04T16:46:54.838Z,,,1,A,212.5019999993965,response,stim_detected,mousedown,1570384.2999999998,1570382.3999999994,1570153.225,1570154.5999999996,1570169.898,1570387.405,,black
Trial,flow.Sequence,2_64_0,2022-07-04T16:46:54.838Z,,,1,A,2563.3409999995492,completion,,,1570384.7999999998,1570382.3999999994,1567802.382,1567814.7999999998,1567819.059,1570387.405,,black
Frame,canvas.Frame,2_64,2022-07-04T16:46:54.839Z,,,1,A,2565.941000000108,,,,1570385.0999999996,1570385,1567802.382,1567814,1567819.059,1570387.405,,black
Fixation,canvas.Screen,2_65_0_0,2022-07-04T16:46:56.927Z,,,0,V,2101.162000000011,timeout,,,1572473.5,1572471.891,1570370.728,1570386.5999999996,1570387.405,1572488.567,,grey
Stimulus,canvas.Screen,2_65_0_1,2022-07-04T16:46:57.028Z,,,0,V,100.2730000000447,timeout,,,1572574.2999999998,1572572.163,1572471.891,1572473.6999999993,1572488.567,1572588.84,,grey
Reaction,canvas.Screen,2_65_0_2,2022-07-04T16:46:57.219Z,,,0,V,175.45999999972992,response,stim_detected,mousedown,1572766,1572764.2999999998,1572572.163,1572574.5,1572588.84,1572772.303,,grey
Trial,flow.Sequence,2_65_0,2022-07-04T16:46:57.220Z,,,0,V,2376.894999999786,completion,,,1572766.5,1572764.2999999998,1570370.728,1570386.5,1570387.405,1572772.303,,grey
Frame,canvas.Frame,2_65,2022-07-04T16:46:57.220Z,,,0,V,2379.094999999972,,,,1572766.6999999993,1572766.5,1570370.728,1570385.2999999998,1570387.405,1572772.303,,grey
Fixation,canvas.Screen,2_66_0_0,2022-07-04T16:46:59.430Z,,,1,AV,2219.4599999999627,timeout,,,1574976.5999999996,1574975.076,1572755.626,1572767.8999999994,1572772.303,1574991.763,,grey
Stimulus,canvas.Screen,2_66_0_1,2022-07-04T16:46:59.528Z,,,1,AV,98.69900000002235,timeout,,,1575074.5,1575073.785,1574975.076,1574976.7999999998,1574991.763,1575090.462,,grey
Reaction,canvas.Screen,2_66_0_2,2022-07-04T16:46:59.703Z,,,1,AV,157.837999999756,response,stim_detected,mousedown,1575250,1575248.2999999998,1575073.785,1575074.6999999993,1575090.462,1575274.014,,grey
Trial,flow.Sequence,2_66_0,2022-07-04T16:46:59.704Z,,,1,AV,2475.996999999741,completion,,,1575250.3999999994,1575248.2999999998,1572755.626,1572767.7999999998,1572772.303,1575274.014,,grey
Frame,canvas.Frame,2_66,2022-07-04T16:46:59.704Z,,,1,AV,2478.1969999999274,,,,1575250.6999999993,1575250.5,1572755.626,1572767,1572772.303,1575274.014,,grey
Fixation,canvas.Screen,2_67_0_0,2022-07-04T16:47:02.096Z,,,1,A,2384.347999999998,timeout,,,1577643,1577641.688,1575240.66,1575276.5,1575274.014,1577658.362,,black
Stimulus,canvas.Screen,2_67_0_1,2022-07-04T16:47:02.198Z,,,1,A,100.65700000012293,timeout,,,1577744.5999999996,1577742.341,1577641.688,1577643.3999999994,1577658.362,1577759.019,,black
Reaction,canvas.Screen,2_67_0_2,2022-07-04T16:47:02.428Z,,,1,A,213.2809999997262,response,stim_detected,mousedown,1577974.1999999993,1577972.2999999998,1577742.341,1577744.6999999993,1577759.019,1577975.827,,black
Trial,flow.Sequence,2_67_0,2022-07-04T16:47:02.428Z,,,1,A,2698.2859999998473,completion,,,1577974.6999999993,1577972.2999999998,1575240.66,1575276.3999999994,1575274.014,1577975.827,,black
Frame,canvas.Frame,2_67,2022-07-04T16:47:02.428Z,,,1,A,2700.7859999998473,,,,1577975,1577974.7999999998,1575240.66,1575250.8999999994,1575274.014,1577975.827,,black
Fixation,canvas.Screen,2_68_0_0,2022-07-04T16:47:04.398Z,,,1,AV,1984.5629999998491,timeout,,,1579944.7999999998,1579943.713,1577959.15,1577976.1999999993,1577975.827,1579960.39,,grey
Stimulus,canvas.Screen,2_68_0_1,2022-07-04T16:47:04.498Z,,,1,AV,99.96000000019558,timeout,,,1580044.8999999994,1580043.674,1579943.713,1579945,1579960.39,1580060.35,,grey
Reaction,canvas.Screen,2_68_0_2,2022-07-04T16:47:04.672Z,,,1,AV,156.9499999997206,response,stim_detected,mousedown,1580219,1580217.2999999998,1580043.674,1580045.0999999996,1580060.35,1580227.312,,grey
Trial,flow.Sequence,2_68_0,2022-07-04T16:47:04.673Z,,,1,AV,2241.4729999997653,completion,,,1580219.2999999998,1580217.2999999998,1577959.15,1577976.0999999996,1577975.827,1580227.312,,grey
Frame,canvas.Frame,2_68,2022-07-04T16:47:04.673Z,,,1,AV,2243.6729999999516,,,,1580219.6999999993,1580219.5,1577959.15,1577975.1999999993,1577975.827,1580227.312,,grey
Fixation,canvas.Screen,2_69_0_0,2022-07-04T16:47:06.816Z,,,1,AV,2151.340000000084,timeout,,,1582363,1582361.975,1580210.635,1580220.7999999998,1580227.312,1582378.652,,grey
Stimulus,canvas.Screen,2_69_0_1,2022-07-04T16:47:06.916Z,,,1,AV,100.12999999988824,timeout,,,1582463,1582462.105,1582361.975,1582363.1999999993,1582378.652,1582478.782,,grey
Reaction,canvas.Screen,2_69_0_2,2022-07-04T16:47:07.073Z,,,1,AV,139.51799999992363,response,stim_detected,mousedown,1582619.8999999994,1582618.2999999998,1582462.105,1582463.3999999994,1582478.782,1582628.925,,grey
Trial,flow.Sequence,2_69_0,2022-07-04T16:47:07.074Z,,,1,AV,2390.9879999998957,completion,,,1582620.2999999998,1582618.2999999998,1580210.635,1580220.6999999993,1580227.312,1582628.925,,grey
Frame,canvas.Frame,2_69,2022-07-04T16:47:07.074Z,,,1,AV,2393.188000000082,,,,1582620.5999999996,1582620.5,1580210.635,1580219.7999999998,1580227.312,1582628.925,,grey
Fixation,canvas.Screen,2_70_0_0,2022-07-04T16:47:09.085Z,,,1,AV,2018.3149999999441,timeout,,,1584632,1584630.56,1582612.248,1582621.6999999993,1582628.925,1584647.24,,grey
Stimulus,canvas.Screen,2_70_0_1,2022-07-04T16:47:09.184Z,,,1,AV,99.57300000009127,timeout,,,1584731.0999999996,1584730.137,1584630.56,1584632.2999999998,1584647.24,1584746.813,,grey
Reaction,canvas.Screen,2_70_0_2,2022-07-04T16:47:09.383Z,,,1,AV,181.38699999917299,response,stim_detected,mousedown,1584930,1584928.1999999993,1584730.137,1584731.2999999998,1584746.813,1584947.15,,grey
Trial,flow.Sequence,2_70_0,2022-07-04T16:47:09.384Z,,,1,AV,2299.2749999992084,completion,,,1584930.2999999998,1584928.1999999993,1582612.248,1582621.5999999996,1582628.925,1584947.15,,grey
Frame,canvas.Frame,2_70,2022-07-04T16:47:09.384Z,,,1,AV,2301.5749999999534,,,,1584930.6999999993,1584930.5,1582612.248,1582620.7999999998,1582628.925,1584947.15,,grey
Fixation,canvas.Screen,2_71_0_0,2022-07-04T16:47:11.186Z,,,1,A,1800.3919999999925,timeout,,,1586732.1999999993,1586730.871,1584930.473,1584931.8999999994,1584947.15,1586747.542,,black
Stimulus,canvas.Screen,2_71_0_1,2022-07-04T16:47:11.287Z,,,1,A,101.02000000001863,timeout,,,1586833.1999999993,1586831.883,1586730.871,1586732.5,1586747.542,1586848.562,,black
Reaction,canvas.Screen,2_71_0_2,2022-07-04T16:47:11.806Z,,,1,A,502.6379999993369,response,stim_detected,mousedown,1587352.8999999994,1587351.1999999993,1586831.883,1586833.3999999994,1586848.562,1587365.421,,black
Trial,flow.Sequence,2_71_0,2022-07-04T16:47:11.807Z,,,1,A,2404.049999999348,completion,,,1587353.3999999994,1587351.1999999993,1584930.473,1584931.7999999998,1584947.15,1587365.421,,black
Frame,canvas.Frame,2_71,2022-07-04T16:47:11.807Z,,,1,A,2406.350000000093,,,,1587353.6999999993,1587353.5,1584930.473,1584930.7999999998,1584947.15,1587365.421,,black
Fixation,canvas.Screen,2_72_0_0,2022-07-04T16:47:13.554Z,,,1,A,1750.8349999999627,timeout,,,1589100.3999999994,1589099.581,1587348.744,1587355,1587365.421,1589116.256,,black
Stimulus,canvas.Screen,2_72_0_1,2022-07-04T16:47:13.655Z,,,1,A,100.33700000005774,timeout,,,1589201.2999999998,1589199.916,1589099.581,1589100.5999999996,1589116.256,1589216.593,,black
Reaction,canvas.Screen,2_72_0_2,2022-07-04T16:47:13.876Z,,,1,A,204.60699999914505,response,stim_detected,mousedown,1589422.7999999998,1589421.1999999993,1589199.916,1589201.5999999996,1589216.593,1589433.441,,black
Trial,flow.Sequence,2_72_0,2022-07-04T16:47:13.877Z,,,1,A,2055.7789999991655,completion,,,1589423.1999999993,1589421.1999999993,1587348.744,1587354.7999999998,1587365.421,1589433.441,,black
Frame,canvas.Frame,2_72,2022-07-04T16:47:13.877Z,,,1,A,2057.8789999997243,,,,1589423.5999999996,1589423.2999999998,1587348.744,1587353.8999999994,1587365.421,1589433.441,,black
Fixation,canvas.Screen,2_73_0_0,2022-07-04T16:47:15.540Z,,,1,AV,1668.0499999998137,timeout,,,1591086.2999999998,1591084.811,1589416.764,1589424.8999999994,1589433.441,1591101.491,,grey
Stimulus,canvas.Screen,2_73_0_1,2022-07-04T16:47:15.639Z,,,1,AV,99.6820000000298,timeout,,,1591185.2999999998,1591184.497,1591084.811,1591086.5999999996,1591101.491,1591201.173,,grey
Reaction,canvas.Screen,2_73_0_2,2022-07-04T16:47:15.858Z,,,1,AV,201.02699999930337,response,stim_detected,mousedown,1591404.0999999996,1591402.1999999993,1591184.497,1591185.7999999998,1591201.173,1591418.133,,grey
Trial,flow.Sequence,2_73_0,2022-07-04T16:47:15.858Z,,,1,AV,1968.758999999147,completion,,,1591404.5,1591402.1999999993,1589416.764,1589424.7999999998,1589433.441,1591418.133,,grey
Frame,canvas.Frame,2_73,2022-07-04T16:47:15.858Z,,,1,AV,1971.258999999147,,,,1591404.7999999998,1591404.6999999993,1589416.764,1589423.8999999994,1589433.441,1591418.133,,grey
Fixation,canvas.Screen,2_74_0_0,2022-07-04T16:47:17.374Z,,,1,A,1517.6140000000596,timeout,,,1592920.5,1592919.07,1591401.456,1591406,1591418.133,1592935.747,,black
Stimulus,canvas.Screen,2_74_0_1,2022-07-04T16:47:17.474Z,,,1,A,100.11199999996461,timeout,,,1593020.5,1593019.182,1592919.07,1592920.7999999998,1592935.747,1593035.859,,black
Reaction,canvas.Screen,2_74_0_2,2022-07-04T16:47:17.851Z,,,1,A,360.24099999968894,response,stim_detected,mousedown,1593397.6999999993,1593396.0999999996,1593019.182,1593020.7999999998,1593035.859,1593402.756,,black
Trial,flow.Sequence,2_74_0,2022-07-04T16:47:17.851Z,,,1,A,1977.9669999997132,completion,,,1593398.0999999996,1593396.0999999996,1591401.456,1591406,1591418.133,1593402.756,,black
Frame,canvas.Frame,2_74,2022-07-04T16:47:17.852Z,,,1,A,1980.0669999993406,,,,1593398.3999999994,1593398.1999999993,1591401.456,1591405,1591418.133,1593402.756,,black
Fixation,canvas.Screen,2_75_0_0,2022-07-04T16:47:19.344Z,,,1,A,1501.9279999998398,timeout,,,1594889.8999999994,1594887.996,1593386.079,1593399.5,1593402.756,1594904.684,,black
Stimulus,canvas.Screen,2_75_0_1,2022-07-04T16:47:19.443Z,,,1,A,99.12600000016391,timeout,,,1594988.5999999996,1594987.133,1594887.996,1594890.1999999993,1594904.684,1595003.81,,black
Reaction,canvas.Screen,2_75_0_2,2022-07-04T16:47:19.781Z,,,1,A,321.38999999919906,response,stim_detected,mousedown,1595326.7999999998,1595325.1999999993,1594987.133,1594988.8999999994,1595003.81,1595337.422,,black
Trial,flow.Sequence,2_75_0,2022-07-04T16:47:19.781Z,,,1,A,1922.4439999992028,completion,,,1595327.1999999993,1595325.1999999993,1593386.079,1593399.3999999994,1593402.756,1595337.422,,black
Frame,canvas.Frame,2_75,2022-07-04T16:47:19.782Z,,,1,A,1924.5439999997616,,,,1595327.5,1595327.2999999998,1593386.079,1593398.5999999996,1593402.756,1595337.422,,black
Fixation,canvas.Screen,2_76_0_0,2022-07-04T16:47:22.010Z,,,1,AV,2233.3279999999795,timeout,,,1597556,1597554.082,1595320.745,1595328.5,1595337.422,1597570.75,,grey
Stimulus,canvas.Screen,2_76_0_1,2022-07-04T16:47:22.111Z,,,1,AV,101.5910000000149,timeout,,,1597656.8999999994,1597655.663,1597554.082,1597556.3999999994,1597570.75,1597672.341,,grey
Reaction,canvas.Screen,2_76_0_2,2022-07-04T16:47:22.288Z,,,1,AV,159.75899999961257,response,stim_detected,mousedown,1597834,1597832.0999999996,1597655.663,1597657.1999999993,1597672.341,1597839.09,,grey
Trial,flow.Sequence,2_76_0,2022-07-04T16:47:22.288Z,,,1,AV,2494.677999999607,completion,,,1597834.2999999998,1597832.0999999996,1595320.745,1595328.3999999994,1595337.422,1597839.09,,grey
Frame,canvas.Frame,2_76,2022-07-04T16:47:22.289Z,,,1,AV,2497.0779999999795,,,,1597834.6999999993,1597834.5,1595320.745,1595327.6999999993,1595337.422,1597839.09,,grey
Fixation,canvas.Screen,2_77_0_0,2022-07-04T16:47:24.029Z,,,1,AV,1751.4459999999963,timeout,,,1599574.7999999998,1599573.856,1597822.413,1597836,1597839.09,1599590.536,,grey
Stimulus,canvas.Screen,2_77_0_1,2022-07-04T16:47:24.129Z,,,1,AV,99.625,timeout,,,1599674.7999999998,1599673.485,1599573.856,1599575.0999999996,1599590.536,1599690.161,,grey
Reaction,canvas.Screen,2_77_0_2,2022-07-04T16:47:24.323Z,,,1,AV,176.93899999954738,response,stim_detected,mousedown,1599868.6999999993,1599867.0999999996,1599673.485,1599675,1599690.161,1599873.756,,grey
Trial,flow.Sequence,2_77_0,2022-07-04T16:47:24.323Z,,,1,AV,2028.0099999995437,completion,,,1599869.0999999996,1599867.0999999996,1597822.413,1597835.8999999994,1597839.09,1599873.756,,grey
Frame,canvas.Frame,2_77,2022-07-04T16:47:24.323Z,,,1,AV,2030.1099999991711,,,,1599869.3999999994,1599869.1999999993,1597822.413,1597835,1597839.09,1599873.756,,grey
Fixation,canvas.Screen,2_78_0_0,2022-07-04T16:47:25.915Z,,,0,V,1602.4790000000503,timeout,,,1601460.8999999994,1601459.543,1599857.079,1599870.5,1599873.756,1601476.235,,grey
Stimulus,canvas.Screen,2_78_0_1,2022-07-04T16:47:26.013Z,,,0,V,98.70600000000559,timeout,,,1601558.8999999994,1601557.876,1601459.543,1601461.0999999996,1601476.235,1601574.941,,grey
Reaction,canvas.Screen,2_78_0_2,2022-07-04T16:47:26.228Z,,,0,V,197.15899999951944,response,stim_detected,mousedown,1601774.0999999996,1601772.0999999996,1601557.876,1601559.0999999996,1601574.941,1601791.742,,grey
Trial,flow.Sequence,2_78_0,2022-07-04T16:47:26.228Z,,,0,V,1898.3439999995753,completion,,,1601774.5,1601772.0999999996,1599857.079,1599870.3999999994,1599873.756,1601791.742,,grey
Frame,canvas.Frame,2_78,2022-07-04T16:47:26.229Z,,,0,V,1900.8439999995753,,,,1601774.7999999998,1601774.5999999996,1599857.079,1599869.5999999996,1599873.756,1601791.742,,grey
Fixation,canvas.Screen,2_79_0_0,2022-07-04T16:47:28.715Z,,,0,V,2485.037000000011,timeout,,,1604261,1604260.101,1601775.065,1601775.8999999994,1601791.742,1604276.779,,grey
Stimulus,canvas.Screen,2_79_0_1,2022-07-04T16:47:28.815Z,,,0,V,99.9179999998305,timeout,,,1604361,1604360.02,1604260.101,1604261.2999999998,1604276.779,1604376.697,,grey
Reaction,canvas.Screen,2_79_0_2,2022-07-04T16:47:28.987Z,,,0,V,154.30300000007264,response,stim_detected,mousedown,1604532.6999999993,1604531,1604360.02,1604361.1999999993,1604376.697,1604543.573,,grey
Trial,flow.Sequence,2_79_0,2022-07-04T16:47:28.987Z,,,0,V,2739.2579999999143,completion,,,1604533.0999999996,1604531,1601775.065,1601775.7999999998,1601791.742,1604543.573,,grey
Frame,canvas.Frame,2_79,2022-07-04T16:47:28.987Z,,,0,V,2741.557999999728,,,,1604533.3999999994,1604533.2999999998,1601775.065,1601774.8999999994,1601791.742,1604543.573,,grey
Fixation,canvas.Screen,2_80_0_0,2022-07-04T16:47:31.267Z,,,1,A,2284.748999999836,timeout,,,1606813.1999999993,1606811.645,1604526.896,1604534.5999999996,1604543.573,1606828.322,,black
Stimulus,canvas.Screen,2_80_0_1,2022-07-04T16:47:31.367Z,,,1,A,100.21999999997206,timeout,,,1606913.1999999993,1606911.864,1606811.645,1606813.5999999996,1606828.322,1606928.542,,black
Reaction,canvas.Screen,2_80_0_2,2022-07-04T16:47:31.665Z,,,1,A,280.55799999972805,response,stim_detected,mousedown,1607210.8999999994,1607209.0999999996,1606911.864,1606913.3999999994,1606928.542,1607228.667,,black
Trial,flow.Sequence,2_80_0,2022-07-04T16:47:31.665Z,,,1,A,2665.526999999536,completion,,,1607211.1999999993,1607209.0999999996,1604526.896,1604534.5,1604543.573,1607228.667,,black
Frame,canvas.Frame,2_80,2022-07-04T16:47:31.666Z,,,1,A,2667.82699999935,,,,1607211.5999999996,1607211.3999999994,1604526.896,1604533.5999999996,1604543.573,1607228.667,,black
Fixation,canvas.Screen,2_81_0_0,2022-07-04T16:47:33.736Z,,,1,AV,2069.4940000001807,timeout,,,1609282.2999999998,1609281.472,1607211.99,1607213.5999999996,1607228.667,1609298.161,,grey
Stimulus,canvas.Screen,2_81_0_1,2022-07-04T16:47:33.836Z,,,1,AV,98.45699999993667,timeout,,,1609381.5,1609379.942,1609281.472,1609282.5,1609298.161,1609396.618,,grey
Reaction,canvas.Screen,2_81_0_2,2022-07-04T16:47:34.050Z,,,1,AV,197.28199999942444,response,stim_detected,mousedown,1609595.5999999996,1609593.8999999994,1609379.942,1609381.7999999998,1609396.618,1609613.608,,grey
Trial,flow.Sequence,2_81_0,2022-07-04T16:47:34.050Z,,,1,AV,2365.232999999542,completion,,,1609595.8999999994,1609593.8999999994,1607211.99,1607213.5,1607228.667,1609613.608,,grey
Frame,canvas.Frame,2_81,2022-07-04T16:47:34.050Z,,,1,AV,2367.432999999728,,,,1609596.2999999998,1609596.0999999996,1607211.99,1607211.7999999998,1607228.667,1609613.608,,grey
Fixation,canvas.Screen,2_82_0_0,2022-07-04T16:47:36.237Z,,,0,V,2185.521999999881,timeout,,,1611783.3999999994,1611782.447,1609596.931,1609597.3999999994,1609613.608,1611799.13,,grey
Stimulus,canvas.Screen,2_82_0_1,2022-07-04T16:47:36.336Z,,,0,V,99.38300000014715,timeout,,,1611882.5,1611881.278,1611782.447,1611783.6999999993,1611799.13,1611898.513,,grey
Reaction,canvas.Screen,2_82_0_2,2022-07-04T16:47:36.593Z,,,0,V,238.4869999999646,response,stim_detected,mousedown,1612138.5999999996,1612137,1611881.278,1611882.7999999998,1611898.513,1612148.668,,grey
Trial,flow.Sequence,2_82_0,2022-07-04T16:47:36.593Z,,,0,V,2523.3919999999925,completion,,,1612138.8999999994,1612137,1609596.931,1609597.3999999994,1609613.608,1612148.668,,grey
Frame,canvas.Frame,2_82,2022-07-04T16:47:36.593Z,,,0,V,2525.49199999962,,,,1612139.1999999993,1612139.0999999996,1609596.931,1609596.5,1609613.608,1612148.668,,grey
Fixation,canvas.Screen,2_83_0_0,2022-07-04T16:47:38.656Z,,,0,V,2067.81799999997,timeout,,,1614201.5,1614199.81,1612131.991,1612140.6999999993,1612148.668,1614216.486,,grey
Stimulus,canvas.Screen,2_83_0_1,2022-07-04T16:47:38.755Z,,,0,V,99.91299999994226,timeout,,,1614300.5,1614299.724,1614199.81,1614201.7999999998,1614216.486,1614316.399,,grey
Reaction,canvas.Screen,2_83_0_2,2022-07-04T16:47:38.951Z,,,0,V,178.60100000002421,response,stim_detected,mousedown,1614496.5,1614495,1614299.724,1614300.7999999998,1614316.399,1614500.25,,grey
Trial,flow.Sequence,2_83_0,2022-07-04T16:47:38.951Z,,,0,V,2346.3319999999367,completion,,,1614496.8999999994,1614495,1612131.991,1612140.5999999996,1612148.668,1614500.25,,grey
Frame,canvas.Frame,2_83,2022-07-04T16:47:38.951Z,,,0,V,2348.3319999999367,,,,1614497.1999999993,1614497,1612131.991,1612139.3999999994,1612148.668,1614500.25,,grey
Fixation,canvas.Screen,2_84_0_0,2022-07-04T16:47:40.806Z,,,1,AV,1866.7029999999795,timeout,,,1616351.5999999996,1616350.285,1614483.573,1614498.1999999993,1614500.25,1616366.953,,grey
Stimulus,canvas.Screen,2_84_0_1,2022-07-04T16:47:40.907Z,,,1,AV,100.88400000007823,timeout,,,1616452.5999999996,1616451.163,1616350.285,1616351.7999999998,1616366.953,1616467.837,,grey
Reaction,canvas.Screen,2_84_0_2,2022-07-04T16:47:41.089Z,,,1,AV,165.16299999994226,response,stim_detected,mousedown,1616634.5999999996,1616633,1616451.163,1616452.7999999998,1616467.837,1616651.631,,grey
Trial,flow.Sequence,2_84_0,2022-07-04T16:47:41.089Z,,,1,AV,2132.75,completion,,,1616635,1616633,1614483.573,1614498.0999999996,1614500.25,1616651.631,,grey
Frame,canvas.Frame,2_84,2022-07-04T16:47:41.089Z,,,1,AV,2134.8499999996275,,,,1616635.2999999998,1616635.0999999996,1614483.573,1614497.3999999994,1614500.25,1616651.631,,grey
Fixation,canvas.Screen,2_85_0_0,2022-07-04T16:47:43.060Z,,,1,A,1969.0729999998584,timeout,,,1618605.7999999998,1618604.018,1616634.954,1616662.0999999996,1616651.631,1618620.704,,black
Stimulus,canvas.Screen,2_85_0_1,2022-07-04T16:47:43.159Z,,,1,A,98.9210000000894,timeout,,,1618704.6999999993,1618702.948,1618604.018,1618606.0999999996,1618620.704,1618719.625,,black
Reaction,canvas.Screen,2_85_0_2,2022-07-04T16:47:43.417Z,,,1,A,241.2749999994412,response,stim_detected,mousedown,1618962.6999999993,1618960.8999999994,1618702.948,1618704.8999999994,1618719.625,1618969.878,,black
Trial,flow.Sequence,2_85_0,2022-07-04T16:47:43.417Z,,,1,A,2309.268999999389,completion,,,1618963,1618960.8999999994,1616634.954,1616662.0999999996,1616651.631,1618969.878,,black
Frame,canvas.Frame,2_85,2022-07-04T16:47:43.417Z,,,1,A,2311.4689999995753,,,,1618963.3999999994,1618963.0999999996,1616634.954,1616635.5,1616651.631,1618969.878,,black
Fixation,canvas.Screen,2_86_0_0,2022-07-04T16:47:45.510Z,,,1,A,2101.4229999999516,timeout,,,1621055.7999999998,1621054.623,1618953.201,1618964.6999999993,1618969.878,1621071.301,,black
Stimulus,canvas.Screen,2_86_0_1,2022-07-04T16:47:45.610Z,,,1,A,99.58600000012666,timeout,,,1621155.8999999994,1621154.213,1621054.623,1621056,1621071.301,1621170.887,,black
Reaction,canvas.Screen,2_86_0_2,2022-07-04T16:47:45.804Z,,,1,A,177.0129999993369,response,stim_detected,mousedown,1621349.6999999993,1621347.8999999994,1621154.213,1621156.1999999993,1621170.887,1621354.814,,black
Trial,flow.Sequence,2_86_0,2022-07-04T16:47:45.804Z,,,1,A,2378.021999999415,completion,,,1621350.0999999996,1621347.8999999994,1618953.201,1618964.5,1618969.878,1621354.814,,black
Frame,canvas.Frame,2_86,2022-07-04T16:47:45.804Z,,,1,A,2380.321999999229,,,,1621350.3999999994,1621350.1999999993,1618953.201,1618963.5,1618969.878,1621354.814,,black
Fixation,canvas.Screen,2_87_0_0,2022-07-04T16:47:47.979Z,,,1,A,2185.878000000026,timeout,,,1623524.8999999994,1623524.006,1621338.137,1621351.5999999996,1621354.814,1623540.692,,black
Stimulus,canvas.Screen,2_87_0_1,2022-07-04T16:47:48.078Z,,,1,A,98.72799999988638,timeout,,,1623624.0999999996,1623622.745,1623524.006,1623525.1999999993,1623540.692,1623639.42,,black
Reaction,canvas.Screen,2_87_0_2,2022-07-04T16:47:48.286Z,,,1,A,190.4799999995157,response,stim_detected,mousedown,1623831.5,1623829.8999999994,1623622.745,1623624.3999999994,1623639.42,1623839.757,,black
Trial,flow.Sequence,2_87_0,2022-07-04T16:47:48.286Z,,,1,A,2475.085999999428,completion,,,1623831.8999999994,1623829.8999999994,1621338.137,1621351.5,1621354.814,1623839.757,,black
Frame,canvas.Frame,2_87,2022-07-04T16:47:48.286Z,,,1,A,2477.185999999987,,,,1623832.1999999993,1623832,1621338.137,1621350.5999999996,1621354.814,1623839.757,,black
Fixation,canvas.Screen,2_88_0_0,2022-07-04T16:47:50.748Z,,,1,A,2469.9290000000037,timeout,,,1626294,1626292.998,1623823.08,1623833.1999999993,1623839.757,1626309.686,,black
Stimulus,canvas.Screen,2_88_0_1,2022-07-04T16:47:50.848Z,,,1,A,98.50900000007823,timeout,,,1626393.8999999994,1626391.517,1626292.998,1626294.2999999998,1626309.686,1626408.195,,black
Reaction,canvas.Screen,2_88_0_2,2022-07-04T16:47:50.999Z,,,1,A,134.60499999974854,response,stim_detected,mousedown,1626544.8999999994,1626542.7999999998,1626391.517,1626394.1999999993,1626408.195,1626558.291,,black
Trial,flow.Sequence,2_88_0,2022-07-04T16:47:50.999Z,,,1,A,2703.0429999998305,completion,,,1626545.2999999998,1626542.7999999998,1623823.08,1623833.1999999993,1623839.757,1626558.291,,black
Frame,canvas.Frame,2_88,2022-07-04T16:47:51.000Z,,,1,A,2705.642999999458,,,,1626545.5999999996,1626545.3999999994,1623823.08,1623832.2999999998,1623839.757,1626558.291,,black
Fixation,canvas.Screen,2_89_0_0,2022-07-04T16:47:52.698Z,,,1,AV,1701.2460000000428,timeout,,,1628244.1999999993,1628242.858,1626541.614,1626546.6999999993,1626558.291,1628259.537,,grey
Stimulus,canvas.Screen,2_89_0_1,2022-07-04T16:47:52.797Z,,,1,AV,99.30799999996088,timeout,,,1628343.2999999998,1628342.173,1628242.858,1628244.5999999996,1628259.537,1628358.845,,grey
Reaction,canvas.Screen,2_89_0_2,2022-07-04T16:47:53.055Z,,,1,AV,239.85499999928288,response,stim_detected,mousedown,1628600.6999999993,1628598.6999999993,1628342.173,1628343.5,1628358.845,1628609.624,,grey
Trial,flow.Sequence,2_89_0,2022-07-04T16:47:53.055Z,,,1,AV,2040.4089999992866,completion,,,1628601.0999999996,1628598.6999999993,1626541.614,1626546.5999999996,1626558.291,1628609.624,,grey
Frame,canvas.Frame,2_89,2022-07-04T16:47:53.055Z,,,1,AV,2042.9089999992866,,,,1628601.3999999994,1628601.1999999993,1626541.614,1626545.7999999998,1626558.291,1628609.624,,grey
Fixation,canvas.Screen,2_90_0_0,2022-07-04T16:47:55.384Z,,,1,AV,2336.2669999999925,timeout,,,1630930.5,1630929.204,1628592.947,1628602.5999999996,1628609.624,1630945.891,,grey
Stimulus,canvas.Screen,2_90_0_1,2022-07-04T16:47:55.483Z,,,1,AV,98.63199999998324,timeout,,,1631029.3999999994,1631027.846,1630929.204,1630930.6999999993,1630945.891,1631044.523,,grey
Reaction,canvas.Screen,2_90_0_2,2022-07-04T16:47:55.654Z,,,1,AV,153.3769999993965,response,stim_detected,mousedown,1631199.5999999996,1631197.8999999994,1631027.846,1631029.6999999993,1631044.523,1631211.365,,grey
Trial,flow.Sequence,2_90_0,2022-07-04T16:47:55.654Z,,,1,AV,2588.2759999993723,completion,,,1631199.8999999994,1631197.8999999994,1628592.947,1628602.5,1628609.624,1631211.365,,grey
Frame,canvas.Frame,2_90,2022-07-04T16:47:55.654Z,,,1,AV,2590.4759999995586,,,,1631200.2999999998,1631200.0999999996,1628592.947,1628601.5999999996,1628609.624,1631211.365,,grey
Loop,flow.Loop,2,2022-07-04T16:47:55.655Z,,,,,212629.75199999963,completion,,,1631200.5999999996,1631200.0999999996,1418553.661,1418556.1999999993,1418570.348,1631211.365,,
end,html.Page,3,2022-07-04T16:48:02.260Z,,,,,6593.734999999637,form submission,,,1637805.5999999996,1637805.0999999996,1631194.688,1631200.8999999994,1631211.365,1637815.764,,
root,flow.Sequence,,2022-07-04T16:48:02.261Z,,,,,1635816.1939999997,completion,,,1637806.7999999998,1637805.0999999996,1972.227,1981.2999999998137,1988.906,1637815.764,,