sender,sender_type,sender_id,timestamp,meta,,aud,condition,duration,ended_on,response,response_action,time_commit,time_end,time_render,time_run,time_show,time_switch,url,vis
Instructions,html.Page,0,2022-07-01T11:53:27.526Z,"{""labjs_version"":""20.2.4"",""labjs_build"":{""flavor"":""production"",""commit"":""f5b4a49f956347addd546a832a3327688c2c0fef""},""location"":""file:///C:/Users/Proband%207/Desktop/RTE/index.html"",""userAgent"":""Mozilla/5.0 (Windows NT 6.1; Win64; x64) AppleWebKit/537.36 (KHTML, like Gecko) Chrome/102.0.0.0 Safari/537.36"",""platform"":""Win32"",""language"":""de-DE"",""locale"":""de"",""timeZone"":""Europe/Berlin"",""timezoneOffset"":-120,""screen_width"":1366,""screen_height"":768,""scroll_width"":795,""scroll_height"":568,""window_innerWidth"":795,""window_innerHeight"":616,""devicePixelRatio"":1}",,,,51199.309,form submission,,,52719.30000000005,52718,1502.01,1501.6999999999534,1518.691,52735.164,{},
Change Background,canvas.Screen,1,2022-07-01T11:53:30.528Z,,,,,3001.8700000000026,timeout,,,55721.80000000005,55720.356,52701.802,52720.19999999995,52735.164,55737.034,,
Fixation,canvas.Screen,2_0_0_0,2022-07-01T11:53:32.164Z,,,1,AV,1635.3729999999996,timeout,,,57357.5,57355.725,55720.356,55722.5,55737.034,57372.407,,grey
Stimulus,canvas.Screen,2_0_0_1,2022-07-01T11:53:32.262Z,,,1,AV,98.88199999999779,timeout,,,57455.60000000009,57454.613,57355.725,57357.89999999991,57372.407,57471.289,,grey
Reaction,canvas.Screen,2_0_0_2,2022-07-01T11:53:32.595Z,,,1,AV,314.4109999999564,response,stim_detected,mousedown,57788.30000000005,57785.69999999995,57454.613,57455.80000000005,57471.289,57821.583,,grey
Trial,flow.Sequence,2_0_0,2022-07-01T11:53:32.595Z,,,1,AV,2048.665999999954,completion,,,57789.10000000009,57785.69999999995,55720.356,55722.5,55737.034,57821.583,,grey
Frame,canvas.Frame,2_0,2022-07-01T11:53:32.596Z,,,1,AV,2052.365999999907,,,,57789.80000000005,57789.39999999991,55720.356,55722.10000000009,55737.034,57821.583,,grey
Fixation,canvas.Screen,2_1_0_0,2022-07-01T11:53:34.899Z,,,0,V,2285.6589999999997,timeout,,,60093,60090.559,57788.229,57791.10000000009,57821.583,60107.242,,grey
Stimulus,canvas.Screen,2_1_0_1,2022-07-01T11:53:34.998Z,,,0,V,98.93100000000413,timeout,,,60191.60000000009,60189.498,60090.559,60093.30000000005,60107.242,60206.173,,grey
Reaction,canvas.Screen,2_1_0_2,2022-07-01T11:53:35.436Z,,,0,V,421.02699999995093,response,stim_detected,mousedown,60628.19999999995,60627.19999999995,60189.498,60192,60206.173,60640.09,,grey
Trial,flow.Sequence,2_1_0,2022-07-01T11:53:35.436Z,,,0,V,2805.6169999999547,completion,,,60628.39999999991,60627.19999999995,57788.229,57791,57821.583,60640.09,,grey
Frame,canvas.Frame,2_1,2022-07-01T11:53:35.436Z,,,0,V,2807.0170000000944,,,,60628.60000000009,60628.60000000009,57788.229,57790,57821.583,60640.09,,grey
Fixation,canvas.Screen,2_2_0_0,2022-07-01T11:53:37.601Z,,,0,V,2168.806000000004,timeout,,,62793.5,62792.213,60623.413,60629.10000000009,60640.09,62808.896,,grey
Stimulus,canvas.Screen,2_2_0_1,2022-07-01T11:53:37.700Z,,,0,V,98.90099999999802,timeout,,,62892.69999999995,62891.123,62792.213,62793.80000000005,62808.896,62907.797,,grey
Reaction,canvas.Screen,2_2_0_2,2022-07-01T11:53:37.947Z,,,0,V,229.6029999999082,response,stim_detected,mousedown,63139.60000000009,63137.39999999991,62891.123,62892.89999999991,62907.797,63141.723,,grey
Trial,flow.Sequence,2_2_0,2022-07-01T11:53:37.948Z,,,0,V,2497.3099999999104,completion,,,63140,63137.39999999991,60623.413,60629.10000000009,60640.09,63141.723,,grey
Frame,canvas.Frame,2_2,2022-07-01T11:53:37.948Z,,,0,V,2500.0100000000966,,,,63140.39999999991,63140.10000000009,60623.413,60628.69999999995,60640.09,63141.723,,grey
Fixation,canvas.Screen,2_3_0_0,2022-07-01T11:53:39.552Z,,,1,A,1618.2050000000017,timeout,,,64744.39999999991,64743.245,63125.046,63141.60000000009,63141.723,64759.928,,black
Stimulus,canvas.Screen,2_3_0_1,2022-07-01T11:53:39.652Z,,,1,A,99.56399999999849,timeout,,,64844,64842.564,64743.245,64744.69999999995,64759.928,64859.492,,black
Reaction,canvas.Screen,2_3_0_2,2022-07-01T11:53:40.346Z,,,1,A,676.9079999999085,response,stim_detected,mousedown,65538.80000000005,65536.3999999999,64842.564,64844.10000000009,64859.492,65543.249,,black
Trial,flow.Sequence,2_3_0,2022-07-01T11:53:40.347Z,,,1,A,2394.6769999999087,completion,,,65539.1000000001,65536.3999999999,63125.046,63141.5,63141.723,65543.249,,black
Frame,canvas.Frame,2_3,2022-07-01T11:53:40.347Z,,,1,A,2397.5770000000484,,,,65539.5,65539.30000000005,63125.046,63140.60000000009,63141.723,65543.249,,black
Fixation,canvas.Screen,2_4_0_0,2022-07-01T11:53:42.187Z,,,1,AV,1851.4270000000106,timeout,,,67379.69999999995,67377.997,65526.572,65540.6000000001,65543.249,67394.676,,grey
Stimulus,canvas.Screen,2_4_0_1,2022-07-01T11:53:42.287Z,,,1,AV,99.87399999999616,timeout,,,67479.80000000005,67477.873,67377.997,67380,67394.676,67494.55,,grey
Reaction,canvas.Screen,2_4_0_2,2022-07-01T11:53:42.516Z,,,1,AV,211.75000000004366,response,stim_detected,mousedown,67708.3999999999,67706.30000000005,67477.873,67480,67494.55,67711.354,,grey
Trial,flow.Sequence,2_4_0,2022-07-01T11:53:42.517Z,,,1,AV,2163.0510000000504,completion,,,67708.80000000005,67706.30000000005,65526.572,65540.6000000001,65543.249,67711.354,,grey
Frame,canvas.Frame,2_4,2022-07-01T11:53:42.517Z,,,1,AV,2165.751000000004,,,,67709.19999999995,67709,65526.572,65539.6000000001,65543.249,67711.354,,grey
Fixation,canvas.Screen,2_5_0_0,2022-07-01T11:53:44.838Z,,,1,AV,2333.077999999994,timeout,,,70029.8999999999,70027.766,67694.677,67710.3999999999,67711.354,70044.432,,grey
Stimulus,canvas.Screen,2_5_0_1,2022-07-01T11:53:44.938Z,,,1,AV,101.8350000000064,timeout,,,70130.69999999995,70129.59,70027.766,70030.19999999995,70044.432,70146.267,,grey
Reaction,canvas.Screen,2_5_0_2,2022-07-01T11:53:45.138Z,,,1,AV,181.93299999994633,response,stim_detected,mousedown,70329.8999999999,70328.19999999995,70129.59,70130.8999999999,70146.267,70346.325,,grey
Trial,flow.Sequence,2_5_0,2022-07-01T11:53:45.138Z,,,1,AV,2616.845999999947,completion,,,70330.19999999995,70328.19999999995,67694.677,67710.30000000005,67711.354,70346.325,,grey
Frame,canvas.Frame,2_5,2022-07-01T11:53:45.138Z,,,1,AV,2619.0459999999002,,,,70330.6000000001,70330.3999999999,67694.677,67709.30000000005,67711.354,70346.325,,grey
Fixation,canvas.Screen,2_6_0_0,2022-07-01T11:53:46.957Z,,,1,AV,1818.69200000001,timeout,,,72149.6000000001,72148.332,70329.648,70332.69999999995,70346.325,72165.017,,grey
Stimulus,canvas.Screen,2_6_0_1,2022-07-01T11:53:47.056Z,,,1,AV,99.11099999998987,timeout,,,72248.6000000001,72247.452,72148.332,72150.30000000005,72165.017,72264.128,,grey
Reaction,canvas.Screen,2_6_0_2,2022-07-01T11:53:47.262Z,,,1,AV,187.97200000009616,response,stim_detected,mousedown,72453.8999999999,72452.1000000001,72247.452,72248.80000000005,72264.128,72464.389,,grey
Trial,flow.Sequence,2_6_0,2022-07-01T11:53:47.262Z,,,1,AV,2105.775000000096,completion,,,72454.19999999995,72452.1000000001,70329.648,70332.6000000001,70346.325,72464.389,,grey
Frame,canvas.Frame,2_6,2022-07-01T11:53:47.262Z,,,1,AV,2107.9750000000495,,,,72454.6000000001,72454.30000000005,70329.648,70331.6000000001,70346.325,72464.389,,grey
Fixation,canvas.Screen,2_7_0_0,2022-07-01T11:53:49.341Z,,,1,A,2083.9349999999977,timeout,,,74532.80000000005,74531.652,72447.712,72455.80000000005,72464.389,74548.324,,black
Stimulus,canvas.Screen,2_7_0_1,2022-07-01T11:53:49.441Z,,,1,A,101.00800000000163,timeout,,,74633.5,74632.653,74531.652,74533.1000000001,74548.324,74649.332,,black
Reaction,canvas.Screen,2_7_0_2,2022-07-01T11:53:49.853Z,,,1,A,393.76800000009825,response,stim_detected,mousedown,75044.80000000005,75043.1000000001,74632.653,74633.69999999995,74649.332,75049.385,,black
Trial,flow.Sequence,2_7_0,2022-07-01T11:53:49.853Z,,,1,A,2578.7110000000976,completion,,,75045.19999999995,75043.1000000001,72447.712,72455.69999999995,72464.389,75049.385,,black
Frame,canvas.Frame,2_7,2022-07-01T11:53:49.853Z,,,1,A,2580.911000000051,,,,75045.5,75045.30000000005,72447.712,72454.69999999995,72464.389,75049.385,,black
Fixation,canvas.Screen,2_8_0_0,2022-07-01T11:53:51.658Z,,,0,V,1817.0070000000123,timeout,,,76850.19999999995,76849.721,75032.708,75046.69999999995,75049.385,76866.392,,grey
Stimulus,canvas.Screen,2_8_0_1,2022-07-01T11:53:51.759Z,,,0,V,100.72599999999511,timeout,,,76951.6000000001,76950.442,76849.721,76850.3999999999,76866.392,76967.118,,grey
Reaction,canvas.Screen,2_8_0_2,2022-07-01T11:53:52.096Z,,,0,V,319.8819999999978,response,stim_detected,mousedown,77288.69999999995,77287,76950.442,76951.8999999999,76967.118,77300.83,,grey
Trial,flow.Sequence,2_8_0,2022-07-01T11:53:52.097Z,,,0,V,2237.6150000000052,completion,,,77289,77287,75032.708,75046.6000000001,75049.385,77300.83,,grey
Frame,canvas.Frame,2_8,2022-07-01T11:53:52.097Z,,,0,V,2239.8149999999587,,,,77289.3999999999,77289.19999999995,75032.708,75045.6000000001,75049.385,77300.83,,grey
Fixation,canvas.Screen,2_9_0_0,2022-07-01T11:53:54.061Z,,,1,AV,1967.8879999999917,timeout,,,79253.69999999995,79252.041,77284.153,77290.6000000001,77300.83,79268.718,,grey
Stimulus,canvas.Screen,2_9_0_1,2022-07-01T11:53:54.161Z,,,1,AV,100.00900000000547,timeout,,,79353.69999999995,79352.051,79252.041,79253.8999999999,79268.718,79368.727,,grey
Reaction,canvas.Screen,2_9_0_2,2022-07-01T11:53:54.380Z,,,1,AV,201.27300000000105,response,stim_detected,mousedown,79572.30000000005,79570,79352.051,79353.8999999999,79368.727,79585.634,,grey
Trial,flow.Sequence,2_9_0,2022-07-01T11:53:54.380Z,,,1,AV,2269.1699999999983,completion,,,79572.6000000001,79570,77284.153,77290.5,77300.83,79585.634,,grey
Frame,canvas.Frame,2_9,2022-07-01T11:53:54.381Z,,,1,AV,2271.970000000045,,,,79572.8999999999,79572.80000000005,77284.153,77289.6000000001,77300.83,79585.634,,grey
Fixation,canvas.Screen,2_10_0_0,2022-07-01T11:53:56.380Z,,,1,A,2001.4700000000012,timeout,,,81571.8999999999,81570.425,79568.957,79574.1000000001,79585.634,81587.104,,black
Stimulus,canvas.Screen,2_10_0_1,2022-07-01T11:53:56.480Z,,,1,A,99.44399999998859,timeout,,,81671.80000000005,81669.874,81570.425,81572.19999999995,81587.104,81686.548,,black
Reaction,canvas.Screen,2_10_0_2,2022-07-01T11:53:56.782Z,,,1,A,285.25200000005134,response,stim_detected,mousedown,81973.80000000005,81971.80000000005,81669.874,81672.1000000001,81686.548,81987.19,,black
Trial,flow.Sequence,2_10_0,2022-07-01T11:53:56.782Z,,,1,A,2386.166000000041,completion,,,81974.19999999995,81971.80000000005,79568.957,79574.1000000001,79585.634,81987.19,,black
Frame,canvas.Frame,2_10,2022-07-01T11:53:56.782Z,,,1,A,2388.7659999999014,,,,81974.5,81974.3999999999,79568.957,79573.19999999995,79585.634,81987.19,,black
Fixation,canvas.Screen,2_11_0_0,2022-07-01T11:53:58.865Z,,,1,AV,2084.625,timeout,,,84056.80000000005,84055.138,81970.513,81975.69999999995,81987.19,84071.815,,grey
Stimulus,canvas.Screen,2_11_0_1,2022-07-01T11:53:58.965Z,,,1,AV,99.95500000000175,timeout,,,84156.80000000005,84155.094,84055.138,84057,84071.815,84171.77,,grey
Reaction,canvas.Screen,2_11_0_2,2022-07-01T11:53:59.177Z,,,1,AV,196.0300000000425,response,stim_detected,mousedown,84369.5,84367.80000000005,84155.094,84157,84171.77,84372.063,,grey
Trial,flow.Sequence,2_11_0,2022-07-01T11:53:59.178Z,,,1,AV,2380.6100000000442,completion,,,84369.80000000005,84367.80000000005,81970.513,81975.6000000001,81987.19,84372.063,,grey
Frame,canvas.Frame,2_11,2022-07-01T11:53:59.178Z,,,1,AV,2382.7099999999045,,,,84370.1000000001,84369.8999999999,81970.513,81974.80000000005,81987.19,84372.063,,grey
Fixation,canvas.Screen,2_12_0_0,2022-07-01T11:54:01.449Z,,,1,AV,2284.6080000000075,timeout,,,86641.69999999995,86639.995,84355.386,84371.1000000001,84372.063,86656.671,,grey
Stimulus,canvas.Screen,2_12_0_1,2022-07-01T11:54:01.550Z,,,1,AV,100.23600000000442,timeout,,,86742,86740.23,86639.995,86642,86656.671,86756.907,,grey
Reaction,canvas.Screen,2_12_0_2,2022-07-01T11:54:01.753Z,,,1,AV,186.79299999994691,response,stim_detected,mousedown,86945.30000000005,86943.69999999995,86740.23,86742.30000000005,86756.907,86957.056,,grey
Trial,flow.Sequence,2_12_0,2022-07-01T11:54:01.753Z,,,1,AV,2571.636999999959,completion,,,86945.6000000001,86943.69999999995,84355.386,84371,84372.063,86957.056,,grey
Frame,canvas.Frame,2_12,2022-07-01T11:54:01.754Z,,,1,AV,2573.737000000052,,,,86946,86945.80000000005,84355.386,84370.30000000005,84372.063,86957.056,,grey
Fixation,canvas.Screen,2_13_0_0,2022-07-01T11:54:04.218Z,,,1,A,2468.2060000000056,timeout,,,89410.3999999999,89408.585,86940.379,86947.1000000001,86957.056,89425.262,,black
Stimulus,canvas.Screen,2_13_0_1,2022-07-01T11:54:04.318Z,,,1,A,100.00199999999313,timeout,,,89510,89508.588,89408.585,89410.69999999995,89425.262,89525.264,,black
Reaction,canvas.Screen,2_13_0_2,2022-07-01T11:54:04.977Z,,,1,A,642.3360000000976,response,stim_detected,mousedown,90169.19999999995,90167.6000000001,89508.588,89510.30000000005,89525.264,90175.784,,black
Trial,flow.Sequence,2_13_0,2022-07-01T11:54:04.977Z,,,1,A,3210.5440000000963,completion,,,90169.6000000001,90167.6000000001,86940.379,86946.8999999999,86957.056,90175.784,,black
Frame,canvas.Frame,2_13,2022-07-01T11:54:04.978Z,,,1,A,3212.7440000000497,,,,90169.8999999999,90169.80000000005,86940.379,86946.1000000001,86957.056,90175.784,,black
Fixation,canvas.Screen,2_14_0_0,2022-07-01T11:54:07.404Z,,,0,V,2435.2949999999983,timeout,,,92596.19999999995,92594.399,90159.107,90171.3999999999,90175.784,92611.079,,grey
Stimulus,canvas.Screen,2_14_0_1,2022-07-01T11:54:07.503Z,,,0,V,99.64900000000489,timeout,,,92695.19999999995,92693.967,92594.399,92596.3999999999,92611.079,92710.728,,grey
Reaction,canvas.Screen,2_14_0_2,2022-07-01T11:54:07.898Z,,,0,V,377.6719999999041,response,stim_detected,mousedown,93090.19999999995,93088.3999999999,92693.967,92695.5,92710.728,93094.299,,grey
Trial,flow.Sequence,2_14_0,2022-07-01T11:54:07.898Z,,,0,V,2912.615999999907,completion,,,93090.5,93088.3999999999,90159.107,90171.30000000005,90175.784,93094.299,,grey
Frame,canvas.Frame,2_14,2022-07-01T11:54:07.899Z,,,0,V,2914.8160000000935,,,,93090.80000000005,93090.6000000001,90159.107,90170.1000000001,90175.784,93094.299,,grey
Fixation,canvas.Screen,2_15_0_0,2022-07-01T11:54:09.606Z,,,1,AV,1718.7829999999958,timeout,,,94798.1000000001,94796.396,93077.622,93092.19999999995,93094.299,94813.082,,grey
Stimulus,canvas.Screen,2_15_0_1,2022-07-01T11:54:09.705Z,,,1,AV,99.11100000000442,timeout,,,94897.1000000001,94895.463,94796.396,94798.5,94813.082,94912.193,,grey
Reaction,canvas.Screen,2_15_0_2,2022-07-01T11:54:09.910Z,,,1,AV,188.20699999990757,response,stim_detected,mousedown,95102.30000000005,95100.3999999999,94895.463,94897.30000000005,94912.193,95128.994,,grey
Trial,flow.Sequence,2_15_0,2022-07-01T11:54:09.910Z,,,1,AV,2006.1009999999078,completion,,,95102.69999999995,95100.3999999999,93077.622,93092.1000000001,93094.299,95128.994,,grey
Frame,canvas.Frame,2_15,2022-07-01T11:54:09.911Z,,,1,AV,2008.5010000000475,,,,95103,95102.80000000005,93077.622,93091.1000000001,93094.299,95128.994,,grey
Fixation,canvas.Screen,2_16_0_0,2022-07-01T11:54:12.290Z,,,1,A,2367.98599999999,timeout,,,97482.30000000005,97480.304,95095.64,95104.19999999995,95128.994,97496.98,,black
Stimulus,canvas.Screen,2_16_0_1,2022-07-01T11:54:12.390Z,,,1,A,100.15200000000186,timeout,,,97582.19999999995,97580.456,97480.304,97482.69999999995,97496.98,97597.132,,black
Reaction,canvas.Screen,2_16_0_2,2022-07-01T11:54:12.619Z,,,1,A,212.16800000004878,response,stim_detected,mousedown,97810.8999999999,97809.30000000005,97580.456,97582.3999999999,97597.132,97814.061,,black
Trial,flow.Sequence,2_16_0,2022-07-01T11:54:12.619Z,,,1,A,2680.3060000000405,completion,,,97811.5,97809.30000000005,95095.64,95104.1000000001,95128.994,97814.061,,black
Frame,canvas.Frame,2_16,2022-07-01T11:54:12.620Z,,,1,A,2682.7059999999474,,,,97811.80000000005,97811.69999999995,95095.64,95103.19999999995,95128.994,97814.061,,black
Fixation,canvas.Screen,2_17_0_0,2022-07-01T11:54:14.974Z,,,0,V,2367.668000000005,timeout,,,100166.30000000005,100165.055,97797.384,97813,97814.061,100181.729,,grey
Stimulus,canvas.Screen,2_17_0_1,2022-07-01T11:54:15.074Z,,,0,V,100.05799999998999,timeout,,,100266.30000000005,100265.113,100165.055,100166.5,100181.729,100281.787,,grey
Reaction,canvas.Screen,2_17_0_2,2022-07-01T11:54:15.302Z,,,0,V,210.4129999999568,response,stim_detected,mousedown,100493.80000000005,100492.19999999995,100265.113,100266.5,100281.787,100499.102,,grey
Trial,flow.Sequence,2_17_0,2022-07-01T11:54:15.302Z,,,0,V,2678.138999999952,completion,,,100494.19999999995,100492.19999999995,97797.384,97812.8999999999,97814.061,100499.102,,grey
Frame,canvas.Frame,2_17,2022-07-01T11:54:15.302Z,,,0,V,2680.239000000045,,,,100494.5,100494.30000000005,97797.384,97812,97814.061,100499.102,,grey
Fixation,canvas.Screen,2_18_0_0,2022-07-01T11:54:17.777Z,,,1,A,2485.3150000000023,timeout,,,102969.30000000005,102967.737,100482.425,100495.6000000001,100499.102,102984.417,,black
Stimulus,canvas.Screen,2_18_0_1,2022-07-01T11:54:17.876Z,,,1,A,99.07799999999406,timeout,,,103068.5,103066.822,102967.737,102969.5,102984.417,103083.495,,black
Reaction,canvas.Screen,2_18_0_2,2022-07-01T11:54:18.137Z,,,1,A,243.6050000000978,response,stim_detected,mousedown,103328.8999999999,103327.1000000001,103066.822,103068.80000000005,103083.495,103334.265,,black
Trial,flow.Sequence,2_18_0,2022-07-01T11:54:18.137Z,,,1,A,2827.998000000094,completion,,,103329.30000000005,103327.1000000001,100482.425,100495.5,100499.102,103334.265,,black
Frame,canvas.Frame,2_18,2022-07-01T11:54:18.137Z,,,1,A,2830.398000000001,,,,103329.69999999995,103329.5,100482.425,100494.69999999995,100499.102,103334.265,,black
Fixation,canvas.Screen,2_19_0_0,2022-07-01T11:54:20.327Z,,,1,A,2200.327999999994,timeout,,,105519.30000000005,105517.923,103317.588,103330.80000000005,103334.265,105534.593,,black
Stimulus,canvas.Screen,2_19_0_1,2022-07-01T11:54:20.429Z,,,1,A,101.1710000000021,timeout,,,105621.19999999995,105619.086,105517.923,105519.69999999995,105534.593,105635.764,,black
Reaction,canvas.Screen,2_19_0_2,2022-07-01T11:54:20.754Z,,,1,A,309.2360000000044,response,stim_detected,mousedown,105946.6000000001,105945,105619.086,105621.5,105635.764,105952.579,,black
Trial,flow.Sequence,2_19_0,2022-07-01T11:54:20.755Z,,,1,A,2610.7350000000006,completion,,,105947,105945,103317.588,103330.69999999995,103334.265,105952.579,,black
Frame,canvas.Frame,2_19,2022-07-01T11:54:20.755Z,,,1,A,2612.8350000000937,,,,105947.3999999999,105947.1000000001,103317.588,103329.8999999999,103334.265,105952.579,,black
Fixation,canvas.Screen,2_20_0_0,2022-07-01T11:54:22.981Z,,,1,AV,2236.0880000000034,timeout,,,108173.6000000001,108171.98,105935.902,105948.80000000005,105952.579,108188.667,,grey
Stimulus,canvas.Screen,2_20_0_1,2022-07-01T11:54:23.080Z,,,1,AV,98.80599999999686,timeout,,,108272.3999999999,108270.796,108171.98,108173.80000000005,108188.667,108287.473,,grey
Reaction,canvas.Screen,2_20_0_2,2022-07-01T11:54:23.278Z,,,1,AV,181.52700000000186,response,stim_detected,mousedown,108470.5,108469,108270.796,108272.6000000001,108287.473,108487.605,,grey
Trial,flow.Sequence,2_20_0,2022-07-01T11:54:23.279Z,,,1,AV,2516.421000000002,completion,,,108471.1000000001,108469,105935.902,105948.3999999999,105952.579,108487.605,,grey
Frame,canvas.Frame,2_20,2022-07-01T11:54:23.279Z,,,1,AV,2518.6209999999555,,,,108471.5,108471.19999999995,105935.902,105947.6000000001,105952.579,108487.605,,grey
Fixation,canvas.Screen,2_21_0_0,2022-07-01T11:54:25.681Z,,,1,A,2401.0130000000063,timeout,,,110873.69999999995,110871.944,108470.928,108472.80000000005,108487.605,110888.618,,black
Stimulus,canvas.Screen,2_21_0_1,2022-07-01T11:54:25.782Z,,,1,A,99.78599999999278,timeout,,,110973.80000000005,110971.732,110871.944,110873.8999999999,110888.618,110988.404,,black
Reaction,canvas.Screen,2_21_0_2,2022-07-01T11:54:26.058Z,,,1,A,260.4959999999119,response,stim_detected,mousedown,111250.69999999995,111248.8999999999,110971.732,110974.1000000001,110988.404,111256.025,,black
Trial,flow.Sequence,2_21_0,2022-07-01T11:54:26.059Z,,,1,A,2761.294999999911,completion,,,111251.1000000001,111248.8999999999,108470.928,108472.80000000005,108487.605,111256.025,,black
Frame,canvas.Frame,2_21,2022-07-01T11:54:26.059Z,,,1,A,2763.6950000000506,,,,111251.3999999999,111251.30000000005,108470.928,108471.8999999999,108487.605,111256.025,,black
Fixation,canvas.Screen,2_22_0_0,2022-07-01T11:54:28.132Z,,,0,V,2084.063000000009,timeout,,,113324.3999999999,113323.415,111239.348,111252.6000000001,111256.025,113340.088,,grey
Stimulus,canvas.Screen,2_22_0_1,2022-07-01T11:54:28.233Z,,,0,V,100.63099999999395,timeout,,,113425.69999999995,113424.042,113323.415,113324.69999999995,113340.088,113440.719,,grey
Reaction,canvas.Screen,2_22_0_2,2022-07-01T11:54:28.486Z,,,0,V,236.08100000004924,response,stim_detected,mousedown,113678.5,113676.80000000005,113424.042,113426,113440.719,113690.893,,grey
Trial,flow.Sequence,2_22_0,2022-07-01T11:54:28.487Z,,,0,V,2420.7750000000524,completion,,,113678.8999999999,113676.80000000005,111239.348,111252.5,111256.025,113690.893,,grey
Frame,canvas.Frame,2_22,2022-07-01T11:54:28.487Z,,,0,V,2423.075000000099,,,,113679.19999999995,113679.1000000001,111239.348,111251.6000000001,111256.025,113690.893,,grey
Fixation,canvas.Screen,2_23_0_0,2022-07-01T11:54:30.853Z,,,1,A,2369.648000000001,timeout,,,116045.5,116043.854,113674.216,113680.69999999995,113690.893,116060.541,,black
Stimulus,canvas.Screen,2_23_0_1,2022-07-01T11:54:30.951Z,,,1,A,98.54000000000815,timeout,,,116143.5,116142.405,116043.854,116045.80000000005,116060.541,116159.081,,black
Reaction,canvas.Screen,2_23_0_2,2022-07-01T11:54:31.320Z,,,1,A,351.51900000008754,response,stim_detected,mousedown,116512.30000000005,116510.6000000001,116142.405,116143.69999999995,116159.081,116526.078,,black
Trial,flow.Sequence,2_23_0,2022-07-01T11:54:31.320Z,,,1,A,2819.7070000000967,completion,,,116512.69999999995,116510.6000000001,113674.216,113680.6000000001,113690.893,116526.078,,black
Frame,canvas.Frame,2_23,2022-07-01T11:54:31.321Z,,,1,A,2821.90700000005,,,,116513,116512.80000000005,113674.216,113679.5,113690.893,116526.078,,black
Fixation,canvas.Screen,2_24_0_0,2022-07-01T11:54:33.503Z,,,0,V,2185.136000000013,timeout,,,118695.69999999995,118694.534,116509.401,116514.30000000005,116526.078,118711.214,,grey
Stimulus,canvas.Screen,2_24_0_1,2022-07-01T11:54:33.603Z,,,0,V,99.6469999999972,timeout,,,118795.6000000001,118794.184,118694.534,118696,118711.214,118810.861,,grey
Reaction,canvas.Screen,2_24_0_2,2022-07-01T11:54:33.848Z,,,0,V,227.7390000000887,response,stim_detected,mousedown,119040.3999999999,119038.6000000001,118794.184,118795.8999999999,118810.861,119044.321,,grey
Trial,flow.Sequence,2_24_0,2022-07-01T11:54:33.849Z,,,0,V,2512.522000000099,completion,,,119040.80000000005,119038.6000000001,116509.401,116514.19999999995,116526.078,119044.321,,grey
Frame,canvas.Frame,2_24,2022-07-01T11:54:33.849Z,,,0,V,2514.922000000006,,,,119041.30000000005,119041,116509.401,116513.19999999995,116526.078,119044.321,,grey
Fixation,canvas.Screen,2_25_0_0,2022-07-01T11:54:35.574Z,,,1,A,1735.8580000000075,timeout,,,120764.6000000001,120763.49,119027.645,119042.69999999995,119044.321,120780.179,,black
Stimulus,canvas.Screen,2_25_0_1,2022-07-01T11:54:35.673Z,,,1,A,98.58299999999872,timeout,,,120863.69999999995,120862.086,120763.49,120764.8999999999,120780.179,120878.762,,black
Reaction,canvas.Screen,2_25_0_2,2022-07-01T11:54:35.999Z,,,1,A,308.73799999999756,response,stim_detected,mousedown,121189.19999999995,121187.5,120862.086,120864.19999999995,120878.762,121212.433,,black
Trial,flow.Sequence,2_25_0,2022-07-01T11:54:35.999Z,,,1,A,2143.1790000000037,completion,,,121189.5,121187.5,119027.645,119042.5,119044.321,121212.433,,black
Frame,canvas.Frame,2_25,2022-07-01T11:54:36.000Z,,,1,A,2145.279000000097,,,,121189.80000000005,121189.6000000001,119027.645,119041.3999999999,119044.321,121212.433,,black
Fixation,canvas.Screen,2_26_0_0,2022-07-01T11:54:37.825Z,,,1,AV,1818.0249999999942,timeout,,,123015.69999999995,123013.779,121179.079,121191.1000000001,121212.433,123030.458,,grey
Stimulus,canvas.Screen,2_26_0_1,2022-07-01T11:54:37.924Z,,,1,AV,99.80000000000291,timeout,,,123114.6000000001,123113.582,123013.779,123016.1000000001,123030.458,123130.258,,grey
Reaction,canvas.Screen,2_26_0_2,2022-07-01T11:54:38.135Z,,,1,AV,193.14199999990524,response,stim_detected,mousedown,123325.1000000001,123323.3999999999,123113.582,123114.8999999999,123130.258,123330.456,,grey
Trial,flow.Sequence,2_26_0,2022-07-01T11:54:38.135Z,,,1,AV,2110.9669999999023,completion,,,123325.6000000001,123323.3999999999,121179.079,121191,121212.433,123330.456,,grey
Frame,canvas.Frame,2_26,2022-07-01T11:54:38.136Z,,,1,AV,2113.266999999949,,,,123325.80000000005,123325.69999999995,121179.079,121190.1000000001,121212.433,123330.456,,grey
Fixation,canvas.Screen,2_27_0_0,2022-07-01T11:54:40.494Z,,,1,AV,2368.6149999999907,timeout,,,125683.8999999999,125682.391,123313.779,123327.1000000001,123330.456,125699.071,,grey
Stimulus,canvas.Screen,2_27_0_1,2022-07-01T11:54:40.594Z,,,1,AV,99.54499999999825,timeout,,,125784,125781.94,125682.391,125684.1000000001,125699.071,125798.616,,grey
Reaction,canvas.Screen,2_27_0_2,2022-07-01T11:54:40.745Z,,,1,AV,134.68400000005204,response,stim_detected,mousedown,125935.1000000001,125933.30000000005,125781.94,125784.19999999995,125798.616,125948.824,,grey
Trial,flow.Sequence,2_27_0,2022-07-01T11:54:40.745Z,,,1,AV,2602.844000000041,completion,,,125935.5,125933.30000000005,123313.779,123327,123330.456,125948.824,,grey
Frame,canvas.Frame,2_27,2022-07-01T11:54:40.745Z,,,1,AV,2605.1440000000875,,,,125935.69999999995,125935.6000000001,123313.779,123326.1000000001,123330.456,125948.824,,grey
Fixation,canvas.Screen,2_28_0_0,2022-07-01T11:54:42.345Z,,,1,AV,1601.3040000000037,timeout,,,127535.1000000001,127533.448,125932.147,125937.1000000001,125948.824,127550.128,,grey
Stimulus,canvas.Screen,2_28_0_1,2022-07-01T11:54:42.444Z,,,1,AV,99.63199999999779,timeout,,,127634.80000000005,127633.085,127533.448,127535.30000000005,127550.128,127649.76,,grey
Reaction,canvas.Screen,2_28_0_2,2022-07-01T11:54:42.700Z,,,1,AV,238.5400000000518,response,stim_detected,mousedown,127890.19999999995,127888.30000000005,127633.085,127635,127649.76,127900.071,,grey
Trial,flow.Sequence,2_28_0,2022-07-01T11:54:42.700Z,,,1,AV,1939.4760000000533,completion,,,127890.5,127888.30000000005,125932.147,125937.1000000001,125948.824,127900.071,,grey
Frame,canvas.Frame,2_28,2022-07-01T11:54:42.701Z,,,1,AV,1941.8759999999602,,,,127890.8999999999,127890.69999999995,125932.147,125936,125948.824,127900.071,,grey
Fixation,canvas.Screen,2_29_0_0,2022-07-01T11:54:44.863Z,,,1,AV,2168.438000000009,timeout,,,130052.80000000005,130051.829,127883.394,127892,127900.071,130068.509,,grey
Stimulus,canvas.Screen,2_29_0_1,2022-07-01T11:54:44.963Z,,,1,AV,99.46600000000035,timeout,,,130153,130151.3,130051.829,130053,130068.509,130167.975,,grey
Reaction,canvas.Screen,2_29_0_2,2022-07-01T11:54:45.324Z,,,1,AV,345.1250000000873,response,stim_detected,mousedown,130514.80000000005,130513.1000000001,130151.3,130153.19999999995,130167.975,130518.422,,grey
Trial,flow.Sequence,2_29_0,2022-07-01T11:54:45.325Z,,,1,AV,2613.029000000097,completion,,,130515.19999999995,130513.1000000001,127883.394,127891.8999999999,127900.071,130518.422,,grey
Frame,canvas.Frame,2_29,2022-07-01T11:54:45.325Z,,,1,AV,2615.2290000000503,,,,130515.5,130515.30000000005,127883.394,127891.1000000001,127900.071,130518.422,,grey
Fixation,canvas.Screen,2_30_0_0,2022-07-01T11:54:47.231Z,,,0,V,1918.1979999999894,timeout,,,132420.8999999999,132419.94,130501.745,130516.6000000001,130518.422,132436.62,,grey
Stimulus,canvas.Screen,2_30_0_1,2022-07-01T11:54:47.331Z,,,0,V,99.3859999999986,timeout,,,132520.80000000005,132519.332,132419.94,132421.30000000005,132436.62,132536.006,,grey
Reaction,canvas.Screen,2_30_0_2,2022-07-01T11:54:47.529Z,,,0,V,181.1939999999595,response,stim_detected,mousedown,132718.80000000005,132717.19999999995,132519.332,132521.1000000001,132536.006,132736.518,,grey
Trial,flow.Sequence,2_30_0,2022-07-01T11:54:47.529Z,,,0,V,2198.7779999999475,completion,,,132719.80000000005,132717.19999999995,130501.745,130516.5,130518.422,132736.518,,grey
Frame,canvas.Frame,2_30,2022-07-01T11:54:47.530Z,,,0,V,2201.7779999999475,,,,132720.3999999999,132720.19999999995,130501.745,130515.6000000001,130518.422,132736.518,,grey
Fixation,canvas.Screen,2_31_0_0,2022-07-01T11:54:49.882Z,,,1,AV,2350.997000000003,timeout,,,135072,135070.841,132719.841,132721.69999999995,132736.518,135087.515,,grey
Stimulus,canvas.Screen,2_31_0_1,2022-07-01T11:54:49.982Z,,,1,AV,100.6699999999837,timeout,,,135172.6000000001,135171.507,135070.841,135072.19999999995,135087.515,135188.185,,grey
Reaction,canvas.Screen,2_31_0_2,2022-07-01T11:54:50.146Z,,,1,AV,146.81500000000233,response,stim_detected,mousedown,135336.69999999995,135335,135171.507,135172.80000000005,135188.185,135338.168,,grey
Trial,flow.Sequence,2_31_0,2022-07-01T11:54:50.147Z,,,1,AV,2598.481999999989,completion,,,135337.1000000001,135335,132719.841,132721.69999999995,132736.518,135338.168,,grey
Frame,canvas.Frame,2_31,2022-07-01T11:54:50.147Z,,,1,AV,2600.6819999999425,,,,135337.3999999999,135337.19999999995,132719.841,132720.80000000005,132736.518,135338.168,,grey
Fixation,canvas.Screen,2_32_0_0,2022-07-01T11:54:52.068Z,,,1,A,1935.4780000000028,timeout,,,137258,137256.961,135321.491,135339.30000000005,135338.168,137273.646,,black
Stimulus,canvas.Screen,2_32_0_1,2022-07-01T11:54:52.167Z,,,1,A,99.19999999998254,timeout,,,137357,137355.924,137256.961,137258.30000000005,137273.646,137372.846,,black
Reaction,canvas.Screen,2_32_0_2,2022-07-01T11:54:52.501Z,,,1,A,317.15400000000955,response,stim_detected,mousedown,137691.80000000005,137690,137355.924,137357.30000000005,137372.846,137706.386,,black
Trial,flow.Sequence,2_32_0,2022-07-01T11:54:52.502Z,,,1,A,2351.831999999995,completion,,,137692.19999999995,137690,135321.491,135339.1000000001,135338.168,137706.386,,black
Frame,canvas.Frame,2_32,2022-07-01T11:54:52.502Z,,,1,A,2354.0319999999483,,,,137692.5,137692.19999999995,135321.491,135337.6000000001,135338.168,137706.386,,black
Fixation,canvas.Screen,2_33_0_0,2022-07-01T11:54:54.968Z,,,0,V,2467.350999999995,timeout,,,140158.30000000005,140157.065,137689.709,137693.6000000001,137706.386,140173.737,,grey
Stimulus,canvas.Screen,2_33_0_1,2022-07-01T11:54:55.069Z,,,0,V,100.99900000001071,timeout,,,140259.1000000001,140258.059,140157.065,140158.5,140173.737,140274.736,,grey
Reaction,canvas.Screen,2_33_0_2,2022-07-01T11:54:55.293Z,,,0,V,207.16399999990244,response,stim_detected,mousedown,140483.3999999999,140481.8999999999,140258.059,140259.3999999999,140274.736,140491.477,,grey
Trial,flow.Sequence,2_33_0,2022-07-01T11:54:55.293Z,,,0,V,2775.5139999999083,completion,,,140483.80000000005,140481.8999999999,137689.709,137693.5,137706.386,140491.477,,grey
Frame,canvas.Frame,2_33,2022-07-01T11:54:55.294Z,,,0,V,2777.5139999999083,,,,140484.1000000001,140483.8999999999,137689.709,137692.69999999995,137706.386,140491.477,,grey
Fixation,canvas.Screen,2_34_0_0,2022-07-01T11:54:56.988Z,,,0,V,1701.6259999999893,timeout,,,142178.1000000001,142176.421,140474.8,140485.30000000005,140491.477,142193.103,,grey
Stimulus,canvas.Screen,2_34_0_1,2022-07-01T11:54:57.087Z,,,0,V,99.57500000001164,timeout,,,142277.1000000001,142276.001,142176.421,142178.30000000005,142193.103,142292.678,,grey
Reaction,canvas.Screen,2_34_0_2,2022-07-01T11:54:57.395Z,,,0,V,291.021999999939,response,stim_detected,mousedown,142585.3999999999,142583.69999999995,142276.001,142277.30000000005,142292.678,142592.85,,grey
Trial,flow.Sequence,2_34_0,2022-07-01T11:54:57.395Z,,,0,V,2092.22299999994,completion,,,142585.80000000005,142583.69999999995,140474.8,140485.19999999995,140491.477,142592.85,,grey
Frame,canvas.Frame,2_34,2022-07-01T11:54:57.396Z,,,0,V,2094.4229999998934,,,,142586.1000000001,142585.8999999999,140474.8,140484.30000000005,140491.477,142592.85,,grey
Fixation,canvas.Screen,2_35_0_0,2022-07-01T11:54:58.922Z,,,1,A,1534.5149999999849,timeout,,,144112.1000000001,144110.686,142576.173,142587.30000000005,142592.85,144127.365,,black
Stimulus,canvas.Screen,2_35_0_1,2022-07-01T11:54:59.022Z,,,1,A,99.85700000001816,timeout,,,144212.19999999995,144210.545,144110.686,144112.30000000005,144127.365,144227.222,,black
Reaction,canvas.Screen,2_35_0_2,2022-07-01T11:54:59.344Z,,,1,A,304.4779999999446,response,stim_detected,mousedown,144533.80000000005,144531.69999999995,144210.545,144212.5,144227.222,144544.112,,black
Trial,flow.Sequence,2_35_0,2022-07-01T11:54:59.344Z,,,1,A,1938.8499999999476,completion,,,144534.5,144531.69999999995,142576.173,142587.1000000001,142592.85,144544.112,,black
Frame,canvas.Frame,2_35,2022-07-01T11:54:59.345Z,,,1,A,1941.7500000000873,,,,144534.8999999999,144534.6000000001,142576.173,142586.19999999995,142592.85,144544.112,,black
Fixation,canvas.Screen,2_36_0_0,2022-07-01T11:55:01.124Z,,,0,V,1785.326000000001,timeout,,,146314.19999999995,146312.753,144527.435,144536.30000000005,144544.112,146329.438,,grey
Stimulus,canvas.Screen,2_36_0_1,2022-07-01T11:55:01.223Z,,,0,V,99.25299999999697,timeout,,,146413.1000000001,146412.014,146312.753,146314.5,146329.438,146428.691,,grey
Reaction,canvas.Screen,2_36_0_2,2022-07-01T11:55:01.460Z,,,0,V,219.9090000001015,response,stim_detected,mousedown,146650.5,146648.6000000001,146412.014,146413.3999999999,146428.691,146662.107,,grey
Trial,flow.Sequence,2_36_0,2022-07-01T11:55:01.461Z,,,0,V,2104.4880000000994,completion,,,146650.8999999999,146648.6000000001,144527.435,144536.19999999995,144544.112,146662.107,,grey
Frame,canvas.Frame,2_36,2022-07-01T11:55:01.461Z,,,0,V,2106.8880000000063,,,,146651.1000000001,146651,144527.435,144535.1000000001,144544.112,146662.107,,grey
Fixation,canvas.Screen,2_37_0_0,2022-07-01T11:55:03.092Z,,,0,V,1635.19200000001,timeout,,,148282.30000000005,148280.614,146645.431,146652.30000000005,146662.107,148297.299,,grey
Stimulus,canvas.Screen,2_37_0_1,2022-07-01T11:55:03.191Z,,,0,V,98.92900000000373,timeout,,,148381.3999999999,148379.554,148280.614,148282.5,148297.299,148396.228,,grey
Reaction,canvas.Screen,2_37_0_2,2022-07-01T11:55:03.419Z,,,0,V,211.37200000009034,response,stim_detected,mousedown,148609.30000000005,148607.6000000001,148379.554,148381.6000000001,148396.228,148613.36,,grey
Trial,flow.Sequence,2_37_0,2022-07-01T11:55:03.420Z,,,0,V,1945.493000000104,completion,,,148609.8999999999,148607.6000000001,146645.431,146652.19999999995,146662.107,148613.36,,grey
Frame,canvas.Frame,2_37,2022-07-01T11:55:03.420Z,,,0,V,1947.893000000011,,,,148610.30000000005,148610,146645.431,146651.30000000005,146662.107,148613.36,,grey
Fixation,canvas.Screen,2_38_0_0,2022-07-01T11:55:05.111Z,,,1,AV,1702.7140000000072,timeout,,,150301.30000000005,150299.381,148596.683,148611.3999999999,148613.36,150316.074,,grey
Stimulus,canvas.Screen,2_38_0_1,2022-07-01T11:55:05.209Z,,,1,AV,98.32700000001932,timeout,,,150399.30000000005,150397.726,150299.381,150301.5,150316.074,150414.401,,grey
Reaction,canvas.Screen,2_38_0_2,2022-07-01T11:55:05.410Z,,,1,AV,184.19900000008056,response,stim_detected,mousedown,150600.6000000001,150598.6000000001,150397.726,150399.6000000001,150414.401,150614.663,,grey
Trial,flow.Sequence,2_38_0,2022-07-01T11:55:05.411Z,,,1,AV,1985.240000000107,completion,,,150601.1000000001,150598.6000000001,148596.683,148611.30000000005,148613.36,150614.663,,grey
Frame,canvas.Frame,2_38,2022-07-01T11:55:05.411Z,,,1,AV,1987.8399999999674,,,,150601.30000000005,150601.19999999995,148596.683,148610.3999999999,148613.36,150614.663,,grey
Fixation,canvas.Screen,2_39_0_0,2022-07-01T11:55:07.730Z,,,1,A,2319.8070000000007,timeout,,,152920.19999999995,152917.782,150597.986,150602.5,150614.663,152934.47,,black
Stimulus,canvas.Screen,2_39_0_1,2022-07-01T11:55:07.827Z,,,1,A,98.28599999999278,timeout,,,153017.5,153016.08,152917.782,152920.3999999999,152934.47,153032.756,,black
Reaction,canvas.Screen,2_39_0_2,2022-07-01T11:55:08.031Z,,,1,A,186.54400000005262,response,stim_detected,mousedown,153221,153219.30000000005,153016.08,153017.80000000005,153032.756,153233.055,,black
Trial,flow.Sequence,2_39_0,2022-07-01T11:55:08.031Z,,,1,A,2604.637000000046,completion,,,153221.3999999999,153219.30000000005,150597.986,150602.3999999999,150614.663,153233.055,,black
Frame,canvas.Frame,2_39,2022-07-01T11:55:08.031Z,,,1,A,2606.8369999999995,,,,153221.69999999995,153221.5,150597.986,150601.5,150614.663,153233.055,,black
Fixation,canvas.Screen,2_40_0_0,2022-07-01T11:55:10.062Z,,,1,A,2034.2000000000116,timeout,,,155252.3999999999,155250.581,153216.378,153222.80000000005,153233.055,155267.255,,black
Stimulus,canvas.Screen,2_40_0_1,2022-07-01T11:55:10.162Z,,,1,A,100.46299999998882,timeout,,,155352.3999999999,155351.041,155250.581,155252.6000000001,155267.255,155367.718,,black
Reaction,canvas.Screen,2_40_0_2,2022-07-01T11:55:10.422Z,,,1,A,242.58200000005309,response,stim_detected,mousedown,155612,155610.30000000005,155351.041,155352.80000000005,155367.718,155617.845,,black
Trial,flow.Sequence,2_40_0,2022-07-01T11:55:10.422Z,,,1,A,2377.2450000000536,completion,,,155612.5,155610.30000000005,153216.378,153222.80000000005,153233.055,155617.845,,black
Frame,canvas.Frame,2_40,2022-07-01T11:55:10.422Z,,,1,A,2379.5450000001,,,,155612.69999999995,155612.6000000001,153216.378,153221.8999999999,153233.055,155617.845,,black
Fixation,canvas.Screen,2_41_0_0,2022-07-01T11:55:12.399Z,,,0,V,1986.6779999999853,timeout,,,157589.5,157587.829,155601.169,155613.8999999999,155617.845,157604.523,,grey
Stimulus,canvas.Screen,2_41_0_1,2022-07-01T11:55:12.496Z,,,0,V,97.69000000000233,timeout,,,157686.3999999999,157685.539,157587.829,157589.80000000005,157604.523,157702.213,,grey
Reaction,canvas.Screen,2_41_0_2,2022-07-01T11:55:12.713Z,,,0,V,198.9869999999646,response,stim_detected,mousedown,157902.8999999999,157901.19999999995,157685.539,157686.69999999995,157702.213,157919.406,,grey
Trial,flow.Sequence,2_41_0,2022-07-01T11:55:12.713Z,,,0,V,2283.3549999999523,completion,,,157903.19999999995,157901.19999999995,155601.169,155613.80000000005,155617.845,157919.406,,grey
Frame,canvas.Frame,2_41,2022-07-01T11:55:12.713Z,,,0,V,2285.654999999999,,,,157903.6000000001,157903.5,155601.169,155613,155617.845,157919.406,,grey
Fixation,canvas.Screen,2_42_0_0,2022-07-01T11:55:14.397Z,,,1,A,1683.4560000000056,timeout,,,159587.5,159586.193,157902.729,157905.19999999995,157919.406,159602.862,,black
Stimulus,canvas.Screen,2_42_0_1,2022-07-01T11:55:14.498Z,,,1,A,101.04000000000815,timeout,,,159688.5,159687.224,159586.193,159587.80000000005,159602.862,159703.902,,black
Reaction,canvas.Screen,2_42_0_2,2022-07-01T11:55:14.705Z,,,1,A,190.19800000009127,response,stim_detected,mousedown,159895.69999999995,159894.1000000001,159687.224,159688.80000000005,159703.902,159903.987,,black
Trial,flow.Sequence,2_42_0,2022-07-01T11:55:14.706Z,,,1,A,1974.694000000105,completion,,,159896,159894.1000000001,157902.729,157905.1000000001,157919.406,159903.987,,black
Frame,canvas.Frame,2_42,2022-07-01T11:55:14.706Z,,,1,A,1976.7939999999653,,,,159896.3999999999,159896.19999999995,157902.729,157903.8999999999,157919.406,159903.987,,black
Fixation,canvas.Screen,2_43_0_0,2022-07-01T11:55:16.484Z,,,1,A,1785.9640000000072,timeout,,,161674.5,161673.26,159887.31,159897.3999999999,159903.987,161689.951,,black
Stimulus,canvas.Screen,2_43_0_1,2022-07-01T11:55:16.582Z,,,1,A,98.29199999998673,timeout,,,161772.5,161771.569,161673.26,161674.80000000005,161689.951,161788.243,,black
Reaction,canvas.Screen,2_43_0_2,2022-07-01T11:55:16.764Z,,,1,A,164.85700000010547,response,stim_detected,mousedown,161954.80000000005,161953.1000000001,161771.569,161772.80000000005,161788.243,161971.975,,black
Trial,flow.Sequence,2_43_0,2022-07-01T11:55:16.765Z,,,1,A,2049.1130000000994,completion,,,161955.1000000001,161953.1000000001,159887.31,159897.30000000005,159903.987,161971.975,,black
Frame,canvas.Frame,2_43,2022-07-01T11:55:16.765Z,,,1,A,2051.313000000053,,,,161955.3999999999,161955.30000000005,159887.31,159896.6000000001,159903.987,161971.975,,black
Fixation,canvas.Screen,2_44_0_0,2022-07-01T11:55:18.635Z,,,0,V,1868.953999999998,timeout,,,163825.5,163824.242,161955.298,161956.6000000001,161971.975,163840.929,,grey
Stimulus,canvas.Screen,2_44_0_1,2022-07-01T11:55:18.734Z,,,0,V,98.44099999999162,timeout,,,163923.8999999999,163922.698,163824.242,163825.80000000005,163840.929,163939.37,,grey
Reaction,canvas.Screen,2_44_0_2,2022-07-01T11:55:18.929Z,,,0,V,177.7300000000978,response,stim_detected,mousedown,164118.8999999999,164117.1000000001,163922.698,163924.19999999995,163939.37,164123.375,,grey
Trial,flow.Sequence,2_44_0,2022-07-01T11:55:18.929Z,,,0,V,2145.1250000000873,completion,,,164119.30000000005,164117.1000000001,161955.298,161956.6000000001,161971.975,164123.375,,grey
Frame,canvas.Frame,2_44,2022-07-01T11:55:18.929Z,,,0,V,2147.524999999994,,,,164119.69999999995,164119.5,161955.298,161955.6000000001,161971.975,164123.375,,grey
Fixation,canvas.Screen,2_45_0_0,2022-07-01T11:55:20.602Z,,,1,AV,1684.4739999999874,timeout,,,165792.80000000005,165791.171,164106.698,164120.6000000001,164123.375,165807.849,,grey
Stimulus,canvas.Screen,2_45_0_1,2022-07-01T11:55:20.702Z,,,1,AV,99.93300000001909,timeout,,,165892.6000000001,165891.106,165791.171,165793.1000000001,165807.849,165907.782,,grey
Reaction,canvas.Screen,2_45_0_2,2022-07-01T11:55:20.848Z,,,1,AV,128.21799999999348,response,stim_detected,mousedown,166038,166036,165891.106,165892.80000000005,165907.782,166041.26,,grey
Trial,flow.Sequence,2_45_0,2022-07-01T11:55:20.848Z,,,1,AV,1912.625,completion,,,166038.3999999999,166036,164106.698,164120.6000000001,164123.375,166041.26,,grey
Frame,canvas.Frame,2_45,2022-07-01T11:55:20.848Z,,,1,AV,1915.2250000000931,,,,166038.80000000005,166038.6000000001,164106.698,164119.80000000005,164123.375,166041.26,,grey
Fixation,canvas.Screen,2_46_0_0,2022-07-01T11:55:22.988Z,,,1,A,2152.9249999999884,timeout,,,168178.69999999995,168177.496,166024.583,166040.30000000005,166041.26,168194.185,,black
Stimulus,canvas.Screen,2_46_0_1,2022-07-01T11:55:23.086Z,,,1,A,98.55900000000838,timeout,,,168276.6000000001,168275.435,168177.496,168179,168194.185,168292.744,,black
Reaction,canvas.Screen,2_46_0_2,2022-07-01T11:55:23.289Z,,,1,A,184.0560000000405,response,stim_detected,mousedown,168479.19999999995,168476.80000000005,168275.435,168276.8999999999,168292.744,168492.868,,black
Trial,flow.Sequence,2_46_0,2022-07-01T11:55:23.289Z,,,1,A,2435.5400000000373,completion,,,168479.6000000001,168476.80000000005,166024.583,166040.30000000005,166041.26,168492.868,,black
Frame,canvas.Frame,2_46,2022-07-01T11:55:23.290Z,,,1,A,2438.439999999944,,,,168479.8999999999,168479.69999999995,166024.583,166039.19999999995,166041.26,168492.868,,black
Fixation,canvas.Screen,2_47_0_0,2022-07-01T11:55:25.505Z,,,0,V,2218.6080000000075,timeout,,,170695.80000000005,170694.795,168476.191,168481,168492.868,170711.476,,grey
Stimulus,canvas.Screen,2_47_0_1,2022-07-01T11:55:25.606Z,,,0,V,99.2039999999979,timeout,,,170796.1000000001,170794.006,170694.795,170696,170711.476,170810.68,,grey
Reaction,canvas.Screen,2_47_0_2,2022-07-01T11:55:25.846Z,,,0,V,224.12000000005355,response,stim_detected,mousedown,171036.6000000001,171034.80000000005,170794.006,170796.30000000005,170810.68,171044.497,,grey
Trial,flow.Sequence,2_47_0,2022-07-01T11:55:25.847Z,,,0,V,2541.932000000059,completion,,,171037,171034.80000000005,168476.191,168480.8999999999,168492.868,171044.497,,grey
Frame,canvas.Frame,2_47,2022-07-01T11:55:25.847Z,,,0,V,2544.2320000001055,,,,171037.30000000005,171037.1000000001,168476.191,168480,168492.868,171044.497,,grey
Fixation,canvas.Screen,2_48_0_0,2022-07-01T11:55:27.675Z,,,1,A,1835.366000000009,timeout,,,172864.8999999999,172863.179,171027.82,171038.69999999995,171044.497,172879.863,,black
Stimulus,canvas.Screen,2_48_0_1,2022-07-01T11:55:27.773Z,,,1,A,98.82099999999627,timeout,,,172963.69999999995,172962.01,172863.179,172865.19999999995,172879.863,172978.684,,black
Reaction,canvas.Screen,2_48_0_2,2022-07-01T11:55:27.993Z,,,1,A,203.11600000003818,response,stim_detected,mousedown,173183.3999999999,173181.80000000005,172962.01,172964,172978.684,173195.9,,black
Trial,flow.Sequence,2_48_0,2022-07-01T11:55:27.994Z,,,1,A,2137.3030000000435,completion,,,173183.80000000005,173181.80000000005,171027.82,171038.6000000001,171044.497,173195.9,,black
Frame,canvas.Frame,2_48,2022-07-01T11:55:27.994Z,,,1,A,2139.402999999904,,,,173184.19999999995,173183.8999999999,171027.82,171037.5,171044.497,173195.9,,black
Fixation,canvas.Screen,2_49_0_0,2022-07-01T11:55:29.559Z,,,1,AV,1567.75900000002,timeout,,,174748.80000000005,174746.981,173179.223,173185.19999999995,173195.9,174763.659,,grey
Stimulus,canvas.Screen,2_49_0_1,2022-07-01T11:55:29.658Z,,,1,AV,99.98999999999069,timeout,,,174847.80000000005,174846.801,174746.981,174749.1000000001,174763.659,174863.649,,grey
Reaction,canvas.Screen,2_49_0_2,2022-07-01T11:55:29.902Z,,,1,AV,226.95100000008824,response,stim_detected,mousedown,175092.30000000005,175090.6000000001,174846.801,174848.1000000001,174863.649,175097.127,,grey
Trial,flow.Sequence,2_49_0,2022-07-01T11:55:29.902Z,,,1,AV,1894.700000000099,completion,,,175092.69999999995,175090.6000000001,173179.223,173185.19999999995,173195.9,175097.127,,grey
Frame,canvas.Frame,2_49,2022-07-01T11:55:29.903Z,,,1,AV,1896.9000000000524,,,,175093,175092.80000000005,173179.223,173184.30000000005,173195.9,175097.127,,grey
Fixation,canvas.Screen,2_50_0_0,2022-07-01T11:55:31.576Z,,,1,A,1684.2699999999895,timeout,,,176765.80000000005,176764.721,175080.45,175094.1000000001,175097.127,176781.397,,black
Stimulus,canvas.Screen,2_50_0_1,2022-07-01T11:55:31.676Z,,,1,A,99.91700000001583,timeout,,,176866,176864.64,176764.721,176766.1000000001,176781.397,176881.314,,black
Reaction,canvas.Screen,2_50_0_2,2022-07-01T11:55:31.955Z,,,1,A,262.2860000000801,response,stim_detected,mousedown,177145.1000000001,177143.6000000001,176864.64,176866.19999999995,176881.314,177148.443,,black
Trial,flow.Sequence,2_50_0,2022-07-01T11:55:31.955Z,,,1,A,2046.4730000000854,completion,,,177145.5,177143.6000000001,175080.45,175094.1000000001,175097.127,177148.443,,black
Frame,canvas.Frame,2_50,2022-07-01T11:55:31.955Z,,,1,A,2048.4730000000854,,,,177145.80000000005,177145.6000000001,175080.45,175093.19999999995,175097.127,177148.443,,black
Fixation,canvas.Screen,2_51_0_0,2022-07-01T11:55:34.310Z,,,1,A,2367.021000000008,timeout,,,179500.19999999995,179498.794,177131.766,177146.8999999999,177148.443,179515.464,,black
Stimulus,canvas.Screen,2_51_0_1,2022-07-01T11:55:34.412Z,,,1,A,101.29899999999907,timeout,,,179602.19999999995,179600.086,179498.794,179500.3999999999,179515.464,179616.763,,black
Reaction,canvas.Screen,2_51_0_2,2022-07-01T11:55:34.611Z,,,1,A,182.7369999999937,response,stim_detected,mousedown,179801.1000000001,179799.5,179600.086,179602.5,179616.763,179816.821,,black
Trial,flow.Sequence,2_51_0,2022-07-01T11:55:34.611Z,,,1,A,2651.0570000000007,completion,,,179801.3999999999,179799.5,177131.766,177146.80000000005,177148.443,179816.821,,black
Frame,canvas.Frame,2_51,2022-07-01T11:55:34.611Z,,,1,A,2653.157000000094,,,,179801.80000000005,179801.6000000001,177131.766,177146,177148.443,179816.821,,black
Fixation,canvas.Screen,2_52_0_0,2022-07-01T11:55:36.965Z,,,1,A,2351.880999999994,timeout,,,182153.19999999995,182152.022,179800.144,179802.80000000005,179816.821,182168.702,,black
Stimulus,canvas.Screen,2_52_0_1,2022-07-01T11:55:37.065Z,,,1,A,99.19500000000698,timeout,,,182253.19999999995,182251.223,182152.022,182153.5,182168.702,182267.897,,black
Reaction,canvas.Screen,2_52_0_2,2022-07-01T11:55:37.237Z,,,1,A,155.6030000000028,response,stim_detected,mousedown,182425.1000000001,182423.5,182251.223,182253.5,182267.897,182435.164,,black
Trial,flow.Sequence,2_52_0,2022-07-01T11:55:37.237Z,,,1,A,2606.6790000000037,completion,,,182425.5,182423.5,179800.144,179802.69999999995,179816.821,182435.164,,black
Frame,canvas.Frame,2_52,2022-07-01T11:55:37.238Z,,,1,A,2608.779000000097,,,,182425.69999999995,182425.6000000001,179800.144,179802,179816.821,182435.164,,black
Fixation,canvas.Screen,2_53_0_0,2022-07-01T11:55:39.652Z,,,0,V,2419.787000000011,timeout,,,184840,184838.263,182418.487,182426.80000000005,182435.164,184854.951,,grey
Stimulus,canvas.Screen,2_53_0_1,2022-07-01T11:55:39.749Z,,,0,V,97.67300000000978,timeout,,,184937.30000000005,184935.953,184838.263,184840.1000000001,184854.951,184952.624,,grey
Reaction,canvas.Screen,2_53_0_2,2022-07-01T11:55:39.969Z,,,0,V,202.67600000003586,response,stim_detected,mousedown,185156.8999999999,185155.30000000005,184935.953,184937.69999999995,184952.624,185170.24,,grey
Trial,flow.Sequence,2_53_0,2022-07-01T11:55:39.969Z,,,0,V,2720.136000000057,completion,,,185157.3999999999,185155.30000000005,182418.487,182426.6000000001,182435.164,185170.24,,grey
Frame,canvas.Frame,2_53,2022-07-01T11:55:39.969Z,,,0,V,2722.3360000000102,,,,185157.69999999995,185157.5,182418.487,182425.8999999999,182435.164,185170.24,,grey
Fixation,canvas.Screen,2_54_0_0,2022-07-01T11:55:42.303Z,,,0,V,2336.369000000006,timeout,,,187491.1000000001,187489.921,185153.563,185159.1000000001,185170.24,187506.609,,grey
Stimulus,canvas.Screen,2_54_0_1,2022-07-01T11:55:42.401Z,,,0,V,98.14100000000326,timeout,,,187589.1000000001,187588.076,187489.921,187491.30000000005,187506.609,187604.75,,grey
Reaction,canvas.Screen,2_54_0_2,2022-07-01T11:55:42.600Z,,,0,V,181.35000000009313,response,stim_detected,mousedown,187787.8999999999,187786.1000000001,187588.076,187589.30000000005,187604.75,187805.324,,grey
Trial,flow.Sequence,2_54_0,2022-07-01T11:55:42.600Z,,,0,V,2615.8600000001024,completion,,,187788.5,187786.1000000001,185153.563,185159,185170.24,187805.324,,grey
Frame,canvas.Frame,2_54,2022-07-01T11:55:42.601Z,,,0,V,2618.4599999999627,,,,187789,187788.69999999995,185153.563,185157.80000000005,185170.24,187805.324,,grey
Fixation,canvas.Screen,2_55_0_0,2022-07-01T11:55:44.236Z,,,0,V,1634.127999999997,timeout,,,189424.1000000001,189422.777,187788.647,187790.30000000005,187805.324,189439.452,,grey
Stimulus,canvas.Screen,2_55_0_1,2022-07-01T11:55:44.336Z,,,0,V,100.08800000001793,timeout,,,189524.1000000001,189522.865,189422.777,189424.3999999999,189439.452,189539.54,,grey
Reaction,canvas.Screen,2_55_0_2,2022-07-01T11:55:44.546Z,,,0,V,192.65999999994528,response,stim_detected,mousedown,189733.80000000005,189732.19999999995,189522.865,189524.3999999999,189539.54,189739.874,,grey
Trial,flow.Sequence,2_55_0,2022-07-01T11:55:44.546Z,,,0,V,1926.8759999999602,completion,,,189734.19999999995,189732.19999999995,187788.647,187790.19999999995,187805.324,189739.874,,grey
Frame,canvas.Frame,2_55,2022-07-01T11:55:44.546Z,,,0,V,1928.9760000000533,,,,189734.5,189734.30000000005,187788.647,187789.3999999999,187805.324,189739.874,,grey
Fixation,canvas.Screen,2_56_0_0,2022-07-01T11:55:47.004Z,,,0,V,2467.7249999999767,timeout,,,192192.19999999995,192190.925,189723.197,189735.6000000001,189739.874,192207.599,,grey
Stimulus,canvas.Screen,2_56_0_1,2022-07-01T11:55:47.105Z,,,0,V,100.61000000001513,timeout,,,192293.19999999995,192291.532,192190.925,192192.3999999999,192207.599,192308.209,,grey
Reaction,canvas.Screen,2_56_0_2,2022-07-01T11:55:47.319Z,,,0,V,196.79099999999744,response,stim_detected,mousedown,192506.80000000005,192505,192291.532,192293.5,192308.209,192508.33,,grey
Trial,flow.Sequence,2_56_0,2022-07-01T11:55:47.319Z,,,0,V,2765.1259999999893,completion,,,192507,192505,189723.197,189735.5,189739.874,192508.33,,grey
Frame,canvas.Frame,2_56,2022-07-01T11:55:47.319Z,,,0,V,2767.3259999999427,,,,192507.3999999999,192507.19999999995,189723.197,189734.69999999995,189739.874,192508.33,,grey
Fixation,canvas.Screen,2_57_0_0,2022-07-01T11:55:49.773Z,,,0,V,2468.366000000009,timeout,,,194961.19999999995,194960.018,192491.653,192508.69999999995,192508.33,194976.696,,grey
Stimulus,canvas.Screen,2_57_0_1,2022-07-01T11:55:49.873Z,,,0,V,99.9660000000149,timeout,,,195061.30000000005,195059.985,194960.018,194961.5,194976.696,195076.662,,grey
Reaction,canvas.Screen,2_57_0_2,2022-07-01T11:55:50.091Z,,,0,V,201.2379999998957,response,stim_detected,mousedown,195279.6000000001,195277.8999999999,195059.985,195061.5,195076.662,195293.437,,grey
Trial,flow.Sequence,2_57_0,2022-07-01T11:55:50.092Z,,,0,V,2769.5699999999197,completion,,,195280,195277.8999999999,192491.653,192508.5,192508.33,195293.437,,grey
Frame,canvas.Frame,2_57,2022-07-01T11:55:50.092Z,,,0,V,2771.770000000106,,,,195280.30000000005,195280.1000000001,192491.653,192507.6000000001,192508.33,195293.437,,grey
Fixation,canvas.Screen,2_58_0_0,2022-07-01T11:55:52.059Z,,,1,A,1968.8649999999907,timeout,,,197247.3999999999,197245.617,195276.76,195281.69999999995,195293.437,197262.302,,black
Stimulus,canvas.Screen,2_58_0_1,2022-07-01T11:55:52.158Z,,,1,A,98.8410000000149,timeout,,,197346.30000000005,197344.469,197245.617,197247.69999999995,197262.302,197361.143,,black
Reaction,canvas.Screen,2_58_0_2,2022-07-01T11:55:52.381Z,,,1,A,205.75699999989592,response,stim_detected,mousedown,197568.8999999999,197566.8999999999,197344.469,197346.5,197361.143,197578.265,,black
Trial,flow.Sequence,2_58_0,2022-07-01T11:55:52.381Z,,,1,A,2273.4629999999015,completion,,,197569.30000000005,197566.8999999999,195276.76,195281.5,195293.437,197578.265,,black
Frame,canvas.Frame,2_58,2022-07-01T11:55:52.381Z,,,1,A,2275.9629999999015,,,,197569.69999999995,197569.3999999999,195276.76,195280.5,195293.437,197578.265,,black
Fixation,canvas.Screen,2_59_0_0,2022-07-01T11:55:54.625Z,,,1,AV,2250.4979999999923,timeout,,,199813.6000000001,199812.092,197561.588,197571,197578.265,199828.763,,grey
Stimulus,canvas.Screen,2_59_0_1,2022-07-01T11:55:54.726Z,,,1,AV,101.07099999999627,timeout,,,199914.6000000001,199913.156,199812.092,199813.80000000005,199828.763,199929.834,,grey
Reaction,canvas.Screen,2_59_0_2,2022-07-01T11:55:54.926Z,,,1,AV,182.966000000044,response,stim_detected,mousedown,200114.69999999995,200112.80000000005,199913.156,199914.80000000005,199929.834,200129.871,,grey
Trial,flow.Sequence,2_59_0,2022-07-01T11:55:54.927Z,,,1,AV,2534.5350000000326,completion,,,200115.1000000001,200112.80000000005,197561.588,197570.8999999999,197578.265,200129.871,,grey
Frame,canvas.Frame,2_59,2022-07-01T11:55:54.927Z,,,1,AV,2536.9349999999395,,,,200115.3999999999,200115.19999999995,197561.588,197570,197578.265,200129.871,,grey
Fixation,canvas.Screen,2_60_0_0,2022-07-01T11:55:57.280Z,,,1,A,2353.652999999991,timeout,,,202468.5,202466.832,200113.194,200116.5,200129.871,202483.524,,black
Stimulus,canvas.Screen,2_60_0_1,2022-07-01T11:55:57.378Z,,,1,A,97.54099999999744,timeout,,,202565.8999999999,202564.391,202466.832,202468.8999999999,202483.524,202581.065,,black
Reaction,canvas.Screen,2_60_0_2,2022-07-01T11:55:57.541Z,,,1,A,146.6349999999511,response,stim_detected,mousedown,202729.3999999999,202727.69999999995,202564.391,202566.19999999995,202581.065,202731.576,,black
Trial,flow.Sequence,2_60_0,2022-07-01T11:55:57.542Z,,,1,A,2597.8289999999397,completion,,,202729.69999999995,202727.69999999995,200113.194,200116.3999999999,200129.871,202731.576,,black
Frame,canvas.Frame,2_60,2022-07-01T11:55:57.542Z,,,1,A,2600.028999999893,,,,202730.1000000001,202729.8999999999,200113.194,200115.6000000001,200129.871,202731.576,,black
Fixation,canvas.Screen,2_61_0_0,2022-07-01T11:55:59.679Z,,,1,A,2151.342000000004,timeout,,,204867.5,204866.241,202714.899,202731.30000000005,202731.576,204882.918,,black
Stimulus,canvas.Screen,2_61_0_1,2022-07-01T11:55:59.779Z,,,1,A,100.13099999999395,timeout,,,204967.5,204966.372,204866.241,204867.8999999999,204882.918,204983.049,,black
Reaction,canvas.Screen,2_61_0_2,2022-07-01T11:55:59.932Z,,,1,A,135.55100000009406,response,stim_detected,mousedown,205120.19999999995,205118.6000000001,204966.372,204967.80000000005,204983.049,205133.127,,black
Trial,flow.Sequence,2_61_0,2022-07-01T11:55:59.933Z,,,1,A,2387.024000000092,completion,,,205120.80000000005,205118.6000000001,202714.899,202731.30000000005,202731.576,205133.127,,black
Frame,canvas.Frame,2_61,2022-07-01T11:55:59.933Z,,,1,A,2389.524000000092,,,,205121.19999999995,205121.1000000001,202714.899,202730.19999999995,202731.576,205133.127,,black
Fixation,canvas.Screen,2_62_0_0,2022-07-01T11:56:02.013Z,,,1,AV,2084.222999999998,timeout,,,207201.6000000001,207200.676,205116.45,205122.3999999999,205133.127,207217.35,,grey
Stimulus,canvas.Screen,2_62_0_1,2022-07-01T11:56:02.114Z,,,1,AV,100.37899999998626,timeout,,,207302.6000000001,207301.053,207200.676,207201.8999999999,207217.35,207317.729,,grey
Reaction,canvas.Screen,2_62_0_2,2022-07-01T11:56:02.318Z,,,1,AV,186.77100000000792,response,stim_detected,mousedown,207506.19999999995,207504.5,207301.053,207302.69999999995,207317.729,207517.975,,grey
Trial,flow.Sequence,2_62_0,2022-07-01T11:56:02.318Z,,,1,AV,2371.3729999999923,completion,,,207506.6000000001,207504.5,205116.45,205122.3999999999,205133.127,207517.975,,grey
Frame,canvas.Frame,2_62,2022-07-01T11:56:02.319Z,,,1,AV,2373.673000000039,,,,207506.8999999999,207506.80000000005,205116.45,205121.3999999999,205133.127,207517.975,,grey
Fixation,canvas.Screen,2_63_0_0,2022-07-01T11:56:03.999Z,,,1,AV,1685.060999999987,timeout,,,209187.6000000001,209186.353,207501.298,207508.30000000005,207517.975,209203.036,,grey
Stimulus,canvas.Screen,2_63_0_1,2022-07-01T11:56:04.098Z,,,1,AV,99.4440000000177,timeout,,,209286.69999999995,209285.675,209186.353,209188,209203.036,209302.48,,grey
Reaction,canvas.Screen,2_63_0_2,2022-07-01T11:56:04.298Z,,,1,AV,182.01999999998952,response,stim_detected,mousedown,209486.1000000001,209484.5,209285.675,209286.8999999999,209302.48,209502.604,,grey
Trial,flow.Sequence,2_63_0,2022-07-01T11:56:04.298Z,,,1,AV,1966.5249999999942,completion,,,209486.5,209484.5,207501.298,207508.1000000001,207517.975,209502.604,,grey
Frame,canvas.Frame,2_63,2022-07-01T11:56:04.299Z,,,1,AV,1968.7249999999476,,,,209486.8999999999,209486.69999999995,207501.298,207507.1000000001,207517.975,209502.604,,grey
Fixation,canvas.Screen,2_64_0_0,2022-07-01T11:56:06.251Z,,,1,AV,1951.4770000000135,timeout,,,211438.80000000005,211437.402,209485.927,209488.30000000005,209502.604,211454.081,,grey
Stimulus,canvas.Screen,2_64_0_1,2022-07-01T11:56:06.350Z,,,1,AV,99.64400000000023,timeout,,,211538.6000000001,211537.05,211437.402,211439,211454.081,211553.725,,grey
Reaction,canvas.Screen,2_64_0_2,2022-07-01T11:56:06.571Z,,,1,AV,203.57500000004075,response,stim_detected,mousedown,211759.1000000001,211757.30000000005,211537.05,211538.8999999999,211553.725,211770.717,,grey
Trial,flow.Sequence,2_64_0,2022-07-01T11:56:06.571Z,,,1,AV,2254.6960000000545,completion,,,211759.5,211757.30000000005,209485.927,209488.19999999995,209502.604,211770.717,,grey
Frame,canvas.Frame,2_64,2022-07-01T11:56:06.572Z,,,1,AV,2256.996000000101,,,,211759.80000000005,211759.6000000001,209485.927,209487.1000000001,209502.604,211770.717,,grey
Fixation,canvas.Screen,2_65_0_0,2022-07-01T11:56:08.068Z,,,1,A,1501.5449999999837,timeout,,,213256.69999999995,213255.579,211754.04,211761,211770.717,213272.262,,black
Stimulus,canvas.Screen,2_65_0_1,2022-07-01T11:56:08.169Z,,,1,A,99.48300000000745,timeout,,,213356.8999999999,213355.068,213255.579,213256.8999999999,213272.262,213371.745,,black
Reaction,canvas.Screen,2_65_0_2,2022-07-01T11:56:08.413Z,,,1,A,227.55500000005122,response,stim_detected,mousedown,213601,213599.30000000005,213355.068,213357.1000000001,213371.745,213605.246,,black
Trial,flow.Sequence,2_65_0,2022-07-01T11:56:08.413Z,,,1,A,1828.5830000000424,completion,,,213601.30000000005,213599.30000000005,211754.04,211760.8999999999,211770.717,213605.246,,black
Frame,canvas.Frame,2_65,2022-07-01T11:56:08.413Z,,,1,A,1830.6829999999027,,,,213601.6000000001,213601.3999999999,211754.04,211760,211770.717,213605.246,,black
Fixation,canvas.Screen,2_66_0_0,2022-07-01T11:56:10.437Z,,,0,V,2035.0289999999804,timeout,,,215624.80000000005,215623.595,213588.569,213602.69999999995,213605.246,215640.275,,grey
Stimulus,canvas.Screen,2_66_0_1,2022-07-01T11:56:10.537Z,,,0,V,99.41300000000047,timeout,,,215724.69999999995,215723.013,215623.595,215625.1000000001,215640.275,215739.688,,grey
Reaction,canvas.Screen,2_66_0_2,2022-07-01T11:56:10.744Z,,,0,V,190.61200000005192,response,stim_detected,mousedown,215931.8999999999,215930.30000000005,215723.013,215725,215739.688,215940.046,,grey
Trial,flow.Sequence,2_66_0,2022-07-01T11:56:10.744Z,,,0,V,2325.054000000033,completion,,,215932.30000000005,215930.30000000005,213588.569,213602.6000000001,213605.246,215940.046,,grey
Frame,canvas.Frame,2_66,2022-07-01T11:56:10.744Z,,,0,V,2327.153999999893,,,,215932.69999999995,215932.3999999999,213588.569,213601.69999999995,213605.246,215940.046,,grey
Fixation,canvas.Screen,2_67_0_0,2022-07-01T11:56:12.739Z,,,1,A,2001.7870000000112,timeout,,,217926.80000000005,217925.152,215923.369,215933.80000000005,215940.046,217941.833,,black
Stimulus,canvas.Screen,2_67_0_1,2022-07-01T11:56:12.837Z,,,1,A,99.64099999997416,timeout,,,218025.30000000005,218024.796,217925.152,217927.1000000001,217941.833,218041.474,,black
Reaction,canvas.Screen,2_67_0_2,2022-07-01T11:56:13.058Z,,,1,A,202.725999999966,response,stim_detected,mousedown,218245.80000000005,218244.19999999995,218024.796,218025.5,218041.474,218258.239,,black
Trial,flow.Sequence,2_67_0,2022-07-01T11:56:13.058Z,,,1,A,2304.1539999999513,completion,,,218246.3999999999,218244.19999999995,215923.369,215933.69999999995,215940.046,218258.239,,black
Frame,canvas.Frame,2_67,2022-07-01T11:56:13.058Z,,,1,A,2306.453999999998,,,,218246.69999999995,218246.5,215923.369,215932.80000000005,215940.046,218258.239,,black
Fixation,canvas.Screen,2_68_0_0,2022-07-01T11:56:15.006Z,,,1,A,1951.0810000000056,timeout,,,220193.80000000005,220192.644,218241.562,218248,218258.239,220209.32,,black
Stimulus,canvas.Screen,2_68_0_1,2022-07-01T11:56:15.106Z,,,1,A,100.14499999998952,timeout,,,220293.80000000005,220292.789,220192.644,220194.1000000001,220209.32,220309.465,,black
Reaction,canvas.Screen,2_68_0_2,2022-07-01T11:56:15.506Z,,,1,A,357.5350000000035,response,stim_detected,mousedown,220693.80000000005,220667,220292.789,220294.1000000001,220309.465,220709.809,,black
Trial,flow.Sequence,2_68_0,2022-07-01T11:56:15.506Z,,,1,A,2408.7609999999986,completion,,,220694.30000000005,220667,218241.562,218247.8999999999,218258.239,220709.809,,black
Frame,canvas.Frame,2_68,2022-07-01T11:56:15.506Z,,,1,A,2436.2609999999986,,,,220694.6000000001,220694.5,218241.562,218246.80000000005,218258.239,220709.809,,black
Fixation,canvas.Screen,2_69_0_0,2022-07-01T11:56:17.457Z,,,1,A,1950.6399999999849,timeout,,,222644.80000000005,222643.776,220693.132,220697,220709.809,222660.449,,black
Stimulus,canvas.Screen,2_69_0_1,2022-07-01T11:56:17.558Z,,,1,A,100.68799999999464,timeout,,,222745.80000000005,222744.46,222643.776,222645.1000000001,222660.449,222761.137,,black
Reaction,canvas.Screen,2_69_0_2,2022-07-01T11:56:17.782Z,,,1,A,207.96300000010524,response,stim_detected,mousedown,222970.6000000001,222969.1000000001,222744.46,222746.1000000001,222761.137,222977.919,,black
Trial,flow.Sequence,2_69_0,2022-07-01T11:56:17.783Z,,,1,A,2259.2910000000848,completion,,,222971,222969.1000000001,220693.132,220696,220709.809,222977.919,,black
Frame,canvas.Frame,2_69,2022-07-01T11:56:17.783Z,,,1,A,2261.1909999999916,,,,222971.30000000005,222971,220693.132,220694.80000000005,220709.809,222977.919,,black
Fixation,canvas.Screen,2_70_0_0,2022-07-01T11:56:19.543Z,,,0,V,1768.600999999995,timeout,,,224730.8999999999,224729.836,222961.242,222972.30000000005,222977.919,224746.52,,grey
Stimulus,canvas.Screen,2_70_0_1,2022-07-01T11:56:19.643Z,,,0,V,99.3070000000007,timeout,,,224830.8999999999,224829.15,224729.836,224731.1000000001,224746.52,224845.827,,grey
Reaction,canvas.Screen,2_70_0_2,2022-07-01T11:56:19.856Z,,,0,V,197.07299999991665,response,stim_detected,mousedown,225044.69999999995,225042.8999999999,224829.15,224831.19999999995,224845.827,225045.952,,grey
Trial,flow.Sequence,2_70_0,2022-07-01T11:56:19.857Z,,,0,V,2064.9809999999125,completion,,,225045.1000000001,225042.8999999999,222961.242,222972.1000000001,222977.919,225045.952,,grey
Frame,canvas.Frame,2_70,2022-07-01T11:56:19.857Z,,,0,V,2067.280999999959,,,,225045.3999999999,225045.19999999995,222961.242,222971.3999999999,222977.919,225045.952,,grey
Fixation,canvas.Screen,2_71_0_0,2022-07-01T11:56:22.294Z,,,1,A,2451.521999999997,timeout,,,227482,227480.797,225029.275,225046.80000000005,225045.952,227497.474,,black
Stimulus,canvas.Screen,2_71_0_1,2022-07-01T11:56:22.394Z,,,1,A,100.14500000001863,timeout,,,227582,227580.942,227480.797,227482.19999999995,227497.474,227597.619,,black
Reaction,canvas.Screen,2_71_0_2,2022-07-01T11:56:22.863Z,,,1,A,452.1810000000405,response,stim_detected,mousedown,228051.6000000001,228049.80000000005,227580.942,227582.19999999995,227597.619,228064.55,,black
Trial,flow.Sequence,2_71_0,2022-07-01T11:56:22.864Z,,,1,A,3003.8480000000563,completion,,,228051.8999999999,228049.80000000005,225029.275,225046.69999999995,225045.952,228064.55,,black
Frame,canvas.Frame,2_71,2022-07-01T11:56:22.864Z,,,1,A,3006.148000000103,,,,228052.3999999999,228052.1000000001,225029.275,225045.6000000001,225045.952,228064.55,,black
Fixation,canvas.Screen,2_72_0_0,2022-07-01T11:56:24.729Z,,,0,V,1867.5650000000023,timeout,,,229917.1000000001,229915.44,228047.873,228053.6000000001,228064.55,229932.115,,grey
Stimulus,canvas.Screen,2_72_0_1,2022-07-01T11:56:24.829Z,,,0,V,100.3859999999986,timeout,,,230017.19999999995,230015.824,229915.44,229917.3999999999,229932.115,230032.501,,grey
Reaction,canvas.Screen,2_72_0_2,2022-07-01T11:56:25.020Z,,,0,V,174.19899999996414,response,stim_detected,mousedown,230208.5,230206.69999999995,230015.824,230017.3999999999,230032.501,230215.892,,grey
Trial,flow.Sequence,2_72_0,2022-07-01T11:56:25.021Z,,,0,V,2142.149999999965,completion,,,230208.8999999999,230206.69999999995,228047.873,228053.5,228064.55,230215.892,,grey
Frame,canvas.Frame,2_72,2022-07-01T11:56:25.021Z,,,0,V,2144.4500000000116,,,,230209.1000000001,230209,228047.873,228052.6000000001,228064.55,230215.892,,grey
Fixation,canvas.Screen,2_73_0_0,2022-07-01T11:56:26.748Z,,,0,V,1735.6720000000205,timeout,,,231936,231934.875,230199.216,230210.30000000005,230215.892,231951.564,,grey
Stimulus,canvas.Screen,2_73_0_1,2022-07-01T11:56:26.846Z,,,0,V,98.31099999998696,timeout,,,232034.1000000001,232033.203,231934.875,231936.30000000005,231951.564,232049.875,,grey
Reaction,canvas.Screen,2_73_0_2,2022-07-01T11:56:27.035Z,,,0,V,171.02499999990687,response,stim_detected,mousedown,232222.8999999999,232220.8999999999,232033.203,232034.3999999999,232049.875,232250.555,,grey
Trial,flow.Sequence,2_73_0,2022-07-01T11:56:27.035Z,,,0,V,2005.0079999999143,completion,,,232223.30000000005,232220.8999999999,230199.216,230210.1000000001,230215.892,232250.555,,grey
Frame,canvas.Frame,2_73,2022-07-01T11:56:27.035Z,,,0,V,2007.5079999999143,,,,232223.6000000001,232223.3999999999,230199.216,230209.30000000005,230215.892,232250.555,,grey
Fixation,canvas.Screen,2_74_0_0,2022-07-01T11:56:29.149Z,,,1,AV,2101.689000000013,timeout,,,234337.30000000005,234335.564,232217.201,232224.80000000005,232250.555,234352.244,,grey
Stimulus,canvas.Screen,2_74_0_1,2022-07-01T11:56:29.248Z,,,1,AV,99.39600000000792,timeout,,,234436.19999999995,234434.966,234335.564,234337.69999999995,234352.244,234451.64,,grey
Reaction,canvas.Screen,2_74_0_2,2022-07-01T11:56:29.409Z,,,1,AV,143.05999999993946,response,stim_detected,mousedown,234596.80000000005,234594.69999999995,234434.966,234436.3999999999,234451.64,234602.098,,grey
Trial,flow.Sequence,2_74_0,2022-07-01T11:56:29.409Z,,,1,AV,2344.1449999999604,completion,,,234597.19999999995,234594.69999999995,232217.201,232224.6000000001,232250.555,234602.098,,grey
Frame,canvas.Frame,2_74,2022-07-01T11:56:29.409Z,,,1,AV,2346.844999999914,,,,234597.5,234597.3999999999,232217.201,232223.69999999995,232250.555,234602.098,,grey
Fixation,canvas.Screen,2_75_0_0,2022-07-01T11:56:31.067Z,,,1,A,1668.0409999999974,timeout,,,236255.19999999995,236253.459,234585.421,234598.80000000005,234602.098,236270.139,,black
Stimulus,canvas.Screen,2_75_0_1,2022-07-01T11:56:31.166Z,,,1,A,99.64600000000792,timeout,,,236354.19999999995,236353.109,236253.459,236255.5,236270.139,236369.785,,black
Reaction,canvas.Screen,2_75_0_2,2022-07-01T11:56:31.343Z,,,1,A,159.81500000008964,response,stim_detected,mousedown,236531.19999999995,236529.6000000001,236353.109,236354.3999999999,236369.785,236536.677,,black
Trial,flow.Sequence,2_75_0,2022-07-01T11:56:31.343Z,,,1,A,1927.502000000095,completion,,,236531.6000000001,236529.6000000001,234585.421,234598.6000000001,234602.098,236536.677,,black
Frame,canvas.Frame,2_75,2022-07-01T11:56:31.344Z,,,1,A,1929.7020000000484,,,,236531.8999999999,236531.80000000005,234585.421,234597.69999999995,234602.098,236536.677,,black
Fixation,canvas.Screen,2_76_0_0,2022-07-01T11:56:32.850Z,,,1,AV,1516.9839999999967,timeout,,,238038.30000000005,238036.99,236520,236533,236536.677,238053.661,,grey
Stimulus,canvas.Screen,2_76_0_1,2022-07-01T11:56:32.951Z,,,1,AV,100.7160000000149,timeout,,,238139.30000000005,238137.7,238036.99,238038.5,238053.661,238154.377,,grey
Reaction,canvas.Screen,2_76_0_2,2022-07-01T11:56:33.138Z,,,1,AV,170.12299999999232,response,stim_detected,mousedown,238326.1000000001,238324.5,238137.7,238139.5,238154.377,238337.858,,grey
Trial,flow.Sequence,2_76_0,2022-07-01T11:56:33.138Z,,,1,AV,1787.823000000004,completion,,,238326.5,238324.5,236520,236532.8999999999,236536.677,238337.858,,grey
Frame,canvas.Frame,2_76,2022-07-01T11:56:33.139Z,,,1,AV,1789.923000000097,,,,238326.80000000005,238326.6000000001,236520,236532.1000000001,236536.677,238337.858,,grey
Fixation,canvas.Screen,2_77_0_0,2022-07-01T11:56:35.351Z,,,0,V,2217.014999999985,timeout,,,240539.19999999995,240538.203,238321.181,238327.80000000005,238337.858,240554.873,,grey
Stimulus,canvas.Screen,2_77_0_1,2022-07-01T11:56:35.453Z,,,0,V,100.63000000000466,timeout,,,240640.69999999995,240638.829,240538.203,240539.5,240554.873,240655.503,,grey
Reaction,canvas.Screen,2_77_0_2,2022-07-01T11:56:35.666Z,,,0,V,196.8969999999099,response,stim_detected,mousedown,240854.1000000001,240852.3999999999,240638.829,240641,240655.503,240872.767,,grey
Trial,flow.Sequence,2_77_0,2022-07-01T11:56:35.666Z,,,0,V,2514.5419999998994,completion,,,240854.6000000001,240852.3999999999,238321.181,238327.69999999995,238337.858,240872.767,,grey
Frame,canvas.Frame,2_77,2022-07-01T11:56:35.667Z,,,0,V,2516.942000000039,,,,240855,240854.80000000005,238321.181,238327,238337.858,240872.767,,grey
Fixation,canvas.Screen,2_78_0_0,2022-07-01T11:56:37.339Z,,,1,AV,1668.0329999999958,timeout,,,242525.3999999999,242524.12,240856.09,240856.30000000005,240872.767,242540.8,,grey
Stimulus,canvas.Screen,2_78_0_1,2022-07-01T11:56:37.439Z,,,1,AV,99.78700000001118,timeout,,,242625,242623.909,242524.12,242526.80000000005,242540.8,242640.587,,grey
Reaction,canvas.Screen,2_78_0_2,2022-07-01T11:56:37.710Z,,,1,AV,253.81299999990733,response,stim_detected,mousedown,242896.1000000001,242894.3999999999,242623.909,242625.1000000001,242640.587,242907.378,,grey
Trial,flow.Sequence,2_78_0,2022-07-01T11:56:37.711Z,,,1,AV,2021.6329999999143,completion,,,242896.69999999995,242894.3999999999,240856.09,240856.1000000001,240872.767,242907.378,,grey
Frame,canvas.Frame,2_78,2022-07-01T11:56:37.711Z,,,1,AV,2024.033000000054,,,,242897.1000000001,242896.80000000005,240856.09,240855.30000000005,240872.767,242907.378,,grey
Fixation,canvas.Screen,2_79_0_0,2022-07-01T11:56:39.944Z,,,1,AV,2237.095000000001,timeout,,,245130,245127.779,242890.702,242898.19999999995,242907.378,245144.473,,grey
Stimulus,canvas.Screen,2_79_0_1,2022-07-01T11:56:40.041Z,,,1,AV,97.7050000000163,timeout,,,245227.5,245225.502,245127.779,245130.19999999995,245144.473,245242.178,,grey
Reaction,canvas.Screen,2_79_0_2,2022-07-01T11:56:40.211Z,,,1,AV,153.12200000003213,response,stim_detected,mousedown,245397.19999999995,245395.30000000005,245225.502,245227.80000000005,245242.178,245409.055,,grey
Trial,flow.Sequence,2_79_0,2022-07-01T11:56:40.211Z,,,1,AV,2487.9220000000496,completion,,,245397.6000000001,245395.30000000005,242890.702,242898.1000000001,242907.378,245409.055,,grey
Frame,canvas.Frame,2_79,2022-07-01T11:56:40.212Z,,,1,AV,2490.3219999999565,,,,245397.8999999999,245397.69999999995,242890.702,242897.30000000005,242907.378,245409.055,,grey
Fixation,canvas.Screen,2_80_0_0,2022-07-01T11:56:42.358Z,,,1,AV,2151.201000000001,timeout,,,247544.5,247543.58,245392.378,245399.19999999995,245409.055,247560.256,,grey
Stimulus,canvas.Screen,2_80_0_1,2022-07-01T11:56:42.459Z,,,1,AV,100.26600000000326,timeout,,,247645.5,247643.845,247543.58,247544.80000000005,247560.256,247660.522,,grey
Reaction,canvas.Screen,2_80_0_2,2022-07-01T11:56:42.631Z,,,1,AV,154.67799999995623,response,stim_detected,mousedown,247816.8999999999,247815.19999999995,247643.845,247645.80000000005,247660.522,247827.263,,grey
Trial,flow.Sequence,2_80_0,2022-07-01T11:56:42.631Z,,,1,AV,2406.1449999999604,completion,,,247817.30000000005,247815.19999999995,245392.378,245399.1000000001,245409.055,247827.263,,grey
Frame,canvas.Frame,2_80,2022-07-01T11:56:42.631Z,,,1,AV,2408.344999999914,,,,247817.6000000001,247817.3999999999,245392.378,245398.1000000001,245409.055,247827.263,,grey
Fixation,canvas.Screen,2_81_0_0,2022-07-01T11:56:44.693Z,,,1,AV,2067.813999999984,timeout,,,249879.6000000001,249878.401,247810.586,247818.6000000001,247827.263,249895.077,,grey
Stimulus,canvas.Screen,2_81_0_1,2022-07-01T11:56:44.793Z,,,1,AV,100.14600000000792,timeout,,,249979.69999999995,249978.547,249878.401,249879.8999999999,249895.077,249995.223,,grey
Reaction,canvas.Screen,2_81_0_2,2022-07-01T11:56:44.956Z,,,1,AV,144.877000000095,response,stim_detected,mousedown,250141.69999999995,250140.1000000001,249978.547,249979.8999999999,249995.223,250145.401,,grey
Trial,flow.Sequence,2_81_0,2022-07-01T11:56:44.956Z,,,1,AV,2312.837000000087,completion,,,250142.1000000001,250140.1000000001,247810.586,247818.5,247827.263,250145.401,,grey
Frame,canvas.Frame,2_81,2022-07-01T11:56:44.956Z,,,1,AV,2315.0370000000403,,,,250142.3999999999,250142.30000000005,247810.586,247817.69999999995,247827.263,250145.401,,grey
Fixation,canvas.Screen,2_82_0_0,2022-07-01T11:56:46.896Z,,,0,V,1952.7509999999893,timeout,,,252082.6000000001,252081.462,250128.724,250143.69999999995,250145.401,252098.152,,grey
Stimulus,canvas.Screen,2_82_0_1,2022-07-01T11:56:46.995Z,,,0,V,98.41599999999744,timeout,,,252181.6000000001,252179.893,252081.462,252082.80000000005,252098.152,252196.568,,grey
Reaction,canvas.Screen,2_82_0_2,2022-07-01T11:56:47.252Z,,,0,V,239.4320000000007,response,stim_detected,mousedown,252437.69999999995,252436,252179.893,252181.8999999999,252196.568,252463.557,,grey
Trial,flow.Sequence,2_82_0,2022-07-01T11:56:47.252Z,,,0,V,2290.5989999999874,completion,,,252438.1000000001,252436,250128.724,250143.6000000001,250145.401,252463.557,,grey
Frame,canvas.Frame,2_82,2022-07-01T11:56:47.252Z,,,0,V,2292.798999999941,,,,252438.3999999999,252438.19999999995,250128.724,250142.6000000001,250145.401,252463.557,,grey
Fixation,canvas.Screen,2_83_0_0,2022-07-01T11:56:49.215Z,,,0,V,1952.0370000000112,timeout,,,254400.69999999995,254398.91,252430.203,252439.6000000001,252463.557,254415.594,,grey
Stimulus,canvas.Screen,2_83_0_1,2022-07-01T11:56:49.313Z,,,0,V,99.04199999998673,timeout,,,254499.5,254497.961,254398.91,254401,254415.594,254514.636,,grey
Reaction,canvas.Screen,2_83_0_2,2022-07-01T11:56:49.504Z,,,0,V,174.26399999990826,response,stim_detected,mousedown,254690.69999999995,254688.8999999999,254497.961,254499.80000000005,254514.636,254698.337,,grey
Trial,flow.Sequence,2_83_0,2022-07-01T11:56:49.505Z,,,0,V,2225.342999999906,completion,,,254691.1000000001,254688.8999999999,252430.203,252439.3999999999,252463.557,254698.337,,grey
Frame,canvas.Frame,2_83,2022-07-01T11:56:49.505Z,,,0,V,2227.6429999999527,,,,254691.3999999999,254691.19999999995,252430.203,252438.6000000001,252463.557,254698.337,,grey
Fixation,canvas.Screen,2_84_0_0,2022-07-01T11:56:51.016Z,,,0,V,1518.5750000000116,timeout,,,256201.69999999995,256200.225,254681.66,254692.6000000001,254698.337,256216.912,,grey
Stimulus,canvas.Screen,2_84_0_1,2022-07-01T11:56:51.115Z,,,0,V,99.05499999999302,timeout,,,256300.69999999995,256299.291,256200.225,256201.8999999999,256216.912,256315.967,,grey
Reaction,canvas.Screen,2_84_0_2,2022-07-01T11:56:51.285Z,,,0,V,153.93299999990268,response,stim_detected,mousedown,256471.5,256469.8999999999,256299.291,256300.8999999999,256315.967,256482.836,,grey
Trial,flow.Sequence,2_84_0,2022-07-01T11:56:51.286Z,,,0,V,1771.5629999999073,completion,,,256471.8999999999,256469.8999999999,254681.66,254692.5,254698.337,256482.836,,grey
Frame,canvas.Frame,2_84,2022-07-01T11:56:51.286Z,,,0,V,1773.6630000000005,,,,256472.19999999995,256472,254681.66,254691.6000000001,254698.337,256482.836,,grey
Fixation,canvas.Screen,2_85_0_0,2022-07-01T11:56:53.084Z,,,0,V,1802.2479999999923,timeout,,,258269.6000000001,258268.397,256466.159,256473.3999999999,256482.836,258285.084,,grey
Stimulus,canvas.Screen,2_85_0_1,2022-07-01T11:56:53.183Z,,,0,V,98.82199999998556,timeout,,,258368.69999999995,258367.231,258268.397,258269.8999999999,258285.084,258383.906,,grey
Reaction,canvas.Screen,2_85_0_2,2022-07-01T11:56:53.352Z,,,0,V,152.7939999999653,response,stim_detected,mousedown,258538.5,258536.69999999995,258367.231,258368.8999999999,258383.906,258550.802,,grey
Trial,flow.Sequence,2_85_0,2022-07-01T11:56:53.353Z,,,0,V,2053.863999999943,completion,,,258538.80000000005,258536.69999999995,256466.159,256473.30000000005,256482.836,258550.802,,grey
Frame,canvas.Frame,2_85,2022-07-01T11:56:53.353Z,,,0,V,2056.1639999999898,,,,258539.19999999995,258539,256466.159,256472.3999999999,256482.836,258550.802,,grey
Fixation,canvas.Screen,2_86_0_0,2022-07-01T11:56:55.219Z,,,1,A,1869.1609999999928,timeout,,,260404.80000000005,260403.275,258534.126,258540.30000000005,258550.802,260419.963,,black
Stimulus,canvas.Screen,2_86_0_1,2022-07-01T11:56:55.317Z,,,1,A,98.82400000002235,timeout,,,260502.69999999995,260501.868,260403.275,260404.8999999999,260419.963,260518.787,,black
Reaction,canvas.Screen,2_86_0_2,2022-07-01T11:56:55.501Z,,,1,A,165.91299999994226,response,stim_detected,mousedown,260686.6000000001,260684.69999999995,260501.868,260503,260518.787,260702.234,,black
Trial,flow.Sequence,2_86_0,2022-07-01T11:56:55.501Z,,,1,A,2133.8979999999574,completion,,,260687,260684.69999999995,258534.126,258540.19999999995,258550.802,260702.234,,black
Frame,canvas.Frame,2_86,2022-07-01T11:56:55.501Z,,,1,A,2136.298000000097,,,,260687.30000000005,260687.1000000001,258534.126,258539.3999999999,258550.802,260702.234,,black
Fixation,canvas.Screen,2_87_0_0,2022-07-01T11:56:57.818Z,,,1,AV,2317.201000000001,timeout,,,263003.8999999999,263002.764,260685.557,260688.5,260702.234,263019.435,,grey
Stimulus,canvas.Screen,2_87_0_1,2022-07-01T11:56:57.919Z,,,1,AV,101.08399999997346,timeout,,,263105.1000000001,263103.842,263002.764,263004.30000000005,263019.435,263120.519,,grey
Reaction,canvas.Screen,2_87_0_2,2022-07-01T11:56:58.067Z,,,1,AV,131.081000000122,response,stim_detected,mousedown,263253.3999999999,263251.6000000001,263103.842,263105.30000000005,263120.519,263270.517,,grey
Trial,flow.Sequence,2_87_0,2022-07-01T11:56:58.068Z,,,1,AV,2549.3660000000964,completion,,,263253.80000000005,263251.6000000001,260685.557,260688.30000000005,260702.234,263270.517,,grey
Frame,canvas.Frame,2_87,2022-07-01T11:56:58.068Z,,,1,AV,2551.66599999991,,,,263254.30000000005,263253.8999999999,260685.557,260687.5,260702.234,263270.517,,grey
Fixation,canvas.Screen,2_88_0_0,2022-07-01T11:56:59.588Z,,,1,AV,1518.5810000000056,timeout,,,264773.8999999999,264772.411,263253.84,263255.69999999995,263270.517,264789.098,,grey
Stimulus,canvas.Screen,2_88_0_1,2022-07-01T11:56:59.687Z,,,1,AV,98.96399999997811,timeout,,,264872.80000000005,264871.387,264772.411,264774.30000000005,264789.098,264888.062,,grey
Reaction,canvas.Screen,2_88_0_2,2022-07-01T11:56:59.911Z,,,1,AV,207.53800000011688,response,stim_detected,mousedown,265097.19999999995,265095.6000000001,264871.387,264873.19999999995,264888.062,265105.05,,grey
Trial,flow.Sequence,2_88_0,2022-07-01T11:56:59.911Z,,,1,AV,1825.0830000001006,completion,,,265097.6000000001,265095.6000000001,263253.84,263255.6000000001,263270.517,265105.05,,grey
Frame,canvas.Frame,2_88,2022-07-01T11:56:59.912Z,,,1,AV,1827.1829999999609,,,,265097.8999999999,265097.69999999995,263253.84,263254.6000000001,263270.517,265105.05,,grey
Fixation,canvas.Screen,2_89_0_0,2022-07-01T11:57:02.207Z,,,1,AV,2303.0410000000265,timeout,,,267393.1000000001,267391.403,265088.373,265099.1000000001,265105.05,267408.091,,grey
Stimulus,canvas.Screen,2_89_0_1,2022-07-01T11:57:02.305Z,,,1,AV,98.51999999996042,timeout,,,267491.19999999995,267489.835,267391.403,267393.3999999999,267408.091,267506.611,,grey
Reaction,canvas.Screen,2_89_0_2,2022-07-01T11:57:02.506Z,,,1,AV,182.78899999993155,response,stim_detected,mousedown,267691.69999999995,267689.3999999999,267489.835,267491.3999999999,267506.611,267706.735,,grey
Trial,flow.Sequence,2_89_0,2022-07-01T11:57:02.506Z,,,1,AV,2584.3499999999185,completion,,,267692.19999999995,267689.3999999999,265088.373,265099,265105.05,267706.735,,grey
Frame,canvas.Frame,2_89,2022-07-01T11:57:02.506Z,,,1,AV,2587.250000000058,,,,267692.5,267692.30000000005,265088.373,265098.1000000001,265105.05,267706.735,,grey
Fixation,canvas.Screen,2_90_0_0,2022-07-01T11:57:04.040Z,,,0,V,1534.7170000000042,timeout,,,269225.80000000005,269224.771,267690.058,267693.8999999999,267706.735,269241.452,,grey
Stimulus,canvas.Screen,2_90_0_1,2022-07-01T11:57:04.140Z,,,0,V,99.65799999999581,timeout,,,269325.8999999999,269324.433,269224.771,269226.19999999995,269241.452,269341.11,,grey
Reaction,canvas.Screen,2_90_0_2,2022-07-01T11:57:04.365Z,,,0,V,208.28999999992084,response,stim_detected,mousedown,269551,269549.3999999999,269324.433,269326.1000000001,269341.11,269874.736,,grey
Trial,flow.Sequence,2_90_0,2022-07-01T11:57:04.365Z,,,0,V,1842.6649999999208,completion,,,269551.5,269549.3999999999,267690.058,267693.69999999995,267706.735,269874.736,,grey
Frame,canvas.Frame,2_90,2022-07-01T11:57:04.366Z,,,0,V,1844.865000000107,,,,269551.69999999995,269551.6000000001,267690.058,267692.6000000001,267706.735,269874.736,,grey
Loop,flow.Loop,2,2022-07-01T11:57:04.366Z,,,,,213814.5660000001,completion,,,269552.1000000001,269551.6000000001,55720.356,55722,55737.034,269874.736,,
end,html.Page,3,2022-07-01T11:57:09.110Z,,,,,4421.264000000025,form submission,,,274296.6000000001,274296,269541.216,269552.30000000005,269874.736,274294.833,,
root,flow.Sequence,,2022-07-01T11:57:09.112Z,,,,,272777.309,completion,,,274298,274296,1502.01,1501.3999999999069,1518.691,274294.833,,