sender,sender_type,sender_id,timestamp,meta,,aud,condition,duration,ended_on,response,response_action,time_commit,time_end,time_render,time_run,time_show,time_switch,url,vis,id,age,sex,edu,occ,ela,pat,ill,prt,pcr,pab
Instructions,html.Page,0,2022-06-03T11:13:26.554Z,"{""labjs_version"":""20.2.4"",""labjs_build"":{""flavor"":""production"",""commit"":""f5b4a49f956347addd546a832a3327688c2c0fef""},""location"":""file:///C:/Users/Proband%207/Desktop/RTE/index.html"",""userAgent"":""Mozilla/5.0 (Windows NT 6.1; Win64; x64) AppleWebKit/537.36 (KHTML, like Gecko) Chrome/102.0.5005.63 Safari/537.36"",""platform"":""Win32"",""language"":""de-DE"",""locale"":""de"",""timeZone"":""Europe/Berlin"",""timezoneOffset"":-120,""screen_width"":1366,""screen_height"":768,""scroll_width"":1366,""scroll_height"":609,""window_innerWidth"":1366,""window_innerHeight"":657,""devicePixelRatio"":1}",,,,46686.32900000149,form submission,,,48114.5,48113.10000000149,1410095,1417.1000000014901,1426771,48115.43,{},,AS16NO12,23,f,1,0,Psychologie,0,0,0,0,0
Change Background,canvas.Screen,1,2022-06-03T11:13:29.533Z,,,,,2992.951000000001,timeout,,,51093.5,51091712,48098742,48115.20000000298,48115.43,51108381,,,AS16NO12,23,f,1,0,Psychologie,0,0,0,0,0
Fixation,canvas.Screen,2_0_0_0,2022-06-03T11:13:31.788Z,,,1,AV,2254.926999999996,timeout,,,53348.20000000298,53346613,51091712,51095.20000000298,51108381,53363308,,grey,AS16NO12,23,f,1,0,Psychologie,0,0,0,0,0
Stimulus,canvas.Screen,2_0_0_1,2022-06-03T11:13:31.885Z,,,1,AV,97.60900000000402,timeout,,,53445.400000002235,53444.24,53346613,53348.5,53363308,53460917,,grey,AS16NO12,23,f,1,0,Psychologie,0,0,0,0,0
Reaction,canvas.Screen,2_0_0_2,2022-06-03T11:13:32.100Z,,,1,AV,197.18300000148884,response,stim_detected,mousedown,53660.20000000298,53658.10000000149,53444.24,53445.5,53460917,53677698,,grey,AS16NO12,23,f,1,0,Psychologie,0,0,0,0,0
Trial,flow.Sequence,2_0_0,2022-06-03T11:13:32.100Z,,,1,AV,2549.719000001489,completion,,,53661,53658.10000000149,51091712,51095.10000000149,51108381,53677698,,grey,AS16NO12,23,f,1,0,Psychologie,0,0,0,0,0
Frame,canvas.Frame,2_0,2022-06-03T11:13:32.101Z,,,1,AV,2553.019000002234,,,,53661.800000000745,53661.400000002235,51091712,51093.900000002235,51108381,53677698,,grey,AS16NO12,23,f,1,0,Psychologie,0,0,0,0,0
Fixation,canvas.Screen,2_1_0_0,2022-06-03T11:13:34.370Z,,,1,AV,2267.7850000000035,timeout,,,55930.20000000298,55928808,53661022,53663.20000000298,53677698,55945483,,grey,AS16NO12,23,f,1,0,Psychologie,0,0,0,0,0
Stimulus,canvas.Screen,2_1_0_1,2022-06-03T11:13:34.471Z,,,1,AV,100.46300000000338,timeout,,,56031.300000000745,56029269,55928808,55930.60000000149,55945483,56045946,,grey,AS16NO12,23,f,1,0,Psychologie,0,0,0,0,0
Reaction,canvas.Screen,2_1_0_2,2022-06-03T11:13:34.601Z,,,1,AV,114.05399999999645,response,stim_detected,mousedown,56161.60000000149,56160,56029269,56031.900000002235,56045946,56179384,,grey,AS16NO12,23,f,1,0,Psychologie,0,0,0,0,0
Trial,flow.Sequence,2_1_0,2022-06-03T11:13:34.602Z,,,1,AV,2482.3020000000033,completion,,,56162.400000002235,56160,53661022,53663,53677698,56179384,,grey,AS16NO12,23,f,1,0,Psychologie,0,0,0,0,0
Frame,canvas.Frame,2_1,2022-06-03T11:13:34.602Z,,,1,AV,2484.8020000000033,,,,56162.900000002235,56162.5,53661022,53662.10000000149,53677698,56179384,,grey,AS16NO12,23,f,1,0,Psychologie,0,0,0,0,0
Fixation,canvas.Screen,2_2_0_0,2022-06-03T11:13:37.040Z,,,1,A,2435.7910000000047,timeout,,,58600.10000000149,58598492,56162707,56164.5,56179384,58615175,,black,AS16NO12,23,f,1,0,Psychologie,0,0,0,0,0
Stimulus,canvas.Screen,2_2_0_1,2022-06-03T11:13:37.139Z,,,1,A,99.25399999999354,timeout,,,58699.70000000298,58697752,58598492,58600.20000000298,58615175,58714429,,black,AS16NO12,23,f,1,0,Psychologie,0,0,0,0,0
Reaction,canvas.Screen,2_2_0_2,2022-06-03T11:13:37.318Z,,,1,A,162.3710000007486,response,stim_detected,mousedown,58878.70000000298,58876.800000000745,58697752,58700,58714429,58881184,,black,AS16NO12,23,f,1,0,Psychologie,0,0,0,0,0
Trial,flow.Sequence,2_2_0,2022-06-03T11:13:37.319Z,,,1,A,2697.416000000747,completion,,,58879.20000000298,58876.800000000745,56162707,56164.300000000745,56179384,58881184,,black,AS16NO12,23,f,1,0,Psychologie,0,0,0,0,0
Frame,canvas.Frame,2_2,2022-06-03T11:13:37.319Z,,,1,A,2699.916000000747,,,,58879.5,58879.300000000745,56162707,56163.20000000298,56179384,58881184,,black,AS16NO12,23,f,1,0,Psychologie,0,0,0,0,0
Fixation,canvas.Screen,2_3_0_0,2022-06-03T11:13:39.191Z,,,1,AV,1884.6370000000024,timeout,,,60750.400000002235,60749143,58864507,58880.800000000745,58881184,60765821,,grey,AS16NO12,23,f,1,0,Psychologie,0,0,0,0,0
Stimulus,canvas.Screen,2_3_0_1,2022-06-03T11:13:39.291Z,,,1,AV,99.81199999999808,timeout,,,60850.20000000298,60848957,60749143,60750.5,60765821,60865633,,grey,AS16NO12,23,f,1,0,Psychologie,0,0,0,0,0
Reaction,canvas.Screen,2_3_0_2,2022-06-03T11:13:39.468Z,,,1,AV,160.16700000074343,response,stim_detected,mousedown,61027.400000002235,61025.800000000745,60848957,60850.5,60865633,61049.27,,grey,AS16NO12,23,f,1,0,Psychologie,0,0,0,0,0
Trial,flow.Sequence,2_3_0,2022-06-03T11:13:39.469Z,,,1,AV,2144.616000000744,completion,,,61027.800000000745,61025.800000000745,58864507,58880.70000000298,58881184,61049.27,,grey,AS16NO12,23,f,1,0,Psychologie,0,0,0,0,0
Frame,canvas.Frame,2_3,2022-06-03T11:13:39.469Z,,,1,AV,2146.716000002234,,,,61028.10000000149,61027.900000002235,58864507,58879.70000000298,58881184,61049.27,,grey,AS16NO12,23,f,1,0,Psychologie,0,0,0,0,0
Fixation,canvas.Screen,2_4_0_0,2022-06-03T11:13:41.426Z,,,1,AV,1951.0840000000026,timeout,,,62985.5,62983678,61015916,61029.60000000149,61049.27,63000354,,grey,AS16NO12,23,f,1,0,Psychologie,0,0,0,0,0
Stimulus,canvas.Screen,2_4_0_1,2022-06-03T11:13:41.526Z,,,1,AV,100.22499999999854,timeout,,,63085.400000002235,63083902,62983678,62985.800000000745,63000354,63100579,,grey,AS16NO12,23,f,1,0,Psychologie,0,0,0,0,0
Reaction,canvas.Screen,2_4_0_2,2022-06-03T11:13:41.660Z,,,1,AV,116.32100000223727,response,stim_detected,mousedown,63218.900000002235,63216.900000002235,63083902,63085.70000000298,63100579,63234037,,grey,AS16NO12,23,f,1,0,Psychologie,0,0,0,0,0
Trial,flow.Sequence,2_4_0,2022-06-03T11:13:41.660Z,,,1,AV,2167.6300000022384,completion,,,63219.400000002235,63216.900000002235,61015916,61029.400000002235,61049.27,63234037,,grey,AS16NO12,23,f,1,0,Psychologie,0,0,0,0,0
Frame,canvas.Frame,2_4,2022-06-03T11:13:41.661Z,,,1,AV,2170.3300000014933,,,,63219.900000002235,63219.60000000149,61015916,61028.400000002235,61049.27,63234037,,grey,AS16NO12,23,f,1,0,Psychologie,0,0,0,0,0
Fixation,canvas.Screen,2_5_0_0,2022-06-03T11:13:43.311Z,,,1,A,1651.244000000006,timeout,,,64870.5,64868602,63217.36,63221.300000000745,63234037,64885281,,black,AS16NO12,23,f,1,0,Psychologie,0,0,0,0,0
Stimulus,canvas.Screen,2_5_0_1,2022-06-03T11:13:43.411Z,,,1,A,99.96999999999389,timeout,,,64970.5,64968573,64868602,64870.800000000745,64885281,64985251,,black,AS16NO12,23,f,1,0,Psychologie,0,0,0,0,0
Reaction,canvas.Screen,2_5_0_2,2022-06-03T11:13:43.588Z,,,1,A,160.6490000022386,response,stim_detected,mousedown,65147.300000000745,65145.900000002235,64968573,64970.70000000298,64985251,65151905,,black,AS16NO12,23,f,1,0,Psychologie,0,0,0,0,0
Trial,flow.Sequence,2_5_0,2022-06-03T11:13:43.589Z,,,1,A,1911.8630000022386,completion,,,65147.70000000298,65145.900000002235,63217.36,63221.10000000149,63234037,65151905,,black,AS16NO12,23,f,1,0,Psychologie,0,0,0,0,0
Frame,canvas.Frame,2_5,2022-06-03T11:13:43.589Z,,,1,A,1913.8630000022386,,,,65148.10000000149,65147.900000002235,63217.36,63220.10000000149,63234037,65151905,,black,AS16NO12,23,f,1,0,Psychologie,0,0,0,0,0
Fixation,canvas.Screen,2_6_0_0,2022-06-03T11:13:45.162Z,,,1,A,1585.3099999999977,timeout,,,66721.40000000224,66720529,65135229,65149.5,65151905,66737215,,black,AS16NO12,23,f,1,0,Psychologie,0,0,0,0,0
Stimulus,canvas.Screen,2_6_0_1,2022-06-03T11:13:45.262Z,,,1,A,99.16400000000431,timeout,,,66821.5,66819702,66720529,66721.90000000224,66737215,66836379,,black,AS16NO12,23,f,1,0,Psychologie,0,0,0,0,0
Reaction,canvas.Screen,2_6_0_2,2022-06-03T11:13:45.410Z,,,1,A,131.32100000297942,response,stim_detected,mousedown,66969.20000000298,66967.70000000298,66819702,66821.70000000298,66836379,66986.48,,black,AS16NO12,23,f,1,0,Psychologie,0,0,0,0,0
Trial,flow.Sequence,2_6_0,2022-06-03T11:13:45.410Z,,,1,A,1815.7950000029814,completion,,,66969.60000000149,66967.70000000298,65135229,65149.400000002235,65151905,66986.48,,black,AS16NO12,23,f,1,0,Psychologie,0,0,0,0,0
Frame,canvas.Frame,2_6,2022-06-03T11:13:45.411Z,,,1,A,1817.8950000007462,,,,66970,66969.80000000075,65135229,65148.300000000745,65151905,66986.48,,black,AS16NO12,23,f,1,0,Psychologie,0,0,0,0,0
Fixation,canvas.Screen,2_7_0_0,2022-06-03T11:13:47.897Z,,,0,V,2485.49500000001,timeout,,,69456.60000000149,69455294,66969803,66971.20000000298,66986.48,69471975,,grey,AS16NO12,23,f,1,0,Psychologie,0,0,0,0,0
Stimulus,canvas.Screen,2_7_0_1,2022-06-03T11:13:47.997Z,,,0,V,99.61799999998766,timeout,,,69556.70000000298,69554914,69455294,69456.90000000224,69471975,69571593,,grey,AS16NO12,23,f,1,0,Psychologie,0,0,0,0,0
Reaction,canvas.Screen,2_7_0_2,2022-06-03T11:13:48.145Z,,,0,V,131.20700000075158,response,stim_detected,mousedown,69704.20000000298,69702.80000000075,69554914,69557,69571593,69721622,,grey,AS16NO12,23,f,1,0,Psychologie,0,0,0,0,0
Trial,flow.Sequence,2_7_0,2022-06-03T11:13:48.145Z,,,0,V,2716.320000000749,completion,,,69704.5,69702.80000000075,66969803,66971.10000000149,66986.48,69721622,,grey,AS16NO12,23,f,1,0,Psychologie,0,0,0,0,0
Frame,canvas.Frame,2_7,2022-06-03T11:13:48.146Z,,,0,V,2718.2200000029843,,,,69704.90000000224,69704.70000000298,66969803,66970.20000000298,66986.48,69721622,,grey,AS16NO12,23,f,1,0,Psychologie,0,0,0,0,0
Fixation,canvas.Screen,2_8_0_0,2022-06-03T11:13:50.430Z,,,1,A,2283.706999999995,timeout,,,71989.60000000149,71988659,69704945,69706.20000000298,69721622,72005329,,black,AS16NO12,23,f,1,0,Psychologie,0,0,0,0,0
Stimulus,canvas.Screen,2_8_0_1,2022-06-03T11:13:50.532Z,,,1,A,101.25200000000768,timeout,,,72091.60000000149,72089.9,71988659,71989.80000000075,72005329,72106581,,black,AS16NO12,23,f,1,0,Psychologie,0,0,0,0,0
Reaction,canvas.Screen,2_8_0_2,2022-06-03T11:13:50.687Z,,,1,A,138.11900000297464,response,stim_detected,mousedown,72246.20000000298,72244.70000000298,72089.9,72091.80000000075,72106581,72256625,,black,AS16NO12,23,f,1,0,Psychologie,0,0,0,0,0
Trial,flow.Sequence,2_8_0,2022-06-03T11:13:50.687Z,,,1,A,2523.078000002977,completion,,,72246.5,72244.70000000298,69704945,69706.10000000149,69721622,72256625,,black,AS16NO12,23,f,1,0,Psychologie,0,0,0,0,0
Frame,canvas.Frame,2_8,2022-06-03T11:13:50.688Z,,,1,A,2525.078000002977,,,,72246.90000000224,72246.70000000298,69704945,69705.10000000149,69721622,72256625,,black,AS16NO12,23,f,1,0,Psychologie,0,0,0,0,0
Fixation,canvas.Screen,2_9_0_0,2022-06-03T11:13:52.466Z,,,1,AV,1784.546000000002,timeout,,,74025.70000000298,74024493,72239948,72248.30000000075,72256625,74041171,,grey,AS16NO12,23,f,1,0,Psychologie,0,0,0,0,0
Stimulus,canvas.Screen,2_9_0_1,2022-06-03T11:13:52.566Z,,,1,AV,99.99799999999232,timeout,,,74125.80000000075,74124492,74024493,74025.90000000224,74041171,74141169,,grey,AS16NO12,23,f,1,0,Psychologie,0,0,0,0,0
Reaction,canvas.Screen,2_9_0_2,2022-06-03T11:13:52.736Z,,,1,AV,152.4310000014957,response,stim_detected,mousedown,74295.10000000149,74293.60000000149,74124492,74126.20000000298,74141169,74307967,,grey,AS16NO12,23,f,1,0,Psychologie,0,0,0,0,0
Trial,flow.Sequence,2_9_0,2022-06-03T11:13:52.736Z,,,1,AV,2036.9750000014901,completion,,,74295.5,74293.60000000149,72239948,72248.20000000298,72256625,74307967,,grey,AS16NO12,23,f,1,0,Psychologie,0,0,0,0,0
Frame,canvas.Frame,2_9,2022-06-03T11:13:52.737Z,,,1,AV,2039.0750000029802,,,,74295.80000000075,74295.70000000298,72239948,72247.20000000298,72256625,74307967,,grey,AS16NO12,23,f,1,0,Psychologie,0,0,0,0,0
Fixation,canvas.Screen,2_10_0_0,2022-06-03T11:13:54.301Z,,,0,V,1567.3269999999902,timeout,,,75859.90000000224,75858.62,74291.29,74297,74307967,75875294,,grey,AS16NO12,23,f,1,0,Psychologie,0,0,0,0,0
Stimulus,canvas.Screen,2_10_0_1,2022-06-03T11:13:54.401Z,,,0,V,100.54300000000512,timeout,,,75960.80000000075,75959158,75858.62,75860.20000000298,75875294,75975837,,grey,AS16NO12,23,f,1,0,Psychologie,0,0,0,0,0
Reaction,canvas.Screen,2_10_0_2,2022-06-03T11:13:54.658Z,,,0,V,239.66300000000047,response,stim_detected,mousedown,76217.5,76215.5,75959158,75961,75975837,76225883,,grey,AS16NO12,23,f,1,0,Psychologie,0,0,0,0,0
Trial,flow.Sequence,2_10_0,2022-06-03T11:13:54.659Z,,,0,V,1907.5329999999958,completion,,,76218,76215.5,74291.29,74296.90000000224,74307967,76225883,,grey,AS16NO12,23,f,1,0,Psychologie,0,0,0,0,0
Frame,canvas.Frame,2_10,2022-06-03T11:13:54.659Z,,,0,V,1910.133000001486,,,,76218.40000000224,76218.10000000149,74291.29,74295.90000000224,74307967,76225883,,grey,AS16NO12,23,f,1,0,Psychologie,0,0,0,0,0
Fixation,canvas.Screen,2_11_0_0,2022-06-03T11:13:56.904Z,,,1,A,2251.9890000000014,timeout,,,78462.80000000075,78461191,76209206,76219.60000000149,76225883,78477872,,black,AS16NO12,23,f,1,0,Psychologie,0,0,0,0,0
Stimulus,canvas.Screen,2_11_0_1,2022-06-03T11:13:57.002Z,,,1,A,99.46600000000035,timeout,,,78561.5,78560662,78461191,78463.10000000149,78477872,78577338,,black,AS16NO12,23,f,1,0,Psychologie,0,0,0,0,0
Reaction,canvas.Screen,2_11_0_2,2022-06-03T11:13:57.131Z,,,1,A,111.16199999999662,response,stim_detected,mousedown,78690,78688.5,78560662,78561.60000000149,78577338,78694142,,black,AS16NO12,23,f,1,0,Psychologie,0,0,0,0,0
Trial,flow.Sequence,2_11_0,2022-06-03T11:13:57.131Z,,,1,A,2462.6169999999984,completion,,,78690.40000000224,78688.5,76209206,76219.5,76225883,78694142,,black,AS16NO12,23,f,1,0,Psychologie,0,0,0,0,0
Frame,canvas.Frame,2_11,2022-06-03T11:13:57.132Z,,,1,A,2464.7170000014885,,,,78690.80000000075,78690.60000000149,76209206,76218.60000000149,76225883,78694142,,black,AS16NO12,23,f,1,0,Psychologie,0,0,0,0,0
Fixation,canvas.Screen,2_12_0_0,2022-06-03T11:13:59.189Z,,,0,V,2068.9429999999993,timeout,,,80748.10000000149,80746.4,78677465,78692,78694142,80763085,,grey,AS16NO12,23,f,1,0,Psychologie,0,0,0,0,0
Stimulus,canvas.Screen,2_12_0_1,2022-06-03T11:13:59.287Z,,,0,V,98.61799999998766,timeout,,,80846,80845.03,80746.4,80748.30000000075,80763085,80861703,,grey,AS16NO12,23,f,1,0,Psychologie,0,0,0,0,0
Reaction,canvas.Screen,2_12_0_2,2022-06-03T11:13:59.478Z,,,0,V,173.6970000022411,response,stim_detected,mousedown,81037,81035.40000000224,80845.03,80846.20000000298,80861703,81045683,,grey,AS16NO12,23,f,1,0,Psychologie,0,0,0,0,0
Trial,flow.Sequence,2_12_0,2022-06-03T11:13:59.478Z,,,0,V,2341.258000002228,completion,,,81037.40000000224,81035.40000000224,78677465,78692,78694142,81045683,,grey,AS16NO12,23,f,1,0,Psychologie,0,0,0,0,0
Frame,canvas.Frame,2_12,2022-06-03T11:13:59.478Z,,,0,V,2343.357999999993,,,,81037.70000000298,81037.5,78677465,78691,78694142,81045683,,grey,AS16NO12,23,f,1,0,Psychologie,0,0,0,0,0
Fixation,canvas.Screen,2_13_0_0,2022-06-03T11:14:01.808Z,,,1,A,2336.5179999999964,timeout,,,83367,83365512,81029006,81039,81045683,83382201,,black,AS16NO12,23,f,1,0,Psychologie,0,0,0,0,0
Stimulus,canvas.Screen,2_13_0_1,2022-06-03T11:14:01.906Z,,,1,A,98.22400000000198,timeout,,,83464.90000000224,83463749,83365512,83367.30000000075,83382201,83480425,,black,AS16NO12,23,f,1,0,Psychologie,0,0,0,0,0
Reaction,canvas.Screen,2_13_0_2,2022-06-03T11:14:02.358Z,,,1,A,434.97500000223226,response,stim_detected,mousedown,83916.90000000224,83915.40000000224,83463749,83465.30000000075,83480425,83930924,,black,AS16NO12,23,f,1,0,Psychologie,0,0,0,0,0
Trial,flow.Sequence,2_13_0,2022-06-03T11:14:02.358Z,,,1,A,2869.7170000022306,completion,,,83917.20000000298,83915.40000000224,81029006,81038.90000000224,81045683,83930924,,black,AS16NO12,23,f,1,0,Psychologie,0,0,0,0,0
Frame,canvas.Frame,2_13,2022-06-03T11:14:02.358Z,,,1,A,2871.7170000022306,,,,83917.60000000149,83917.40000000224,81029006,81037.90000000224,81045683,83930924,,black,AS16NO12,23,f,1,0,Psychologie,0,0,0,0,0
Fixation,canvas.Screen,2_14_0_0,2022-06-03T11:14:03.991Z,,,1,AV,1634.4780000000028,timeout,,,85550,85548724,83914247,83919,83930924,85565402,,grey,AS16NO12,23,f,1,0,Psychologie,0,0,0,0,0
Stimulus,canvas.Screen,2_14_0_1,2022-06-03T11:14:04.091Z,,,1,AV,100.02599999999802,timeout,,,85650.10000000149,85648751,85548724,85550.20000000298,85565402,85665428,,grey,AS16NO12,23,f,1,0,Psychologie,0,0,0,0,0
Reaction,canvas.Screen,2_14_0_2,2022-06-03T11:14:04.236Z,,,1,AV,127.97200000223529,response,stim_detected,mousedown,85794.80000000075,85793.40000000224,85648751,85650.40000000224,85665428,85815514,,grey,AS16NO12,23,f,1,0,Psychologie,0,0,0,0,0
Trial,flow.Sequence,2_14_0,2022-06-03T11:14:04.236Z,,,1,AV,1862.476000002236,completion,,,85795.20000000298,85793.40000000224,83914247,83918.90000000224,83930924,85815514,,grey,AS16NO12,23,f,1,0,Psychologie,0,0,0,0,0
Frame,canvas.Frame,2_14,2022-06-03T11:14:04.236Z,,,1,AV,1864.476000002236,,,,85795.60000000149,85795.40000000224,83914247,83917.80000000075,83930924,85815514,,grey,AS16NO12,23,f,1,0,Psychologie,0,0,0,0,0
Fixation,canvas.Screen,2_15_0_0,2022-06-03T11:14:06.293Z,,,1,A,2051.74500000001,timeout,,,87852.30000000075,87850578,85782.16,85797.10000000149,85815514,87867259,,black,AS16NO12,23,f,1,0,Psychologie,0,0,0,0,0
Stimulus,canvas.Screen,2_15_0_1,2022-06-03T11:14:06.392Z,,,1,A,98.99899999999616,timeout,,,87951.10000000149,87949586,87850578,87852.60000000149,87867259,87966258,,black,AS16NO12,23,f,1,0,Psychologie,0,0,0,0,0
Reaction,canvas.Screen,2_15_0_2,2022-06-03T11:14:06.595Z,,,1,A,186.04200000074343,response,stim_detected,mousedown,88153.80000000075,88152.30000000075,87949586,87951.40000000224,87966258,88167023,,black,AS16NO12,23,f,1,0,Psychologie,0,0,0,0,0
Trial,flow.Sequence,2_15_0,2022-06-03T11:14:06.595Z,,,1,A,2336.7860000007495,completion,,,88154.20000000298,88152.30000000075,85782.16,85797,85815514,88167023,,black,AS16NO12,23,f,1,0,Psychologie,0,0,0,0,0
Frame,canvas.Frame,2_15,2022-06-03T11:14:06.595Z,,,1,A,2338.7860000007495,,,,88154.70000000298,88154.30000000075,85782.16,85795.80000000075,85815514,88167023,,black,AS16NO12,23,f,1,0,Psychologie,0,0,0,0,0
Fixation,canvas.Screen,2_16_0_0,2022-06-03T11:14:08.144Z,,,0,V,1551.297000000006,timeout,,,89703.10000000149,89701.64,88150346,88156,88167023,89718.32,,grey,AS16NO12,23,f,1,0,Psychologie,0,0,0,0,0
Stimulus,canvas.Screen,2_16_0_1,2022-06-03T11:14:08.243Z,,,0,V,99.72599999999511,timeout,,,89802.30000000075,89801.37,89701.64,89703.5,89718.32,89818046,,grey,AS16NO12,23,f,1,0,Psychologie,0,0,0,0,0
Reaction,canvas.Screen,2_16_0_2,2022-06-03T11:14:08.481Z,,,0,V,221.25400000074296,response,stim_detected,mousedown,90040.70000000298,90039.30000000075,89801.37,89802.5,89818046,90051.55,,grey,AS16NO12,23,f,1,0,Psychologie,0,0,0,0,0
Trial,flow.Sequence,2_16_0,2022-06-03T11:14:08.482Z,,,0,V,1872.277000000744,completion,,,90041.20000000298,90039.30000000075,88150346,88155.80000000075,88167023,90051.55,,grey,AS16NO12,23,f,1,0,Psychologie,0,0,0,0,0
Frame,canvas.Frame,2_16,2022-06-03T11:14:08.482Z,,,0,V,1874.1770000029792,,,,90041.5,90041.20000000298,88150346,88154.80000000075,88167023,90051.55,,grey,AS16NO12,23,f,1,0,Psychologie,0,0,0,0,0
Fixation,canvas.Screen,2_17_0_0,2022-06-03T11:14:10.630Z,,,1,A,2153.1129999999976,timeout,,,92189.40000000224,92187973,90034874,90042.70000000298,90051.55,92204663,,black,AS16NO12,23,f,1,0,Psychologie,0,0,0,0,0
Stimulus,canvas.Screen,2_17_0_1,2022-06-03T11:14:10.728Z,,,1,A,98.34399999999732,timeout,,,92287.40000000224,92286331,92187973,92189.70000000298,92204663,92303007,,black,AS16NO12,23,f,1,0,Psychologie,0,0,0,0,0
Reaction,canvas.Screen,2_17_0_2,2022-06-03T11:14:11.014Z,,,1,A,269.19300000298244,response,stim_detected,mousedown,92573.70000000298,92572.20000000298,92286331,92287.60000000149,92303007,92586.6,,black,AS16NO12,23,f,1,0,Psychologie,0,0,0,0,0
Trial,flow.Sequence,2_17_0,2022-06-03T11:14:11.015Z,,,1,A,2520.6500000029773,completion,,,92574,92572.20000000298,90034874,90042.60000000149,90051.55,92586.6,,black,AS16NO12,23,f,1,0,Psychologie,0,0,0,0,0
Frame,canvas.Frame,2_17,2022-06-03T11:14:11.015Z,,,1,A,2522.6500000029773,,,,92574.40000000224,92574.20000000298,90034874,90041.80000000075,90051.55,92586.6,,black,AS16NO12,23,f,1,0,Psychologie,0,0,0,0,0
Fixation,canvas.Screen,2_18_0_0,2022-06-03T11:14:13.031Z,,,0,V,2018.898000000001,timeout,,,94590.40000000224,94588813,92569923,92575.60000000149,92586.6,94605498,,grey,AS16NO12,23,f,1,0,Psychologie,0,0,0,0,0
Stimulus,canvas.Screen,2_18_0_1,2022-06-03T11:14:13.129Z,,,0,V,98.61399999998685,timeout,,,94688.5,94687439,94588813,94590.60000000149,94605498,94704112,,grey,AS16NO12,23,f,1,0,Psychologie,0,0,0,0,0
Reaction,canvas.Screen,2_18_0_2,2022-06-03T11:14:13.304Z,,,0,V,158.08800000298652,response,stim_detected,mousedown,94863.60000000149,94862.20000000298,94687439,94688.80000000075,94704112,94871449,,grey,AS16NO12,23,f,1,0,Psychologie,0,0,0,0,0
Trial,flow.Sequence,2_18_0,2022-06-03T11:14:13.305Z,,,0,V,2275.6000000029744,completion,,,94864.10000000149,94862.20000000298,92569923,92575.5,92586.6,94871449,,grey,AS16NO12,23,f,1,0,Psychologie,0,0,0,0,0
Frame,canvas.Frame,2_18,2022-06-03T11:14:13.305Z,,,0,V,2277.6000000029744,,,,94864.40000000224,94864.20000000298,92569923,92574.70000000298,92586.6,94871449,,grey,AS16NO12,23,f,1,0,Psychologie,0,0,0,0,0
Fixation,canvas.Screen,2_19_0_0,2022-06-03T11:14:15.098Z,,,1,A,1801.488000000012,timeout,,,96657.5,96656257,94854772,94865.40000000224,94871449,96672937,,black,AS16NO12,23,f,1,0,Psychologie,0,0,0,0,0
Stimulus,canvas.Screen,2_19_0_1,2022-06-03T11:14:15.198Z,,,1,A,99.68499999999767,timeout,,,96757.5,96755946,96656257,96657.80000000075,96672937,96772622,,black,AS16NO12,23,f,1,0,Psychologie,0,0,0,0,0
Reaction,canvas.Screen,2_19_0_2,2022-06-03T11:14:15.362Z,,,1,A,146.77800000223215,response,stim_detected,mousedown,96920.90000000224,96919.40000000224,96755946,96757.80000000075,96772622,96922738,,black,AS16NO12,23,f,1,0,Psychologie,0,0,0,0,0
Trial,flow.Sequence,2_19_0,2022-06-03T11:14:15.362Z,,,1,A,2047.951000002242,completion,,,96921.30000000075,96919.40000000224,94854772,94865.40000000224,94871449,96922738,,black,AS16NO12,23,f,1,0,Psychologie,0,0,0,0,0
Frame,canvas.Frame,2_19,2022-06-03T11:14:15.362Z,,,1,A,2049.951000002242,,,,96921.60000000149,96921.40000000224,94854772,94864.60000000149,94871449,96922738,,black,AS16NO12,23,f,1,0,Psychologie,0,0,0,0,0
Fixation,canvas.Screen,2_20_0_0,2022-06-03T11:14:17.719Z,,,1,AV,2370.494000000006,timeout,,,99278.30000000075,99276539,96906062,96922.90000000224,96922738,99293232,,grey,AS16NO12,23,f,1,0,Psychologie,0,0,0,0,0
Stimulus,canvas.Screen,2_20_0_1,2022-06-03T11:14:17.817Z,,,1,AV,97.69599999999627,timeout,,,99375.90000000224,99374252,99276539,99278.60000000149,99293232,99390928,,grey,AS16NO12,23,f,1,0,Psychologie,0,0,0,0,0
Reaction,canvas.Screen,2_20_0_2,2022-06-03T11:14:17.939Z,,,1,AV,106.07200000000012,response,stim_detected,mousedown,99498.20000000298,99497,99374252,99376.10000000149,99390928,99507.82,,grey,AS16NO12,23,f,1,0,Psychologie,0,0,0,0,0
Trial,flow.Sequence,2_20_0,2022-06-03T11:14:17.939Z,,,1,AV,2574.2620000000024,completion,,,99498.5,99497,96906062,96922.70000000298,96922738,99507.82,,grey,AS16NO12,23,f,1,0,Psychologie,0,0,0,0,0
Frame,canvas.Frame,2_20,2022-06-03T11:14:17.939Z,,,1,AV,2575.8620000014926,,,,99498.70000000298,99498.60000000149,96906062,96921.80000000075,96922738,99507.82,,grey,AS16NO12,23,f,1,0,Psychologie,0,0,0,0,0
Fixation,canvas.Screen,2_21_0_0,2022-06-03T11:14:20.252Z,,,0,V,2317.952999999994,timeout,,,101810.90000000224,101809097,99491143,99499.5,99507.82,101825773,,grey,AS16NO12,23,f,1,0,Psychologie,0,0,0,0,0
Stimulus,canvas.Screen,2_21_0_1,2022-06-03T11:14:20.352Z,,,0,V,100.28100000000268,timeout,,,101910.90000000224,101909377,101809097,101811.10000000149,101825773,101926054,,grey,AS16NO12,23,f,1,0,Psychologie,0,0,0,0,0
Reaction,canvas.Screen,2_21_0_2,2022-06-03T11:14:20.558Z,,,0,V,189.94599999999627,response,stim_detected,mousedown,102117.60000000149,102116,101909377,101911.10000000149,101926054,102126213,,grey,AS16NO12,23,f,1,0,Psychologie,0,0,0,0,0
Trial,flow.Sequence,2_21_0,2022-06-03T11:14:20.559Z,,,0,V,2608.179999999993,completion,,,102118.10000000149,102116,99491143,99499.5,99507.82,102126213,,grey,AS16NO12,23,f,1,0,Psychologie,0,0,0,0,0
Frame,canvas.Frame,2_21,2022-06-03T11:14:20.559Z,,,0,V,2610.3800000029732,,,,102118.40000000224,102118.20000000298,99491143,99498.90000000224,99507.82,102126213,,grey,AS16NO12,23,f,1,0,Psychologie,0,0,0,0,0
Fixation,canvas.Screen,2_22_0_0,2022-06-03T11:14:22.888Z,,,0,V,2335.7149999999965,timeout,,,104446.80000000075,104445245,102109536,102119.60000000149,102126213,104461928,,grey,AS16NO12,23,f,1,0,Psychologie,0,0,0,0,0
Stimulus,canvas.Screen,2_22_0_1,2022-06-03T11:14:22.986Z,,,0,V,98.86599999999453,timeout,,,104545.70000000298,104544119,104445245,104447,104461928,104560794,,grey,AS16NO12,23,f,1,0,Psychologie,0,0,0,0,0
Reaction,canvas.Screen,2_22_0_2,2022-06-03T11:14:23.178Z,,,0,V,175.2060000000056,response,stim_detected,mousedown,104737.40000000224,104736,104544119,104546,104560794,104744578,,grey,AS16NO12,23,f,1,0,Psychologie,0,0,0,0,0
Trial,flow.Sequence,2_22_0,2022-06-03T11:14:23.179Z,,,0,V,2609.7869999999966,completion,,,104738.10000000149,104736,102109536,102119.5,102126213,104744578,,grey,AS16NO12,23,f,1,0,Psychologie,0,0,0,0,0
Frame,canvas.Frame,2_22,2022-06-03T11:14:23.179Z,,,0,V,2611.987000002977,,,,104738.40000000224,104738.20000000298,102109536,102118.60000000149,102126213,104744578,,grey,AS16NO12,23,f,1,0,Psychologie,0,0,0,0,0
Fixation,canvas.Screen,2_23_0_0,2022-06-03T11:14:25.488Z,,,1,A,2317.648000000001,timeout,,,107046.80000000075,107045552,104727901,104739.5,104744578,107062226,,black,AS16NO12,23,f,1,0,Psychologie,0,0,0,0,0
Stimulus,canvas.Screen,2_23_0_1,2022-06-03T11:14:25.589Z,,,1,A,100.64500000000407,timeout,,,107147.90000000224,107146192,107045552,107047.10000000149,107062226,107162871,,black,AS16NO12,23,f,1,0,Psychologie,0,0,0,0,0
Reaction,canvas.Screen,2_23_0_2,2022-06-03T11:14:25.852Z,,,1,A,246.029000002236,response,stim_detected,mousedown,107411.10000000149,107408.90000000224,107146192,107148.30000000075,107162871,107413008,,black,AS16NO12,23,f,1,0,Psychologie,0,0,0,0,0
Trial,flow.Sequence,2_23_0,2022-06-03T11:14:25.853Z,,,1,A,2664.322000002241,completion,,,107411.80000000075,107408.90000000224,104727901,104739.5,104744578,107413008,,black,AS16NO12,23,f,1,0,Psychologie,0,0,0,0,0
Frame,canvas.Frame,2_23,2022-06-03T11:14:25.853Z,,,1,A,2667.422000000006,,,,107412.10000000149,107412,104727901,104738.5,104744578,107413008,,black,AS16NO12,23,f,1,0,Psychologie,0,0,0,0,0
Fixation,canvas.Screen,2_24_0_0,2022-06-03T11:14:28.091Z,,,0,V,2251.709999999992,timeout,,,109650.20000000298,109648039,107396331,107414.20000000298,107413008,109664718,,grey,AS16NO12,23,f,1,0,Psychologie,0,0,0,0,0
Stimulus,canvas.Screen,2_24_0_1,2022-06-03T11:14:28.190Z,,,0,V,99.73600000000442,timeout,,,109749,109747778,109648039,109650.5,109664718,109764454,,grey,AS16NO12,23,f,1,0,Psychologie,0,0,0,0,0
Reaction,canvas.Screen,2_24_0_2,2022-06-03T11:14:28.358Z,,,0,V,151.44600000223727,response,stim_detected,mousedown,109917.5,109915.90000000224,109747778,109749.20000000298,109764454,109931347,,grey,AS16NO12,23,f,1,0,Psychologie,0,0,0,0,0
Trial,flow.Sequence,2_24_0,2022-06-03T11:14:28.359Z,,,0,V,2502.8920000022335,completion,,,109918,109915.90000000224,107396331,107413.60000000149,107413008,109931347,,grey,AS16NO12,23,f,1,0,Psychologie,0,0,0,0,0
Frame,canvas.Frame,2_24,2022-06-03T11:14:28.359Z,,,0,V,2505.0920000014885,,,,109918.30000000075,109918.10000000149,107396331,107412.30000000075,107413008,109931347,,grey,AS16NO12,23,f,1,0,Psychologie,0,0,0,0,0
Fixation,canvas.Screen,2_25_0_0,2022-06-03T11:14:30.241Z,,,0,V,1884.1330000000016,timeout,,,111800.30000000075,111798806,109914.67,109919.60000000149,109931347,111815.48,,grey,AS16NO12,23,f,1,0,Psychologie,0,0,0,0,0
Stimulus,canvas.Screen,2_25_0_1,2022-06-03T11:14:30.342Z,,,0,V,100.40400000000955,timeout,,,111900.90000000224,111899208,111798806,111800.40000000224,111815.48,111915884,,grey,AS16NO12,23,f,1,0,Psychologie,0,0,0,0,0
Reaction,canvas.Screen,2_25_0_2,2022-06-03T11:14:30.504Z,,,0,V,145.9160000007396,response,stim_detected,mousedown,112063.30000000075,112061.80000000075,111899208,111901.20000000298,111915884,112066076,,grey,AS16NO12,23,f,1,0,Psychologie,0,0,0,0,0
Trial,flow.Sequence,2_25_0,2022-06-03T11:14:30.504Z,,,0,V,2130.4530000007508,completion,,,112063.60000000149,112061.80000000075,109914.67,109919.40000000224,109931347,112066076,,grey,AS16NO12,23,f,1,0,Psychologie,0,0,0,0,0
Frame,canvas.Frame,2_25,2022-06-03T11:14:30.505Z,,,0,V,2132.353000002986,,,,112063.90000000224,112063.70000000298,109914.67,109918.60000000149,109931347,112066076,,grey,AS16NO12,23,f,1,0,Psychologie,0,0,0,0,0
Fixation,canvas.Screen,2_26_0_0,2022-06-03T11:14:32.160Z,,,1,A,1668.0350000000035,timeout,,,113719.10000000149,113717431,112049399,112065.10000000149,112066076,113734111,,black,AS16NO12,23,f,1,0,Psychologie,0,0,0,0,0
Stimulus,canvas.Screen,2_26_0_1,2022-06-03T11:14:32.258Z,,,1,A,99.6299999999901,timeout,,,113817.70000000298,113817065,113717431,113719.40000000224,113734111,113833741,,black,AS16NO12,23,f,1,0,Psychologie,0,0,0,0,0
Reaction,canvas.Screen,2_26_0_2,2022-06-03T11:14:32.443Z,,,1,A,166.9590000029857,response,stim_detected,mousedown,114002.10000000149,114000.70000000298,113817065,113817.90000000224,113833741,114017346,,black,AS16NO12,23,f,1,0,Psychologie,0,0,0,0,0
Trial,flow.Sequence,2_26_0,2022-06-03T11:14:32.443Z,,,1,A,1934.6240000029793,completion,,,114002.60000000149,114000.70000000298,112049399,112065,112066076,114017346,,black,AS16NO12,23,f,1,0,Psychologie,0,0,0,0,0
Frame,canvas.Frame,2_26,2022-06-03T11:14:32.444Z,,,1,A,1936.6240000029793,,,,114002.80000000075,114002.70000000298,112049399,112064.10000000149,112066076,114017346,,black,AS16NO12,23,f,1,0,Psychologie,0,0,0,0,0
Fixation,canvas.Screen,2_27_0_0,2022-06-03T11:14:34.294Z,,,1,A,1851.2739999999903,timeout,,,115853.20000000298,115851942,114000669,114004,114017346,115868.62,,black,AS16NO12,23,f,1,0,Psychologie,0,0,0,0,0
Stimulus,canvas.Screen,2_27_0_1,2022-06-03T11:14:34.394Z,,,1,A,99.60100000000966,timeout,,,115953.20000000298,115951547,115851942,115853.30000000075,115868.62,115968221,,black,AS16NO12,23,f,1,0,Psychologie,0,0,0,0,0
Reaction,canvas.Screen,2_27_0_2,2022-06-03T11:14:34.512Z,,,1,A,101.47900000297523,response,stim_detected,mousedown,116071.10000000149,116069.70000000298,115951547,115953.40000000224,115968221,116085.37,,black,AS16NO12,23,f,1,0,Psychologie,0,0,0,0,0
Trial,flow.Sequence,2_27_0,2022-06-03T11:14:34.512Z,,,1,A,2052.354000002975,completion,,,116071.5,116069.70000000298,114000669,114003.90000000224,114017346,116085.37,,black,AS16NO12,23,f,1,0,Psychologie,0,0,0,0,0
Frame,canvas.Frame,2_27,2022-06-03T11:14:34.513Z,,,1,A,2054.354000002975,,,,116071.80000000075,116071.70000000298,114000669,114003,114017346,116085.37,,black,AS16NO12,23,f,1,0,Psychologie,0,0,0,0,0
Fixation,canvas.Screen,2_28_0_0,2022-06-03T11:14:36.729Z,,,1,A,2218.3310000000056,timeout,,,118288.10000000149,118287022,116068693,116073,116085.37,118303701,,black,AS16NO12,23,f,1,0,Psychologie,0,0,0,0,0
Stimulus,canvas.Screen,2_28_0_1,2022-06-03T11:14:36.829Z,,,1,A,99.82499999999709,timeout,,,118388.30000000075,118386849,118287022,118288.40000000224,118303701,118403526,,black,AS16NO12,23,f,1,0,Psychologie,0,0,0,0,0
Reaction,canvas.Screen,2_28_0_2,2022-06-03T11:14:37.035Z,,,1,A,189.1740000029822,response,stim_detected,mousedown,118594.10000000149,118592.70000000298,118386849,118388.5,118403526,118603703,,black,AS16NO12,23,f,1,0,Psychologie,0,0,0,0,0
Trial,flow.Sequence,2_28_0,2022-06-03T11:14:37.035Z,,,1,A,2507.330000002985,completion,,,118594.5,118592.70000000298,116068693,116072.90000000224,116085.37,118603703,,black,AS16NO12,23,f,1,0,Psychologie,0,0,0,0,0
Frame,canvas.Frame,2_28,2022-06-03T11:14:37.036Z,,,1,A,2509.230000001495,,,,118594.80000000075,118594.60000000149,116068693,116072,116085.37,118603703,,black,AS16NO12,23,f,1,0,Psychologie,0,0,0,0,0
Fixation,canvas.Screen,2_29_0_0,2022-06-03T11:14:39.133Z,,,0,V,2101.5840000000026,timeout,,,120690.30000000075,120688608,118587026,118595.90000000224,118603703,120705287,,grey,AS16NO12,23,f,1,0,Psychologie,0,0,0,0,0
Stimulus,canvas.Screen,2_29_0_1,2022-06-03T11:14:39.232Z,,,0,V,99.64900000000489,timeout,,,120789.5,120788.26,120688608,120690.5,120705287,120804936,,grey,AS16NO12,23,f,1,0,Psychologie,0,0,0,0,0
Reaction,canvas.Screen,2_29_0_2,2022-06-03T11:14:39.454Z,,,0,V,205.6640000014886,response,stim_detected,mousedown,121012,121010.60000000149,120788.26,120789.80000000075,120804936,121038643,,grey,AS16NO12,23,f,1,0,Psychologie,0,0,0,0,0
Trial,flow.Sequence,2_29_0,2022-06-03T11:14:39.455Z,,,0,V,2406.897000001496,completion,,,121012.40000000224,121010.60000000149,118587026,118595.80000000075,118603703,121038643,,grey,AS16NO12,23,f,1,0,Psychologie,0,0,0,0,0
Frame,canvas.Frame,2_29,2022-06-03T11:14:39.455Z,,,0,V,2408.897000001496,,,,121012.70000000298,121012.60000000149,118587026,118595,118603703,121038643,,grey,AS16NO12,23,f,1,0,Psychologie,0,0,0,0,0
Fixation,canvas.Screen,2_30_0_0,2022-06-03T11:14:41.333Z,,,0,V,1867.4460000000108,timeout,,,122890.5,122889415,121005289,121013.80000000075,121038643,122906089,,grey,AS16NO12,23,f,1,0,Psychologie,0,0,0,0,0
Stimulus,canvas.Screen,2_30_0_1,2022-06-03T11:14:41.434Z,,,0,V,100.12599999998929,timeout,,,122991.30000000075,122989541,122889415,122890.70000000298,122906089,123006215,,grey,AS16NO12,23,f,1,0,Psychologie,0,0,0,0,0
Reaction,canvas.Screen,2_30_0_2,2022-06-03T11:14:41.677Z,,,0,V,226.2850000000035,response,stim_detected,mousedown,123234.40000000224,123232.5,122989541,122991.60000000149,123006215,123240048,,grey,AS16NO12,23,f,1,0,Psychologie,0,0,0,0,0
Trial,flow.Sequence,2_30_0,2022-06-03T11:14:41.677Z,,,0,V,2193.8570000000036,completion,,,123234.80000000075,123232.5,121005289,121013.70000000298,121038643,123240048,,grey,AS16NO12,23,f,1,0,Psychologie,0,0,0,0,0
Frame,canvas.Frame,2_30,2022-06-03T11:14:41.677Z,,,0,V,2196.257000002239,,,,123235.20000000298,123234.90000000224,121005289,121012.90000000224,121038643,123240048,,grey,AS16NO12,23,f,1,0,Psychologie,0,0,0,0,0
Fixation,canvas.Screen,2_31_0_0,2022-06-03T11:14:43.386Z,,,1,AV,1718.7260000000097,timeout,,,124943.40000000224,124942088,123223371,123236.30000000075,123240048,124958774,,grey,AS16NO12,23,f,1,0,Psychologie,0,0,0,0,0
Stimulus,canvas.Screen,2_31_0_1,2022-06-03T11:14:43.485Z,,,1,AV,98.8859999999986,timeout,,,125042.5,125040985,124942088,124943.70000000298,124958774,125057.66,,grey,AS16NO12,23,f,1,0,Psychologie,0,0,0,0,0
Reaction,canvas.Screen,2_31_0_2,2022-06-03T11:14:43.628Z,,,1,AV,127.04000000297674,response,stim_detected,mousedown,125186.10000000149,125184.70000000298,125040985,125042.70000000298,125057.66,125191346,,grey,AS16NO12,23,f,1,0,Psychologie,0,0,0,0,0
Trial,flow.Sequence,2_31_0,2022-06-03T11:14:43.629Z,,,1,AV,1944.652000002985,completion,,,125186.40000000224,125184.70000000298,123223371,123236.20000000298,123240048,125191346,,grey,AS16NO12,23,f,1,0,Psychologie,0,0,0,0,0
Frame,canvas.Frame,2_31,2022-06-03T11:14:43.629Z,,,1,AV,1946.552000001495,,,,125186.90000000224,125186.60000000149,123223371,123235.30000000075,123240048,125191346,,grey,AS16NO12,23,f,1,0,Psychologie,0,0,0,0,0
Fixation,canvas.Screen,2_32_0_0,2022-06-03T11:14:45.720Z,,,1,AV,2101.856999999989,timeout,,,127277.60000000149,127276522,125174669,125188.10000000149,125191346,127293203,,grey,AS16NO12,23,f,1,0,Psychologie,0,0,0,0,0
Stimulus,canvas.Screen,2_32_0_1,2022-06-03T11:14:45.820Z,,,1,AV,99.38800000000629,timeout,,,127377.60000000149,127375915,127276522,127278.10000000149,127293203,127392591,,grey,AS16NO12,23,f,1,0,Psychologie,0,0,0,0,0
Reaction,canvas.Screen,2_32_0_2,2022-06-03T11:14:45.931Z,,,1,AV,94.80900000223482,response,stim_detected,mousedown,127488.80000000075,127487.40000000224,127375915,127377.90000000224,127392591,127492838,,grey,AS16NO12,23,f,1,0,Psychologie,0,0,0,0,0
Trial,flow.Sequence,2_32_0,2022-06-03T11:14:45.932Z,,,1,AV,2296.05400000223,completion,,,127489.20000000298,127487.40000000224,125174669,125188.10000000149,125191346,127492838,,grey,AS16NO12,23,f,1,0,Psychologie,0,0,0,0,0
Frame,canvas.Frame,2_32,2022-06-03T11:14:45.932Z,,,1,AV,2298.05400000223,,,,127489.60000000149,127489.40000000224,125174669,125187.10000000149,125191346,127492838,,grey,AS16NO12,23,f,1,0,Psychologie,0,0,0,0,0
Fixation,canvas.Screen,2_33_0_0,2022-06-03T11:14:48.106Z,,,0,V,2185.9379999999946,timeout,,,129663.70000000298,129662.09,127476161,127490.70000000298,127492838,129678776,,grey,AS16NO12,23,f,1,0,Psychologie,0,0,0,0,0
Stimulus,canvas.Screen,2_33_0_1,2022-06-03T11:14:48.205Z,,,0,V,98.71300000000338,timeout,,,129762.70000000298,129760813,129662.09,129663.80000000075,129678776,129777489,,grey,AS16NO12,23,f,1,0,Psychologie,0,0,0,0,0
Reaction,canvas.Screen,2_33_0_2,2022-06-03T11:14:48.341Z,,,0,V,119.91100000223378,response,stim_detected,mousedown,129898.90000000224,129897.40000000224,129760813,129762.90000000224,129777489,129911119,,grey,AS16NO12,23,f,1,0,Psychologie,0,0,0,0,0
Trial,flow.Sequence,2_33_0,2022-06-03T11:14:48.342Z,,,0,V,2404.562000002232,completion,,,129899.30000000075,129897.40000000224,127476161,127490.60000000149,127492838,129911119,,grey,AS16NO12,23,f,1,0,Psychologie,0,0,0,0,0
Frame,canvas.Frame,2_33,2022-06-03T11:14:48.342Z,,,0,V,2406.4620000007417,,,,129899.5,129899.30000000075,127476161,127489.70000000298,127492838,129911119,,grey,AS16NO12,23,f,1,0,Psychologie,0,0,0,0,0
Fixation,canvas.Screen,2_34_0_0,2022-06-03T11:14:50.757Z,,,1,AV,2418.6419999999925,timeout,,,132314.80000000075,132313081,129894442,129900.60000000149,129911119,132329761,,grey,AS16NO12,23,f,1,0,Psychologie,0,0,0,0,0
Stimulus,canvas.Screen,2_34_0_1,2022-06-03T11:14:50.856Z,,,1,AV,99.10500000001048,timeout,,,132413.70000000298,132412193,132313081,132315.1000000015,132329761,132428866,,grey,AS16NO12,23,f,1,0,Psychologie,0,0,0,0,0
Reaction,canvas.Screen,2_34_0_2,2022-06-03T11:14:50.973Z,,,1,AV,100.43400000073598,response,stim_detected,mousedown,132530.80000000075,132529.30000000075,132412193,132414,132428866,132546176,,grey,AS16NO12,23,f,1,0,Psychologie,0,0,0,0,0
Trial,flow.Sequence,2_34_0,2022-06-03T11:14:50.974Z,,,1,AV,2618.181000000739,completion,,,132531.20000000298,132529.30000000075,129894442,129900.60000000149,129911119,132546176,,grey,AS16NO12,23,f,1,0,Psychologie,0,0,0,0,0
Frame,canvas.Frame,2_34,2022-06-03T11:14:50.974Z,,,1,AV,2620.181000000739,,,,132531.5,132531.30000000075,129894442,129899.80000000075,129911119,132546176,,grey,AS16NO12,23,f,1,0,Psychologie,0,0,0,0,0
Fixation,canvas.Screen,2_35_0_0,2022-06-03T11:14:53.357Z,,,0,V,2384.0479999999807,timeout,,,134915,134913552,132529499,132532.70000000298,132546176,134930224,,grey,AS16NO12,23,f,1,0,Psychologie,0,0,0,0,0
Stimulus,canvas.Screen,2_35_0_1,2022-06-03T11:14:53.459Z,,,0,V,100.52400000000489,timeout,,,135016.20000000298,135014073,134913552,134915.20000000298,134930224,135030748,,grey,AS16NO12,23,f,1,0,Psychologie,0,0,0,0,0
Reaction,canvas.Screen,2_35_0_2,2022-06-03T11:14:53.637Z,,,0,V,162.55200000075274,response,stim_detected,mousedown,135194.80000000075,135193.30000000075,135014073,135016.6000000015,135030748,135197875,,grey,AS16NO12,23,f,1,0,Psychologie,0,0,0,0,0
Trial,flow.Sequence,2_35_0,2022-06-03T11:14:53.638Z,,,0,V,2647.1240000007383,completion,,,135195.20000000298,135193.30000000075,132529499,132532.6000000015,132546176,135197875,,grey,AS16NO12,23,f,1,0,Psychologie,0,0,0,0,0
Frame,canvas.Frame,2_35,2022-06-03T11:14:53.638Z,,,0,V,2649.1240000007383,,,,135195.5,135195.30000000075,132529499,132531.80000000075,132546176,135197875,,grey,AS16NO12,23,f,1,0,Psychologie,0,0,0,0,0
Fixation,canvas.Screen,2_36_0_0,2022-06-03T11:14:55.327Z,,,1,AV,1702.390000000014,timeout,,,136884.90000000224,136883576,135181198,135196.6000000015,135197875,136900265,,grey,AS16NO12,23,f,1,0,Psychologie,0,0,0,0,0
Stimulus,canvas.Screen,2_36_0_1,2022-06-03T11:14:55.426Z,,,1,AV,98.9089999999851,timeout,,,136983.90000000224,136982495,136883576,136885.20000000298,136900265,136999174,,grey,AS16NO12,23,f,1,0,Psychologie,0,0,0,0,0
Reaction,canvas.Screen,2_36_0_2,2022-06-03T11:14:55.562Z,,,1,AV,119.02600000298116,response,stim_detected,mousedown,137119.70000000298,137118.20000000298,136982495,136984.20000000298,136999174,137132492,,grey,AS16NO12,23,f,1,0,Psychologie,0,0,0,0,0
Trial,flow.Sequence,2_36_0,2022-06-03T11:14:55.562Z,,,1,AV,1920.3250000029802,completion,,,137120.1000000015,137118.20000000298,135181198,135196.5,135197875,137132492,,grey,AS16NO12,23,f,1,0,Psychologie,0,0,0,0,0
Frame,canvas.Frame,2_36,2022-06-03T11:14:55.563Z,,,1,AV,1922.3250000029802,,,,137120.30000000075,137120.20000000298,135181198,135195.6000000015,135197875,137132492,,grey,AS16NO12,23,f,1,0,Psychologie,0,0,0,0,0
Fixation,canvas.Screen,2_37_0_0,2022-06-03T11:14:57.261Z,,,1,A,1701.9580000000133,timeout,,,138818.90000000224,138817765,137115816,137121.40000000224,137132492,138834.45,,black,AS16NO12,23,f,1,0,Psychologie,0,0,0,0,0
Stimulus,canvas.Screen,2_37_0_1,2022-06-03T11:14:57.361Z,,,1,A,99.0909999999858,timeout,,,138918.30000000075,138916865,138817765,138819.20000000298,138834.45,138933541,,black,AS16NO12,23,f,1,0,Psychologie,0,0,0,0,0
Reaction,canvas.Screen,2_37_0_2,2022-06-03T11:14:57.493Z,,,1,A,115.6590000029828,response,stim_detected,mousedown,139050.90000000224,139049.20000000298,138916865,138918.5,138933541,139067126,,black,AS16NO12,23,f,1,0,Psychologie,0,0,0,0,0
Trial,flow.Sequence,2_37_0,2022-06-03T11:14:57.494Z,,,1,A,1916.7080000029819,completion,,,139051.20000000298,139049.20000000298,137115816,137121.40000000224,137132492,139067126,,black,AS16NO12,23,f,1,0,Psychologie,0,0,0,0,0
Frame,canvas.Frame,2_37,2022-06-03T11:14:57.494Z,,,1,A,1918.9080000022368,,,,139051.5,139051.40000000224,137115816,137120.6000000015,137132492,139067126,,black,AS16NO12,23,f,1,0,Psychologie,0,0,0,0,0
Fixation,canvas.Screen,2_38_0_0,2022-06-03T11:14:59.094Z,,,1,A,1600.6750000000175,timeout,,,140652.1000000015,140651127,139050449,139052.6000000015,139067126,140667801,,black,AS16NO12,23,f,1,0,Psychologie,0,0,0,0,0
Stimulus,canvas.Screen,2_38_0_1,2022-06-03T11:14:59.194Z,,,1,A,100.02799999999115,timeout,,,140752.1000000015,140751156,140651127,140652.40000000224,140667801,140767829,,black,AS16NO12,23,f,1,0,Psychologie,0,0,0,0,0
Reaction,canvas.Screen,2_38_0_2,2022-06-03T11:14:59.333Z,,,1,A,121.37100000298233,response,stim_detected,mousedown,140890.80000000075,140889.20000000298,140751156,140752.30000000075,140767829,140901638,,black,AS16NO12,23,f,1,0,Psychologie,0,0,0,0,0
Trial,flow.Sequence,2_38_0,2022-06-03T11:14:59.333Z,,,1,A,1822.074000002991,completion,,,140891.1000000015,140889.20000000298,139050449,139052.6000000015,139067126,140901638,,black,AS16NO12,23,f,1,0,Psychologie,0,0,0,0,0
Frame,canvas.Frame,2_38,2022-06-03T11:14:59.334Z,,,1,A,1824.1740000007558,,,,140891.5,140891.30000000075,139050449,139051.70000000298,139067126,140901638,,black,AS16NO12,23,f,1,0,Psychologie,0,0,0,0,0
Fixation,canvas.Screen,2_39_0_0,2022-06-03T11:15:01.115Z,,,1,AV,1785.5909999999858,timeout,,,142672.20000000298,142670542,140884961,140892.70000000298,140901638,142687229,,grey,AS16NO12,23,f,1,0,Psychologie,0,0,0,0,0
Stimulus,canvas.Screen,2_39_0_1,2022-06-03T11:15:01.213Z,,,1,AV,98.83800000001793,timeout,,,142771.1000000015,142769391,142670542,142672.5,142687229,142786067,,grey,AS16NO12,23,f,1,0,Psychologie,0,0,0,0,0
Reaction,canvas.Screen,2_39_0_2,2022-06-03T11:15:01.321Z,,,1,AV,91.0330000014801,response,stim_detected,mousedown,142878.70000000298,142877.1000000015,142769391,142771.40000000224,142786067,142886297,,grey,AS16NO12,23,f,1,0,Psychologie,0,0,0,0,0
Trial,flow.Sequence,2_39_0,2022-06-03T11:15:01.321Z,,,1,AV,1975.4620000014838,completion,,,142879.20000000298,142877.1000000015,140884961,140892.6000000015,140901638,142886297,,grey,AS16NO12,23,f,1,0,Psychologie,0,0,0,0,0
Frame,canvas.Frame,2_39,2022-06-03T11:15:01.322Z,,,1,AV,1977.6620000007388,,,,142879.5,142879.30000000075,140884961,140891.70000000298,140901638,142886297,,grey,AS16NO12,23,f,1,0,Psychologie,0,0,0,0,0
Fixation,canvas.Screen,2_40_0_0,2022-06-03T11:15:03.332Z,,,1,AV,2018.1820000000007,timeout,,,144889.30000000075,144887.8,142869.62,142881,142886297,144904479,,grey,AS16NO12,23,f,1,0,Psychologie,0,0,0,0,0
Stimulus,canvas.Screen,2_40_0_1,2022-06-03T11:15:03.432Z,,,1,AV,99.62200000000303,timeout,,,144989.20000000298,144987426,144887.8,144889.70000000298,144904479,145004101,,grey,AS16NO12,23,f,1,0,Psychologie,0,0,0,0,0
Reaction,canvas.Screen,2_40_0_2,2022-06-03T11:15:03.555Z,,,1,AV,106.999000001495,response,stim_detected,mousedown,145112.5,145111.1000000015,144987426,144989.5,145004101,145121075,,grey,AS16NO12,23,f,1,0,Psychologie,0,0,0,0,0
Trial,flow.Sequence,2_40_0,2022-06-03T11:15:03.555Z,,,1,AV,2224.8030000014987,completion,,,145112.90000000224,145111.1000000015,142869.62,142880.80000000075,142886297,145121075,,grey,AS16NO12,23,f,1,0,Psychologie,0,0,0,0,0
Frame,canvas.Frame,2_40,2022-06-03T11:15:03.556Z,,,1,AV,2226.7030000000086,,,,145113.20000000298,145113,142869.62,142879.70000000298,142886297,145121075,,grey,AS16NO12,23,f,1,0,Psychologie,0,0,0,0,0
Fixation,canvas.Screen,2_41_0_0,2022-06-03T11:15:05.317Z,,,0,V,1768.5719999999856,timeout,,,146874.20000000298,146872963,145104398,145114.40000000224,145121075,146889647,,grey,AS16NO12,23,f,1,0,Psychologie,0,0,0,0,0
Stimulus,canvas.Screen,2_41_0_1,2022-06-03T11:15:05.416Z,,,0,V,99.16800000000512,timeout,,,146973.30000000075,146972139,146872963,146874.5,146889647,146988815,,grey,AS16NO12,23,f,1,0,Psychologie,0,0,0,0,0
Reaction,canvas.Screen,2_41_0_2,2022-06-03T11:15:05.572Z,,,0,V,139.18499999999767,response,stim_detected,mousedown,147129.5,147128,146972139,146973.5,146988815,147139032,,grey,AS16NO12,23,f,1,0,Psychologie,0,0,0,0,0
Trial,flow.Sequence,2_41_0,2022-06-03T11:15:05.572Z,,,0,V,2006.9249999999884,completion,,,147129.80000000075,147128,145104398,145114.20000000298,145121075,147139032,,grey,AS16NO12,23,f,1,0,Psychologie,0,0,0,0,0
Frame,canvas.Frame,2_41,2022-06-03T11:15:05.573Z,,,0,V,2008.9249999999884,,,,147130.20000000298,147130,145104398,145113.40000000224,145121075,147139032,,grey,AS16NO12,23,f,1,0,Psychologie,0,0,0,0,0
Fixation,canvas.Screen,2_42_0_0,2022-06-03T11:15:07.702Z,,,1,AV,2135.612999999983,timeout,,,149259.30000000075,149257961,147122356,147131.80000000075,147139032,149274645,,grey,AS16NO12,23,f,1,0,Psychologie,0,0,0,0,0
Stimulus,canvas.Screen,2_42_0_1,2022-06-03T11:15:07.801Z,,,1,AV,99.32200000001467,timeout,,,149358.20000000298,149357288,149257961,149259.5,149274645,149373967,,grey,AS16NO12,23,f,1,0,Psychologie,0,0,0,0,0
Reaction,canvas.Screen,2_42_0_2,2022-06-03T11:15:07.939Z,,,1,AV,120.93300000223098,response,stim_detected,mousedown,149496.5,149494.90000000224,149357288,149358.5,149373967,149507306,,grey,AS16NO12,23,f,1,0,Psychologie,0,0,0,0,0
Trial,flow.Sequence,2_42_0,2022-06-03T11:15:07.939Z,,,1,AV,2355.8680000022287,completion,,,149496.90000000224,149494.90000000224,147122356,147131.70000000298,147139032,149507306,,grey,AS16NO12,23,f,1,0,Psychologie,0,0,0,0,0
Frame,canvas.Frame,2_42,2022-06-03T11:15:07.940Z,,,1,AV,2358.0680000014836,,,,149497.30000000075,149497.1000000015,147122356,147130.6000000015,147139032,149507306,,grey,AS16NO12,23,f,1,0,Psychologie,0,0,0,0,0
Fixation,canvas.Screen,2_43_0_0,2022-06-03T11:15:09.652Z,,,1,A,1717.3979999999865,timeout,,,151209.40000000224,151208.03,149490629,149498.6000000015,149507306,151224704,,black,AS16NO12,23,f,1,0,Psychologie,0,0,0,0,0
Stimulus,canvas.Screen,2_43_0_1,2022-06-03T11:15:09.753Z,,,1,A,100.5230000000156,timeout,,,151310.30000000075,151308549,151208.03,151209.6000000015,151224704,151325227,,black,AS16NO12,23,f,1,0,Psychologie,0,0,0,0,0
Reaction,canvas.Screen,2_43_0_2,2022-06-03T11:15:09.945Z,,,1,A,175.57300000073155,response,stim_detected,mousedown,151502.30000000075,151500.80000000075,151308549,151310.6000000015,151325227,151508617,,black,AS16NO12,23,f,1,0,Psychologie,0,0,0,0,0
Trial,flow.Sequence,2_43_0,2022-06-03T11:15:09.945Z,,,1,A,1993.4940000007336,completion,,,151502.90000000224,151500.80000000075,149490629,149498.5,149507306,151508617,,black,AS16NO12,23,f,1,0,Psychologie,0,0,0,0,0
Frame,canvas.Frame,2_43,2022-06-03T11:15:09.945Z,,,1,A,1995.6939999999886,,,,151503.1000000015,151503,149490629,149497.40000000224,149507306,151508617,,black,AS16NO12,23,f,1,0,Psychologie,0,0,0,0,0
Fixation,canvas.Screen,2_44_0_0,2022-06-03T11:15:11.953Z,,,0,V,2017.5169999999925,timeout,,,153510.5,153509.46,151491.94,151504.40000000224,151508617,153526134,,grey,AS16NO12,23,f,1,0,Psychologie,0,0,0,0,0
Stimulus,canvas.Screen,2_44_0_1,2022-06-03T11:15:12.054Z,,,0,V,100.25800000000163,timeout,,,153611.40000000224,153609717,153509.46,153510.70000000298,153526134,153626392,,grey,AS16NO12,23,f,1,0,Psychologie,0,0,0,0,0
Reaction,canvas.Screen,2_44_0_2,2022-06-03T11:15:12.191Z,,,0,V,120.40800000075251,response,stim_detected,mousedown,153748.6000000015,153746.80000000075,153609717,153611.70000000298,153626392,153760061,,grey,AS16NO12,23,f,1,0,Psychologie,0,0,0,0,0
Trial,flow.Sequence,2_44_0,2022-06-03T11:15:12.191Z,,,0,V,2238.1830000007467,completion,,,153748.90000000224,153746.80000000075,151491.94,151504.30000000075,151508617,153760061,,grey,AS16NO12,23,f,1,0,Psychologie,0,0,0,0,0
Frame,canvas.Frame,2_44,2022-06-03T11:15:12.192Z,,,0,V,2240.3830000000016,,,,153749.20000000298,153749,151491.94,151503.30000000075,151508617,153760061,,grey,AS16NO12,23,f,1,0,Psychologie,0,0,0,0,0
Fixation,canvas.Screen,2_45_0_0,2022-06-03T11:15:14.106Z,,,1,A,1919.320000000007,timeout,,,155663.6000000015,155662692,153743384,153750.40000000224,153760061,155679381,,black,AS16NO12,23,f,1,0,Psychologie,0,0,0,0,0
Stimulus,canvas.Screen,2_45_0_1,2022-06-03T11:15:14.205Z,,,1,A,98.52499999999418,timeout,,,155762.40000000224,155761.23,155662692,155663.80000000075,155679381,155777906,,black,AS16NO12,23,f,1,0,Psychologie,0,0,0,0,0
Reaction,canvas.Screen,2_45_0_2,2022-06-03T11:15:14.385Z,,,1,A,162.89400000075693,response,stim_detected,mousedown,155942.30000000075,155940.80000000075,155761.23,155762.70000000298,155777906,155944807,,black,AS16NO12,23,f,1,0,Psychologie,0,0,0,0,0
Trial,flow.Sequence,2_45_0,2022-06-03T11:15:14.385Z,,,1,A,2180.739000000758,completion,,,155942.6000000015,155940.80000000075,153743384,153750.20000000298,153760061,155944807,,black,AS16NO12,23,f,1,0,Psychologie,0,0,0,0,0
Frame,canvas.Frame,2_45,2022-06-03T11:15:14.385Z,,,1,A,2182.739000000758,,,,155942.90000000224,155942.80000000075,153743384,153749.40000000224,153760061,155944807,,black,AS16NO12,23,f,1,0,Psychologie,0,0,0,0,0
Fixation,canvas.Screen,2_46_0_0,2022-06-03T11:15:15.941Z,,,1,AV,1568.8530000000028,timeout,,,157498.6000000015,157496971,155928131,155944.1000000015,155944807,157513.66,,grey,AS16NO12,23,f,1,0,Psychologie,0,0,0,0,0
Stimulus,canvas.Screen,2_46_0_1,2022-06-03T11:15:16.040Z,,,1,AV,98.89199999999255,timeout,,,157597.6000000015,157595876,157496971,157498.90000000224,157513.66,157612552,,grey,AS16NO12,23,f,1,0,Psychologie,0,0,0,0,0
Reaction,canvas.Screen,2_46_0_2,2022-06-03T11:15:16.168Z,,,1,AV,111.24800000074902,response,stim_detected,mousedown,157725.30000000075,157723.80000000075,157595876,157597.80000000075,157612552,157729375,,grey,AS16NO12,23,f,1,0,Psychologie,0,0,0,0,0
Trial,flow.Sequence,2_46_0,2022-06-03T11:15:16.168Z,,,1,AV,1778.9930000007444,completion,,,157725.6000000015,157723.80000000075,155928131,155944,155944807,157729375,,grey,AS16NO12,23,f,1,0,Psychologie,0,0,0,0,0
Frame,canvas.Frame,2_46,2022-06-03T11:15:16.168Z,,,1,AV,1780.8930000029795,,,,157726,157725.70000000298,155928131,155943.1000000015,155944807,157729375,,grey,AS16NO12,23,f,1,0,Psychologie,0,0,0,0,0
Fixation,canvas.Screen,2_47_0_0,2022-06-03T11:15:18.075Z,,,1,AV,1918.1169999999984,timeout,,,159632.70000000298,159630813,157712698,157727.20000000298,157729375,159647492,,grey,AS16NO12,23,f,1,0,Psychologie,0,0,0,0,0
Stimulus,canvas.Screen,2_47_0_1,2022-06-03T11:15:18.174Z,,,1,AV,99.14400000000023,timeout,,,159731.70000000298,159729965,159630813,159632.90000000224,159647492,159746636,,grey,AS16NO12,23,f,1,0,Psychologie,0,0,0,0,0
Reaction,canvas.Screen,2_47_0_2,2022-06-03T11:15:18.302Z,,,1,AV,111.06400000298163,response,stim_detected,mousedown,159859.30000000075,159857.70000000298,159729965,159731.90000000224,159746636,159880778,,grey,AS16NO12,23,f,1,0,Psychologie,0,0,0,0,0
Trial,flow.Sequence,2_47_0,2022-06-03T11:15:18.302Z,,,1,AV,2128.3250000029802,completion,,,159859.6000000015,159857.70000000298,157712698,157727,157729375,159880778,,grey,AS16NO12,23,f,1,0,Psychologie,0,0,0,0,0
Frame,canvas.Frame,2_47,2022-06-03T11:15:18.302Z,,,1,AV,2130.3250000029802,,,,159859.90000000224,159859.70000000298,157712698,157726.1000000015,157729375,159880778,,grey,AS16NO12,23,f,1,0,Psychologie,0,0,0,0,0
Fixation,canvas.Screen,2_48_0_0,2022-06-03T11:15:20.358Z,,,1,AV,2050.738000000012,timeout,,,161915.80000000075,161914843,159847424,159861.1000000015,159880778,161931516,,grey,AS16NO12,23,f,1,0,Psychologie,0,0,0,0,0
Stimulus,canvas.Screen,2_48_0_1,2022-06-03T11:15:20.459Z,,,1,AV,100.38699999998789,timeout,,,162016.80000000075,162015228,161914843,161916.20000000298,161931516,162031903,,grey,AS16NO12,23,f,1,0,Psychologie,0,0,0,0,0
Reaction,canvas.Screen,2_48_0_2,2022-06-03T11:15:20.579Z,,,1,AV,102.79700000298908,response,stim_detected,mousedown,162136.30000000075,162134.70000000298,162015228,162017.1000000015,162031903,162148919,,grey,AS16NO12,23,f,1,0,Psychologie,0,0,0,0,0
Trial,flow.Sequence,2_48_0,2022-06-03T11:15:20.579Z,,,1,AV,2253.922000002989,completion,,,162136.70000000298,162134.70000000298,159847424,159861,159880778,162148919,,grey,AS16NO12,23,f,1,0,Psychologie,0,0,0,0,0
Frame,canvas.Frame,2_48,2022-06-03T11:15:20.579Z,,,1,AV,2256.022000000754,,,,162137,162136.80000000075,159847424,159860.1000000015,159880778,162148919,,grey,AS16NO12,23,f,1,0,Psychologie,0,0,0,0,0
Fixation,canvas.Screen,2_49_0_0,2022-06-03T11:15:22.495Z,,,0,V,1919.0690000000177,timeout,,,164052.80000000075,164051301,162132242,162138.20000000298,162148919,164067988,,grey,AS16NO12,23,f,1,0,Psychologie,0,0,0,0,0
Stimulus,canvas.Screen,2_49_0_1,2022-06-03T11:15:22.593Z,,,0,V,98.33699999999953,timeout,,,164150.70000000298,164149653,164051301,164053,164067988,164166325,,grey,AS16NO12,23,f,1,0,Psychologie,0,0,0,0,0
Reaction,canvas.Screen,2_49_0_2,2022-06-03T11:15:22.736Z,,,0,V,126.17499999998836,response,stim_detected,mousedown,164293.20000000298,164292.5,164149653,164151,164166325,164300369,,grey,AS16NO12,23,f,1,0,Psychologie,0,0,0,0,0
Trial,flow.Sequence,2_49_0,2022-06-03T11:15:22.736Z,,,0,V,2143.5810000000056,completion,,,164293.30000000075,164292.5,162132242,162138.1000000015,162148919,164300369,,grey,AS16NO12,23,f,1,0,Psychologie,0,0,0,0,0
Frame,canvas.Frame,2_49,2022-06-03T11:15:22.736Z,,,0,V,2144.5810000000056,,,,164293.5,164293.5,162132242,162137.20000000298,162148919,164300369,,grey,AS16NO12,23,f,1,0,Psychologie,0,0,0,0,0
Fixation,canvas.Screen,2_50_0_0,2022-06-03T11:15:25.061Z,,,1,A,2334.328999999998,timeout,,,166619.1000000015,166618024,164283692,164294,164300369,166634698,,black,AS16NO12,23,f,1,0,Psychologie,0,0,0,0,0
Stimulus,canvas.Screen,2_50_0_1,2022-06-03T11:15:25.162Z,,,1,A,100.47899999999208,timeout,,,166719.90000000224,166718501,166618024,166619.30000000075,166634698,166735177,,black,AS16NO12,23,f,1,0,Psychologie,0,0,0,0,0
Reaction,canvas.Screen,2_50_0_2,2022-06-03T11:15:25.358Z,,,1,A,179.42300000149407,response,stim_detected,mousedown,166916,166914.6000000015,166718501,166720.20000000298,166735177,166918733,,black,AS16NO12,23,f,1,0,Psychologie,0,0,0,0,0
Trial,flow.Sequence,2_50_0,2022-06-03T11:15:25.359Z,,,1,A,2614.231000001484,completion,,,166916.5,166914.6000000015,164283692,164294,164300369,166918733,,black,AS16NO12,23,f,1,0,Psychologie,0,0,0,0,0
Frame,canvas.Frame,2_50,2022-06-03T11:15:25.359Z,,,1,A,2616.231000001484,,,,166916.80000000075,166916.6000000015,164283692,164293.6000000015,164300369,166918733,,black,AS16NO12,23,f,1,0,Psychologie,0,0,0,0,0
Fixation,canvas.Screen,2_51_0_0,2022-06-03T11:15:27.481Z,,,0,V,2135.3610000000044,timeout,,,169039,169037412,166902056,166918.1000000015,166918733,169054094,,grey,AS16NO12,23,f,1,0,Psychologie,0,0,0,0,0
Stimulus,canvas.Screen,2_51_0_1,2022-06-03T11:15:27.580Z,,,0,V,98.80799999998999,timeout,,,169138,169136229,169037412,169039.20000000298,169054094,169152902,,grey,AS16NO12,23,f,1,0,Psychologie,0,0,0,0,0
Reaction,canvas.Screen,2_51_0_2,2022-06-03T11:15:27.761Z,,,0,V,164.69800000148825,response,stim_detected,mousedown,169319,169317.6000000015,169136229,169138.30000000075,169152902,169320295,,grey,AS16NO12,23,f,1,0,Psychologie,0,0,0,0,0
Trial,flow.Sequence,2_51_0,2022-06-03T11:15:27.762Z,,,0,V,2398.8670000014827,completion,,,169319.40000000224,169317.6000000015,166902056,166918,166918733,169320295,,grey,AS16NO12,23,f,1,0,Psychologie,0,0,0,0,0
Frame,canvas.Frame,2_51,2022-06-03T11:15:27.762Z,,,0,V,2400.7669999999925,,,,169319.70000000298,169319.5,166902056,166917,166918733,169320295,,grey,AS16NO12,23,f,1,0,Psychologie,0,0,0,0,0
Fixation,canvas.Screen,2_52_0_0,2022-06-03T11:15:29.865Z,,,1,A,2118125,timeout,,,171423,171421742,169303618,169320.90000000224,169320295,171438.42,,black,AS16NO12,23,f,1,0,Psychologie,0,0,0,0,0
Stimulus,canvas.Screen,2_52_0_1,2022-06-03T11:15:29.965Z,,,1,A,100.0789999999979,timeout,,,171523.1000000015,171521821,171421742,171423.30000000075,171438.42,171538499,,black,AS16NO12,23,f,1,0,Psychologie,0,0,0,0,0
Reaction,canvas.Screen,2_52_0_2,2022-06-03T11:15:30.084Z,,,1,A,102.00099999998929,response,stim_detected,mousedown,171642,171640.5,171521821,171523.30000000075,171538499,171655169,,black,AS16NO12,23,f,1,0,Psychologie,0,0,0,0,0
Trial,flow.Sequence,2_52_0,2022-06-03T11:15:30.085Z,,,1,A,2320.204999999987,completion,,,171642.40000000224,171640.5,169303618,169320.80000000075,169320295,171655169,,black,AS16NO12,23,f,1,0,Psychologie,0,0,0,0,0
Frame,canvas.Frame,2_52,2022-06-03T11:15:30.085Z,,,1,A,2322.204999999987,,,,171642.70000000298,171642.5,169303618,169319.90000000224,169320295,171655169,,black,AS16NO12,23,f,1,0,Psychologie,0,0,0,0,0
Fixation,canvas.Screen,2_53_0_0,2022-06-03T11:15:32.517Z,,,0,V,2435.787000000011,timeout,,,174075.20000000298,174074273,171638492,171643.80000000075,171655169,174090956,,grey,AS16NO12,23,f,1,0,Psychologie,0,0,0,0,0
Stimulus,canvas.Screen,2_53_0_1,2022-06-03T11:15:32.617Z,,,0,V,98.44800000000396,timeout,,,174174.40000000224,174172732,174074273,174075.40000000224,174090956,174189404,,grey,AS16NO12,23,f,1,0,Psychologie,0,0,0,0,0
Reaction,canvas.Screen,2_53_0_2,2022-06-03T11:15:32.770Z,,,0,V,136.99600000222563,response,stim_detected,mousedown,174328,174326.40000000224,174172732,174174.80000000075,174189404,174340256,,grey,AS16NO12,23,f,1,0,Psychologie,0,0,0,0,0
Trial,flow.Sequence,2_53_0,2022-06-03T11:15:32.771Z,,,0,V,2671.2310000022408,completion,,,174328.40000000224,174326.40000000224,171638492,171643.70000000298,171655169,174340256,,grey,AS16NO12,23,f,1,0,Psychologie,0,0,0,0,0
Frame,canvas.Frame,2_53,2022-06-03T11:15:32.771Z,,,0,V,2673.4310000014957,,,,174328.80000000075,174328.6000000015,171638492,171642.80000000075,171655169,174340256,,grey,AS16NO12,23,f,1,0,Psychologie,0,0,0,0,0
Fixation,canvas.Screen,2_54_0_0,2022-06-03T11:15:34.418Z,,,0,V,1650.7000000000116,timeout,,,175975.40000000224,175974282,174323579,174330,174340256,175990956,,grey,AS16NO12,23,f,1,0,Psychologie,0,0,0,0,0
Stimulus,canvas.Screen,2_54_0_1,2022-06-03T11:15:34.519Z,,,0,V,100.21499999999651,timeout,,,176076.30000000075,176074496,175974282,175975.70000000298,175990956,176091171,,grey,AS16NO12,23,f,1,0,Psychologie,0,0,0,0,0
Reaction,canvas.Screen,2_54_0_2,2022-06-03T11:15:34.690Z,,,0,V,155.22900000223308,response,stim_detected,mousedown,176248,176246.40000000224,176074496,176076.6000000015,176091171,176258171,,grey,AS16NO12,23,f,1,0,Psychologie,0,0,0,0,0
Trial,flow.Sequence,2_54_0,2022-06-03T11:15:34.691Z,,,0,V,1906.1440000022412,completion,,,176248.40000000224,176246.40000000224,174323579,174330,174340256,176258171,,grey,AS16NO12,23,f,1,0,Psychologie,0,0,0,0,0
Frame,canvas.Frame,2_54,2022-06-03T11:15:34.691Z,,,0,V,1908.3440000014962,,,,176248.80000000075,176248.6000000015,174323579,174329,174340256,176258171,,grey,AS16NO12,23,f,1,0,Psychologie,0,0,0,0,0
Fixation,canvas.Screen,2_55_0_0,2022-06-03T11:15:36.821Z,,,0,V,2135.8889999999956,timeout,,,178378.30000000075,178377374,176241494,176249.90000000224,176258171,178394.06,,grey,AS16NO12,23,f,1,0,Psychologie,0,0,0,0,0
Stimulus,canvas.Screen,2_55_0_1,2022-06-03T11:15:36.920Z,,,0,V,98.78599999999278,timeout,,,178477.20000000298,178476.17,178377374,178378.70000000298,178394.06,178492846,,grey,AS16NO12,23,f,1,0,Psychologie,0,0,0,0,0
Reaction,canvas.Screen,2_55_0_2,2022-06-03T11:15:37.074Z,,,0,V,137.55400000224472,response,stim_detected,mousedown,178631.70000000298,178630.40000000224,178476.17,178477.5,178492846,178643085,,grey,AS16NO12,23,f,1,0,Psychologie,0,0,0,0,0
Trial,flow.Sequence,2_55_0,2022-06-03T11:15:37.074Z,,,0,V,2372.229000002233,completion,,,178632.20000000298,178630.40000000224,176241494,176249.80000000075,176258171,178643085,,grey,AS16NO12,23,f,1,0,Psychologie,0,0,0,0,0
Frame,canvas.Frame,2_55,2022-06-03T11:15:37.075Z,,,0,V,2374.029000002978,,,,178632.40000000224,178632.20000000298,176241494,176249,176258171,178643085,,grey,AS16NO12,23,f,1,0,Psychologie,0,0,0,0,0
Fixation,canvas.Screen,2_56_0_0,2022-06-03T11:15:38.622Z,,,1,AV,1551.176999999996,timeout,,,180179.5,180177583,178626408,178633.5,178643085,180194262,,grey,AS16NO12,23,f,1,0,Psychologie,0,0,0,0,0
Stimulus,canvas.Screen,2_56_0_1,2022-06-03T11:15:38.721Z,,,1,AV,99.83900000000722,timeout,,,180278.5,180277425,180177583,180179.70000000298,180194262,180294101,,grey,AS16NO12,23,f,1,0,Psychologie,0,0,0,0,0
Reaction,canvas.Screen,2_56_0_2,2022-06-03T11:15:38.861Z,,,1,AV,123.19900000074995,response,stim_detected,mousedown,180418.70000000298,180417.30000000075,180277425,180278.80000000075,180294101,180427593,,grey,AS16NO12,23,f,1,0,Psychologie,0,0,0,0,0
Trial,flow.Sequence,2_56_0,2022-06-03T11:15:38.861Z,,,1,AV,1774.2150000007532,completion,,,180419.1000000015,180417.30000000075,178626408,178633.40000000224,178643085,180427593,,grey,AS16NO12,23,f,1,0,Psychologie,0,0,0,0,0
Frame,canvas.Frame,2_56,2022-06-03T11:15:38.862Z,,,1,AV,1776.1150000029884,,,,180419.40000000224,180419.20000000298,178626408,178632.6000000015,178643085,180427593,,grey,AS16NO12,23,f,1,0,Psychologie,0,0,0,0,0
Fixation,canvas.Screen,2_57_0_0,2022-06-03T11:15:40.858Z,,,1,AV,2001.2430000000168,timeout,,,182413.40000000224,182412159,180410916,180420.70000000298,180427593,182428836,,grey,AS16NO12,23,f,1,0,Psychologie,0,0,0,0,0
Stimulus,canvas.Screen,2_57_0_1,2022-06-03T11:15:40.958Z,,,1,AV,99.87200000000303,timeout,,,182513.40000000224,182512033,182412159,182413.6000000015,182428836,182528708,,grey,AS16NO12,23,f,1,0,Psychologie,0,0,0,0,0
Reaction,canvas.Screen,2_57_0_2,2022-06-03T11:15:41.093Z,,,1,AV,118.49200000296696,response,stim_detected,mousedown,182648.80000000075,182647.20000000298,182512033,182513.6000000015,182528708,182662404,,grey,AS16NO12,23,f,1,0,Psychologie,0,0,0,0,0
Trial,flow.Sequence,2_57_0,2022-06-03T11:15:41.093Z,,,1,AV,2219.6070000029868,completion,,,182649.1000000015,182647.20000000298,180410916,180420.6000000015,180427593,182662404,,grey,AS16NO12,23,f,1,0,Psychologie,0,0,0,0,0
Frame,canvas.Frame,2_57,2022-06-03T11:15:41.094Z,,,1,AV,2221.6070000029868,,,,182649.40000000224,182649.20000000298,180410916,180419.6000000015,180427593,182662404,,grey,AS16NO12,23,f,1,0,Psychologie,0,0,0,0,0
Fixation,canvas.Screen,2_58_0_0,2022-06-03T11:15:43.309Z,,,1,AV,2217.4689999999828,timeout,,,184864.6000000015,184863.2,182645727,182650.6000000015,182662404,184879873,,grey,AS16NO12,23,f,1,0,Psychologie,0,0,0,0,0
Stimulus,canvas.Screen,2_58_0_1,2022-06-03T11:15:43.409Z,,,1,AV,100.1590000000142,timeout,,,184964.70000000298,184963359,184863.2,184865,184879873,184980032,,grey,AS16NO12,23,f,1,0,Psychologie,0,0,0,0,0
Reaction,canvas.Screen,2_58_0_2,2022-06-03T11:15:43.562Z,,,1,AV,136.0680000014836,response,stim_detected,mousedown,185117.5,185116.1000000015,184963359,184965,184980032,185130678,,grey,AS16NO12,23,f,1,0,Psychologie,0,0,0,0,0
Trial,flow.Sequence,2_58_0,2022-06-03T11:15:43.562Z,,,1,AV,2453.6960000014806,completion,,,185117.90000000224,185116.1000000015,182645727,182650.5,182662404,185130678,,grey,AS16NO12,23,f,1,0,Psychologie,0,0,0,0,0
Frame,canvas.Frame,2_58,2022-06-03T11:15:43.563Z,,,1,AV,2455.6960000014806,,,,185118.30000000075,185118.1000000015,182645727,182649.5,182662404,185130678,,grey,AS16NO12,23,f,1,0,Psychologie,0,0,0,0,0
Fixation,canvas.Screen,2_59_0_0,2022-06-03T11:15:45.378Z,,,1,AV,1818.3949999999895,timeout,,,186933.6000000015,186932391,185114001,185119.40000000224,185130678,186949073,,grey,AS16NO12,23,f,1,0,Psychologie,0,0,0,0,0
Stimulus,canvas.Screen,2_59_0_1,2022-06-03T11:15:45.477Z,,,1,AV,99.04300000000512,timeout,,,187032.70000000298,187031443,186932391,186933.90000000224,186949073,187048116,,grey,AS16NO12,23,f,1,0,Psychologie,0,0,0,0,0
Reaction,canvas.Screen,2_59_0_2,2022-06-03T11:15:45.601Z,,,1,AV,107.08400000297115,response,stim_detected,mousedown,187156.70000000298,187155.20000000298,187031443,187033,187048116,187165353,,grey,AS16NO12,23,f,1,0,Psychologie,0,0,0,0,0
Trial,flow.Sequence,2_59_0,2022-06-03T11:15:45.601Z,,,1,AV,2024.5220000029658,completion,,,187157.1000000015,187155.20000000298,185114001,185119.30000000075,185130678,187165353,,grey,AS16NO12,23,f,1,0,Psychologie,0,0,0,0,0
Frame,canvas.Frame,2_59,2022-06-03T11:15:45.602Z,,,1,AV,2026.5220000029658,,,,187157.40000000224,187157.20000000298,185114001,185118.40000000224,185130678,187165353,,grey,AS16NO12,23,f,1,0,Psychologie,0,0,0,0,0
Fixation,canvas.Screen,2_60_0_0,2022-06-03T11:15:47.995Z,,,1,A,2400.7239999999874,timeout,,,189551,189549405,187148676,187158.6000000015,187165353,189566077,,black,AS16NO12,23,f,1,0,Psychologie,0,0,0,0,0
Stimulus,canvas.Screen,2_60_0_1,2022-06-03T11:15:48.096Z,,,1,A,101.02800000002026,timeout,,,189651.70000000298,189650425,189549405,189551.20000000298,189566077,189667105,,black,AS16NO12,23,f,1,0,Psychologie,0,0,0,0,0
Reaction,canvas.Screen,2_60_0_2,2022-06-03T11:15:48.266Z,,,1,A,152.99500000147964,response,stim_detected,mousedown,189821.70000000298,189820.1000000015,189650425,189651.90000000224,189667105,189833.75,,black,AS16NO12,23,f,1,0,Psychologie,0,0,0,0,0
Trial,flow.Sequence,2_60_0,2022-06-03T11:15:48.267Z,,,1,A,2654.7470000014873,completion,,,189822.20000000298,189820.1000000015,187148676,187158.5,187165353,189833.75,,black,AS16NO12,23,f,1,0,Psychologie,0,0,0,0,0
Frame,canvas.Frame,2_60,2022-06-03T11:15:48.267Z,,,1,A,2656.8470000029774,,,,189822.40000000224,189822.20000000298,187148676,187157.6000000015,187165353,189833.75,,black,AS16NO12,23,f,1,0,Psychologie,0,0,0,0,0
Fixation,canvas.Screen,2_61_0_0,2022-06-03T11:15:50.582Z,,,1,A,2318.8619999999937,timeout,,,192138.1000000015,192135.93,189817073,189823.70000000298,189833.75,192152612,,black,AS16NO12,23,f,1,0,Psychologie,0,0,0,0,0
Stimulus,canvas.Screen,2_61_0_1,2022-06-03T11:15:50.680Z,,,1,A,98.71199999999953,timeout,,,192235.6000000015,192234651,192135.93,192138.30000000075,192152612,192251324,,black,AS16NO12,23,f,1,0,Psychologie,0,0,0,0,0
Reaction,canvas.Screen,2_61_0_2,2022-06-03T11:15:50.849Z,,,1,A,151.77600000149687,response,stim_detected,mousedown,192404.6000000015,192403.1000000015,192234651,192235.70000000298,192251324,192418764,,black,AS16NO12,23,f,1,0,Psychologie,0,0,0,0,0
Trial,flow.Sequence,2_61_0,2022-06-03T11:15:50.849Z,,,1,A,2569.35000000149,completion,,,192405,192403.1000000015,189817073,189823.6000000015,189833.75,192418764,,black,AS16NO12,23,f,1,0,Psychologie,0,0,0,0,0
Frame,canvas.Frame,2_61,2022-06-03T11:15:50.850Z,,,1,A,2571.35000000149,,,,192405.30000000075,192405.1000000015,189817073,189822.6000000015,189833.75,192418764,,black,AS16NO12,23,f,1,0,Psychologie,0,0,0,0,0
Fixation,canvas.Screen,2_62_0_0,2022-06-03T11:15:52.701Z,,,1,AV,1852.5439999999944,timeout,,,194256.1000000015,194254619,192402087,192406.40000000224,192418764,194271308,,grey,AS16NO12,23,f,1,0,Psychologie,0,0,0,0,0
Stimulus,canvas.Screen,2_62_0_1,2022-06-03T11:15:52.799Z,,,1,AV,98.75299999999697,timeout,,,194354.90000000224,194353384,194254619,194256.5,194271308,194370061,,grey,AS16NO12,23,f,1,0,Psychologie,0,0,0,0,0
Reaction,canvas.Screen,2_62_0_2,2022-06-03T11:15:52.933Z,,,1,AV,116.93900000001304,response,stim_detected,mousedown,194488.5,194487,194353384,194355.1000000015,194370061,194503452,,grey,AS16NO12,23,f,1,0,Psychologie,0,0,0,0,0
Trial,flow.Sequence,2_62_0,2022-06-03T11:15:52.933Z,,,1,AV,2068.2360000000044,completion,,,194488.90000000224,194487,192402087,192406.40000000224,192418764,194503452,,grey,AS16NO12,23,f,1,0,Psychologie,0,0,0,0,0
Frame,canvas.Frame,2_62,2022-06-03T11:15:52.934Z,,,1,AV,2070.4360000029847,,,,194489.40000000224,194489.20000000298,192402087,192405.40000000224,192418764,194503452,,grey,AS16NO12,23,f,1,0,Psychologie,0,0,0,0,0
Fixation,canvas.Screen,2_63_0_0,2022-06-03T11:15:55.236Z,,,1,A,2302.485000000015,timeout,,,196791.20000000298,196789253,194486776,194490.70000000298,194503452,196805937,,black,AS16NO12,23,f,1,0,Psychologie,0,0,0,0,0
Stimulus,canvas.Screen,2_63_0_1,2022-06-03T11:15:55.334Z,,,1,A,98.82699999999022,timeout,,,196890.1000000015,196888089,196789253,196791.40000000224,196805937,196904764,,black,AS16NO12,23,f,1,0,Psychologie,0,0,0,0,0
Reaction,canvas.Screen,2_63_0_2,2022-06-03T11:15:56.835Z,,,1,A,1501.2609999999986,timeout,,,198391,198389348,196888089,196890.40000000224,196904764,198406025,,black,AS16NO12,23,f,1,0,Psychologie,0,0,0,0,0
Trial,flow.Sequence,2_63_0,2022-06-03T11:15:56.836Z,,,1,A,3885.896000000008,completion,,,198391.30000000075,198389348,194486776,194490.6000000015,194503452,198406025,,black,AS16NO12,23,f,1,0,Psychologie,0,0,0,0,0
Frame,canvas.Frame,2_63,2022-06-03T11:15:56.836Z,,,1,A,3888.04800000001,,,,198391.70000000298,198391.5,194486776,194489.6000000015,194503452,198422702,,black,AS16NO12,23,f,1,0,Psychologie,0,0,0,0,0
Fixation,canvas.Screen,2_64_0_0,2022-06-03T11:15:59.086Z,,,0,V,2234.7690000000002,timeout,,,200642.1000000015,200640794,198406025,198392.6000000015,198422702,200657471,,grey,AS16NO12,23,f,1,0,Psychologie,0,0,0,0,0
Stimulus,canvas.Screen,2_64_0_1,2022-06-03T11:15:59.185Z,,,0,V,98.15400000000955,timeout,,,200740.1000000015,200738962,200640794,200642.30000000075,200657471,200755625,,grey,AS16NO12,23,f,1,0,Psychologie,0,0,0,0,0
Reaction,canvas.Screen,2_64_0_2,2022-06-03T11:15:59.496Z,,,0,V,294.17500000074506,response,stim_detected,mousedown,201051.5,201049.80000000075,200738962,200740.40000000224,200755625,201057819,,grey,AS16NO12,23,f,1,0,Psychologie,0,0,0,0,0
Trial,flow.Sequence,2_64_0,2022-06-03T11:15:59.496Z,,,0,V,2627.098000000755,completion,,,201051.90000000224,201049.80000000075,198406025,198392.5,198422702,201057819,,grey,AS16NO12,23,f,1,0,Psychologie,0,0,0,0,0
Frame,canvas.Frame,2_64,2022-06-03T11:15:59.497Z,,,0,V,2629.29800000001,,,,201052.1000000015,201052,198406025,198391.80000000075,198422702,201057819,,grey,AS16NO12,23,f,1,0,Psychologie,0,0,0,0,0
Fixation,canvas.Screen,2_65_0_0,2022-06-03T11:16:01.671Z,,,1,A,2183.918000000005,timeout,,,203226.20000000298,203225065,201041142,201053.30000000075,201057819,203241737,,black,AS16NO12,23,f,1,0,Psychologie,0,0,0,0,0
Stimulus,canvas.Screen,2_65_0_1,2022-06-03T11:16:01.772Z,,,1,A,100.96700000000419,timeout,,,203327.20000000298,203326026,203225065,203226.40000000224,203241737,203342704,,black,AS16NO12,23,f,1,0,Psychologie,0,0,0,0,0
Reaction,canvas.Screen,2_65_0_2,2022-06-03T11:16:01.968Z,,,1,A,179.99600000298233,response,stim_detected,mousedown,203524.1000000015,203522.70000000298,203326026,203327.40000000224,203342704,203542711,,black,AS16NO12,23,f,1,0,Psychologie,0,0,0,0,0
Trial,flow.Sequence,2_65_0,2022-06-03T11:16:01.969Z,,,1,A,2464.8810000029916,completion,,,203524.5,203522.70000000298,201041142,201053.20000000298,201057819,203542711,,black,AS16NO12,23,f,1,0,Psychologie,0,0,0,0,0
Frame,canvas.Frame,2_65,2022-06-03T11:16:01.969Z,,,1,A,2466.6810000000114,,,,203524.80000000075,203524.5,201041142,201052.40000000224,201057819,203542711,,black,AS16NO12,23,f,1,0,Psychologie,0,0,0,0,0
Fixation,canvas.Screen,2_66_0_0,2022-06-03T11:16:03.842Z,,,0,V,1869.703999999998,timeout,,,205397.20000000298,205395722,203526035,203525.80000000075,203542711,205412415,,grey,AS16NO12,23,f,1,0,Psychologie,0,0,0,0,0
Stimulus,canvas.Screen,2_66_0_1,2022-06-03T11:16:03.940Z,,,0,V,97.96899999998277,timeout,,,205495.5,205493.71,205395722,205397.5,205412415,205510384,,grey,AS16NO12,23,f,1,0,Psychologie,0,0,0,0,0
Reaction,canvas.Screen,2_66_0_2,2022-06-03T11:16:04.127Z,,,0,V,170.41600000075414,response,stim_detected,mousedown,205682.20000000298,205680.80000000075,205493.71,205495.80000000075,205510384,205694154,,grey,AS16NO12,23,f,1,0,Psychologie,0,0,0,0,0
Trial,flow.Sequence,2_66_0,2022-06-03T11:16:04.127Z,,,0,V,2138.089000000735,completion,,,205682.5,205680.80000000075,203526035,203525.6000000015,203542711,205694154,,grey,AS16NO12,23,f,1,0,Psychologie,0,0,0,0,0
Frame,canvas.Frame,2_66,2022-06-03T11:16:04.127Z,,,0,V,2139.88900000148,,,,205682.80000000075,205682.6000000015,203526035,203525,203542711,205694154,,grey,AS16NO12,23,f,1,0,Psychologie,0,0,0,0,0
Fixation,canvas.Screen,2_67_0_0,2022-06-03T11:16:05.675Z,,,0,V,1551.688999999984,timeout,,,207230.40000000224,207229159,205677477,205684,205694154,207245843,,grey,AS16NO12,23,f,1,0,Psychologie,0,0,0,0,0
Stimulus,canvas.Screen,2_67_0_1,2022-06-03T11:16:05.774Z,,,0,V,99.30300000001444,timeout,,,207329.40000000224,207328.47,207229159,207230.6000000015,207245843,207345146,,grey,AS16NO12,23,f,1,0,Psychologie,0,0,0,0,0
Reaction,canvas.Screen,2_67_0_2,2022-06-03T11:16:05.951Z,,,0,V,159.65400000073714,response,stim_detected,mousedown,207506.20000000298,207504.80000000075,207328.47,207329.6000000015,207345146,207528691,,grey,AS16NO12,23,f,1,0,Psychologie,0,0,0,0,0
Trial,flow.Sequence,2_67_0,2022-06-03T11:16:05.951Z,,,0,V,1810.6460000007355,completion,,,207506.6000000015,207504.80000000075,205677477,205683.90000000224,205694154,207528691,,grey,AS16NO12,23,f,1,0,Psychologie,0,0,0,0,0
Frame,canvas.Frame,2_67,2022-06-03T11:16:05.951Z,,,0,V,1812.6460000007355,,,,207506.90000000224,207506.80000000075,205677477,205683,205694154,207528691,,grey,AS16NO12,23,f,1,0,Psychologie,0,0,0,0,0
Fixation,canvas.Screen,2_68_0_0,2022-06-03T11:16:07.643Z,,,1,AV,1685.1000000000058,timeout,,,209198.40000000224,209197107,207495337,207508.1000000015,207528691,209213791,,grey,AS16NO12,23,f,1,0,Psychologie,0,0,0,0,0
Stimulus,canvas.Screen,2_68_0_1,2022-06-03T11:16:07.742Z,,,1,AV,98.95600000000559,timeout,,,209297.40000000224,209296074,209197107,209198.80000000075,209213791,209312747,,grey,AS16NO12,23,f,1,0,Psychologie,0,0,0,0,0
Reaction,canvas.Screen,2_68_0_2,2022-06-03T11:16:07.876Z,,,1,AV,117.85300000148709,response,stim_detected,mousedown,209432.1000000015,209430.6000000015,209296074,209297.6000000015,209312747,209446636,,grey,AS16NO12,23,f,1,0,Psychologie,0,0,0,0,0
Trial,flow.Sequence,2_68_0,2022-06-03T11:16:07.877Z,,,1,AV,1901.9090000014985,completion,,,209432.5,209430.6000000015,207495337,207507.90000000224,207528691,209446636,,grey,AS16NO12,23,f,1,0,Psychologie,0,0,0,0,0
Frame,canvas.Frame,2_68,2022-06-03T11:16:07.877Z,,,1,AV,1904.1090000007534,,,,209433,209432.80000000075,207495337,207507.1000000015,207528691,209446636,,grey,AS16NO12,23,f,1,0,Psychologie,0,0,0,0,0
Fixation,canvas.Screen,2_69_0_0,2022-06-03T11:16:09.776Z,,,0,V,1900.5540000000037,timeout,,,211331.5,211330518,209429959,209434.40000000224,209446636,211347.19,,grey,AS16NO12,23,f,1,0,Psychologie,0,0,0,0,0
Stimulus,canvas.Screen,2_69_0_1,2022-06-03T11:16:09.877Z,,,0,V,100.81399999998393,timeout,,,211432.5,211431326,211330518,211331.70000000298,211347.19,211448004,,grey,AS16NO12,23,f,1,0,Psychologie,0,0,0,0,0
Reaction,canvas.Screen,2_69_0_2,2022-06-03T11:16:10.051Z,,,0,V,156.59600000150385,response,stim_detected,mousedown,211606.20000000298,211604.6000000015,211431326,211432.70000000298,211448004,211614726,,grey,AS16NO12,23,f,1,0,Psychologie,0,0,0,0,0
Trial,flow.Sequence,2_69_0,2022-06-03T11:16:10.051Z,,,0,V,2157.9640000014915,completion,,,211606.6000000015,211604.6000000015,209429959,209434.30000000075,209446636,211614726,,grey,AS16NO12,23,f,1,0,Psychologie,0,0,0,0,0
Frame,canvas.Frame,2_69,2022-06-03T11:16:10.051Z,,,0,V,2160.0640000029816,,,,211606.90000000224,211606.70000000298,209429959,209433.20000000298,209446636,211614726,,grey,AS16NO12,23,f,1,0,Psychologie,0,0,0,0,0
Fixation,canvas.Screen,2_70_0_0,2022-06-03T11:16:12.479Z,,,1,A,2434.844000000012,timeout,,,214034.6000000015,214032893,211598049,211608,211614726,214049.57,,black,AS16NO12,23,f,1,0,Psychologie,0,0,0,0,0
Stimulus,canvas.Screen,2_70_0_1,2022-06-03T11:16:12.579Z,,,1,A,100.23099999999977,timeout,,,214134.6000000015,214133122,214032893,214034.80000000075,214049.57,214149801,,black,AS16NO12,23,f,1,0,Psychologie,0,0,0,0,0
Reaction,canvas.Screen,2_70_0_2,2022-06-03T11:16:12.787Z,,,1,A,191.69899999999325,response,stim_detected,mousedown,214343,214341.5,214133122,214134.80000000075,214149801,214349855,,black,AS16NO12,23,f,1,0,Psychologie,0,0,0,0,0
Trial,flow.Sequence,2_70_0,2022-06-03T11:16:12.788Z,,,1,A,2726.774000000005,completion,,,214343.40000000224,214341.5,211598049,211607.90000000224,211614726,214349855,,black,AS16NO12,23,f,1,0,Psychologie,0,0,0,0,0
Frame,canvas.Frame,2_70,2022-06-03T11:16:12.788Z,,,1,A,2728.774000000005,,,,214343.80000000075,214343.5,211598049,211607,211614726,214349855,,black,AS16NO12,23,f,1,0,Psychologie,0,0,0,0,0
Fixation,canvas.Screen,2_71_0_0,2022-06-03T11:16:15.231Z,,,0,V,2452.008999999991,timeout,,,216787.1000000015,216785184,214333178,214344.90000000224,214349855,216801864,,grey,AS16NO12,23,f,1,0,Psychologie,0,0,0,0,0
Stimulus,canvas.Screen,2_71_0_1,2022-06-03T11:16:15.330Z,,,0,V,99.14100000000326,timeout,,,216886,216884331,216785184,216787.30000000075,216801864,216901005,,grey,AS16NO12,23,f,1,0,Psychologie,0,0,0,0,0
Reaction,canvas.Screen,2_71_0_2,2022-06-03T11:16:15.507Z,,,0,V,160.49499999999534,response,stim_detected,mousedown,217063,217061.5,216884331,216886.20000000298,216901005,217068308,,grey,AS16NO12,23,f,1,0,Psychologie,0,0,0,0,0
Trial,flow.Sequence,2_71_0,2022-06-03T11:16:15.508Z,,,0,V,2711.6449999999895,completion,,,217063.30000000075,217061.5,214333178,214344.80000000075,214349855,217068308,,grey,AS16NO12,23,f,1,0,Psychologie,0,0,0,0,0
Frame,canvas.Frame,2_71,2022-06-03T11:16:15.508Z,,,0,V,2713.5450000022247,,,,217063.6000000015,217063.40000000224,214333178,214343.90000000224,214349855,217068308,,grey,AS16NO12,23,f,1,0,Psychologie,0,0,0,0,0
Fixation,canvas.Screen,2_72_0_0,2022-06-03T11:16:17.181Z,,,0,V,1683.6959999999963,timeout,,,218736.70000000298,218735333,217051631,217064.80000000075,217068308,218752004,,grey,AS16NO12,23,f,1,0,Psychologie,0,0,0,0,0
Stimulus,canvas.Screen,2_72_0_1,2022-06-03T11:16:17.282Z,,,0,V,100.82300000000396,timeout,,,218837.70000000298,218836149,218735333,218737,218752004,218852827,,grey,AS16NO12,23,f,1,0,Psychologie,0,0,0,0,0
Reaction,canvas.Screen,2_72_0_2,2022-06-03T11:16:17.490Z,,,0,V,191.57300000224495,response,stim_detected,mousedown,219045.90000000224,219044.40000000224,218836149,218837.90000000224,218852827,219052951,,grey,AS16NO12,23,f,1,0,Psychologie,0,0,0,0,0
Trial,flow.Sequence,2_72_0,2022-06-03T11:16:17.491Z,,,0,V,1976.0920000022452,completion,,,219046.30000000075,219044.40000000224,217051631,217064.70000000298,217068308,219052951,,grey,AS16NO12,23,f,1,0,Psychologie,0,0,0,0,0
Frame,canvas.Frame,2_72,2022-06-03T11:16:17.491Z,,,0,V,1978.19200000001,,,,219046.70000000298,219046.5,217051631,217063.80000000075,217068308,219052951,,grey,AS16NO12,23,f,1,0,Psychologie,0,0,0,0,0
Fixation,canvas.Screen,2_73_0_0,2022-06-03T11:16:19.166Z,,,1,AV,1684.1540000000095,timeout,,,220721.70000000298,220720.43,219036274,219047.80000000075,219052951,220737105,,grey,AS16NO12,23,f,1,0,Psychologie,0,0,0,0,0
Stimulus,canvas.Screen,2_73_0_1,2022-06-03T11:16:19.266Z,,,1,AV,100.2609999999986,timeout,,,220821.70000000298,220820.69,220720.43,220722,220737105,220837366,,grey,AS16NO12,23,f,1,0,Psychologie,0,0,0,0,0
Reaction,canvas.Screen,2_73_0_2,2022-06-03T11:16:19.421Z,,,1,AV,137.93400000073598,response,stim_detected,mousedown,220976.80000000075,220975.30000000075,220820.69,220822,220837366,220987.54,,grey,AS16NO12,23,f,1,0,Psychologie,0,0,0,0,0
Trial,flow.Sequence,2_73_0,2022-06-03T11:16:19.422Z,,,1,AV,1922.3490000007441,completion,,,220977.30000000075,220975.30000000075,219036274,219047.70000000298,219052951,220987.54,,grey,AS16NO12,23,f,1,0,Psychologie,0,0,0,0,0
Frame,canvas.Frame,2_73,2022-06-03T11:16:19.422Z,,,1,AV,1924.4490000022342,,,,220977.6000000015,220977.40000000224,219036274,219046.90000000224,219052951,220987.54,,grey,AS16NO12,23,f,1,0,Psychologie,0,0,0,0,0
Fixation,canvas.Screen,2_74_0_0,2022-06-03T11:16:21.450Z,,,0,V,2033.9259999999776,timeout,,,223005.80000000075,223004794,220970863,220978.80000000075,220987.54,223021466,,grey,AS16NO12,23,f,1,0,Psychologie,0,0,0,0,0
Stimulus,canvas.Screen,2_74_0_1,2022-06-03T11:16:21.551Z,,,0,V,100.51700000002165,timeout,,,223106.90000000224,223105308,223004794,223006.1000000015,223021466,223121983,,grey,AS16NO12,23,f,1,0,Psychologie,0,0,0,0,0
Reaction,canvas.Screen,2_74_0_2,2022-06-03T11:16:21.704Z,,,0,V,136.41700000222772,response,stim_detected,mousedown,223259.90000000224,223258.40000000224,223105308,223107.1000000015,223121983,223272.34,,grey,AS16NO12,23,f,1,0,Psychologie,0,0,0,0,0
Trial,flow.Sequence,2_74_0,2022-06-03T11:16:21.705Z,,,0,V,2270.860000002227,completion,,,223260.30000000075,223258.40000000224,220970863,220978.80000000075,220987.54,223272.34,,grey,AS16NO12,23,f,1,0,Psychologie,0,0,0,0,0
Frame,canvas.Frame,2_74,2022-06-03T11:16:21.705Z,,,0,V,2272.959999999992,,,,223260.6000000015,223260.5,220970863,220977.80000000075,220987.54,223272.34,,grey,AS16NO12,23,f,1,0,Psychologie,0,0,0,0,0
Fixation,canvas.Screen,2_75_0_0,2022-06-03T11:16:24.188Z,,,0,V,2486.893000000011,timeout,,,225743.90000000224,225742543,223255663,223261.70000000298,223272.34,225759233,,grey,AS16NO12,23,f,1,0,Psychologie,0,0,0,0,0
Stimulus,canvas.Screen,2_75_0_1,2022-06-03T11:16:24.286Z,,,0,V,97.72599999999511,timeout,,,225841.90000000224,225840285,225742543,225744.20000000298,225759233,225856959,,grey,AS16NO12,23,f,1,0,Psychologie,0,0,0,0,0
Reaction,canvas.Screen,2_75_0_2,2022-06-03T11:16:24.461Z,,,0,V,158.3410000007425,response,stim_detected,mousedown,226016.70000000298,226015.30000000075,225840285,225842.20000000298,225856959,226024.16,,grey,AS16NO12,23,f,1,0,Psychologie,0,0,0,0,0
Trial,flow.Sequence,2_75_0,2022-06-03T11:16:24.462Z,,,0,V,2742.9600000007486,completion,,,226017.20000000298,226015.30000000075,223255663,223261.6000000015,223272.34,226024.16,,grey,AS16NO12,23,f,1,0,Psychologie,0,0,0,0,0
Frame,canvas.Frame,2_75,2022-06-03T11:16:24.462Z,,,0,V,2744.9600000007486,,,,226017.40000000224,226017.30000000075,223255663,223260.80000000075,223272.34,226024.16,,grey,AS16NO12,23,f,1,0,Psychologie,0,0,0,0,0
Fixation,canvas.Screen,2_76_0_0,2022-06-03T11:16:25.972Z,,,1,A,1518.9070000000065,timeout,,,227528,227526377,226007483,226018.6000000015,226024.16,227543067,,black,AS16NO12,23,f,1,0,Psychologie,0,0,0,0,0
Stimulus,canvas.Screen,2_76_0_1,2022-06-03T11:16:26.071Z,,,1,A,98.43699999997625,timeout,,,227626.20000000298,227624831,227526377,227528.30000000075,227543067,227641504,,black,AS16NO12,23,f,1,0,Psychologie,0,0,0,0,0
Reaction,canvas.Screen,2_76_0_2,2022-06-03T11:16:26.450Z,,,1,A,362.7960000007588,response,stim_detected,mousedown,228005.80000000075,228004.30000000075,227624831,227626.40000000224,227641504,228008806,,black,AS16NO12,23,f,1,0,Psychologie,0,0,0,0,0
Trial,flow.Sequence,2_76_0,2022-06-03T11:16:26.451Z,,,1,A,1980.1400000007416,completion,,,228006.30000000075,228004.30000000075,226007483,226018.5,226024.16,228008806,,black,AS16NO12,23,f,1,0,Psychologie,0,0,0,0,0
Frame,canvas.Frame,2_76,2022-06-03T11:16:26.451Z,,,1,A,1982.1400000007416,,,,228006.5,228006.30000000075,226007483,226017.70000000298,226024.16,228008806,,black,AS16NO12,23,f,1,0,Psychologie,0,0,0,0,0
Fixation,canvas.Screen,2_77_0_0,2022-06-03T11:16:28.656Z,,,0,V,2217.265999999974,timeout,,,230211.5,230209.4,227992129,228007.6000000015,228008806,230226072,,grey,AS16NO12,23,f,1,0,Psychologie,0,0,0,0,0
Stimulus,canvas.Screen,2_77_0_1,2022-06-03T11:16:28.757Z,,,0,V,100.94800000000396,timeout,,,230312.20000000298,230310342,230209.4,230211.70000000298,230226072,230327.02,,grey,AS16NO12,23,f,1,0,Psychologie,0,0,0,0,0
Reaction,canvas.Screen,2_77_0_2,2022-06-03T11:16:28.941Z,,,0,V,167.28000000075554,response,stim_detected,mousedown,230496.30000000075,230494.30000000075,230310342,230312.40000000224,230327.02,230510439,,grey,AS16NO12,23,f,1,0,Psychologie,0,0,0,0,0
Trial,flow.Sequence,2_77_0,2022-06-03T11:16:28.941Z,,,0,V,2485.4940000007336,completion,,,230496.80000000075,230494.30000000075,227992129,228007.6000000015,228008806,230510439,,grey,AS16NO12,23,f,1,0,Psychologie,0,0,0,0,0
Frame,canvas.Frame,2_77,2022-06-03T11:16:28.942Z,,,0,V,2488.1939999999886,,,,230497.20000000298,230497,227992129,228006.70000000298,228008806,230510439,,grey,AS16NO12,23,f,1,0,Psychologie,0,0,0,0,0
Fixation,canvas.Screen,2_78_0_0,2022-06-03T11:16:31.158Z,,,1,A,2218.1959999999963,timeout,,,232713.20000000298,232711957,230493762,230498.30000000075,230510439,232728635,,black,AS16NO12,23,f,1,0,Psychologie,0,0,0,0,0
Stimulus,canvas.Screen,2_78_0_1,2022-06-03T11:16:31.258Z,,,1,A,99.83199999999488,timeout,,,232813.20000000298,232811791,232711957,232713.40000000224,232728635,232828467,,black,AS16NO12,23,f,1,0,Psychologie,0,0,0,0,0
Reaction,canvas.Screen,2_78_0_2,2022-06-03T11:16:31.451Z,,,1,A,176.73300000297604,response,stim_detected,mousedown,233006.5,233005.20000000298,232811791,232813.5,232828467,233012086,,black,AS16NO12,23,f,1,0,Psychologie,0,0,0,0,0
Trial,flow.Sequence,2_78_0,2022-06-03T11:16:31.451Z,,,1,A,2494.761000002967,completion,,,233006.90000000224,233005.20000000298,230493762,230498.20000000298,230510439,233012086,,black,AS16NO12,23,f,1,0,Psychologie,0,0,0,0,0
Frame,canvas.Frame,2_78,2022-06-03T11:16:31.452Z,,,1,A,2496.661000001477,,,,233007.30000000075,233007.1000000015,230493762,230497.40000000224,230510439,233012086,,black,AS16NO12,23,f,1,0,Psychologie,0,0,0,0,0
Fixation,canvas.Screen,2_79_0_0,2022-06-03T11:16:33.042Z,,,1,AV,1600.8949999999895,timeout,,,234597.40000000224,234596305,232995409,233008.40000000224,233012086,234612981,,grey,AS16NO12,23,f,1,0,Psychologie,0,0,0,0,0
Stimulus,canvas.Screen,2_79_0_1,2022-06-03T11:16:33.143Z,,,1,AV,100.23699999999371,timeout,,,234698.30000000075,234696541,234596305,234597.6000000015,234612981,234713218,,grey,AS16NO12,23,f,1,0,Psychologie,0,0,0,0,0
Reaction,canvas.Screen,2_79_0_2,2022-06-03T11:16:33.317Z,,,1,AV,157.88200000149664,response,stim_detected,mousedown,234872.5,234871.1000000015,234696541,234698.5,234713218,234880.01,,grey,AS16NO12,23,f,1,0,Psychologie,0,0,0,0,0
Trial,flow.Sequence,2_79_0,2022-06-03T11:16:33.317Z,,,1,AV,1859.0140000014799,completion,,,234872.80000000075,234871.1000000015,232995409,233008.20000000298,233012086,234880.01,,grey,AS16NO12,23,f,1,0,Psychologie,0,0,0,0,0
Frame,canvas.Frame,2_79,2022-06-03T11:16:33.318Z,,,1,AV,1860.9139999999898,,,,234873.20000000298,234873,232995409,233007.5,233012086,234880.01,,grey,AS16NO12,23,f,1,0,Psychologie,0,0,0,0,0
Fixation,canvas.Screen,2_80_0_0,2022-06-03T11:16:35.760Z,,,1,AV,2450.877999999997,timeout,,,237315.6000000015,237314215,234863333,234874.30000000075,234880.01,237330888,,grey,AS16NO12,23,f,1,0,Psychologie,0,0,0,0,0
Stimulus,canvas.Screen,2_80_0_1,2022-06-03T11:16:35.861Z,,,1,AV,100.59500000000116,timeout,,,237416.5,237414807,237314215,237315.90000000224,237330888,237431483,,grey,AS16NO12,23,f,1,0,Psychologie,0,0,0,0,0
Reaction,canvas.Screen,2_80_0_2,2022-06-03T11:16:36.018Z,,,1,AV,140.51699999999255,response,stim_detected,mousedown,237573.6000000015,237572,237414807,237416.80000000075,237431483,237581729,,grey,AS16NO12,23,f,1,0,Psychologie,0,0,0,0,0
Trial,flow.Sequence,2_80_0,2022-06-03T11:16:36.018Z,,,1,AV,2691.9899999999907,completion,,,237574,237572,234863333,234874.30000000075,234880.01,237581729,,grey,AS16NO12,23,f,1,0,Psychologie,0,0,0,0,0
Frame,canvas.Frame,2_80,2022-06-03T11:16:36.019Z,,,1,AV,2694.190000002971,,,,237574.40000000224,237574.20000000298,234863333,234873.30000000075,234880.01,237581729,,grey,AS16NO12,23,f,1,0,Psychologie,0,0,0,0,0
Fixation,canvas.Screen,2_81_0_0,2022-06-03T11:16:37.913Z,,,1,A,1902.6270000000077,timeout,,,239468.90000000224,239467667,237565052,237575.6000000015,237581729,239484356,,black,AS16NO12,23,f,1,0,Psychologie,0,0,0,0,0
Stimulus,canvas.Screen,2_81_0_1,2022-06-03T11:16:38.011Z,,,1,A,98.42800000001444,timeout,,,239566.90000000224,239566109,239467667,239469,239484356,239582784,,black,AS16NO12,23,f,1,0,Psychologie,0,0,0,0,0
Reaction,canvas.Screen,2_81_0_2,2022-06-03T11:16:38.212Z,,,1,A,183.3160000014759,response,stim_detected,mousedown,239767.5,239766.1000000015,239566109,239567,239582784,239783.13,,black,AS16NO12,23,f,1,0,Psychologie,0,0,0,0,0
Trial,flow.Sequence,2_81_0,2022-06-03T11:16:38.212Z,,,1,A,2184.371000001498,completion,,,239767.80000000075,239766.1000000015,237565052,237575.6000000015,237581729,239783.13,,black,AS16NO12,23,f,1,0,Psychologie,0,0,0,0,0
Frame,canvas.Frame,2_81,2022-06-03T11:16:38.213Z,,,1,A,2186.171000002243,,,,239768.1000000015,239767.90000000224,237565052,237574.6000000015,237581729,239783.13,,black,AS16NO12,23,f,1,0,Psychologie,0,0,0,0,0
Fixation,canvas.Screen,2_82_0_0,2022-06-03T11:16:39.763Z,,,0,V,1551.0869999999995,timeout,,,241318.5,241317539,239766454,239769.30000000075,239783.13,241334217,,grey,AS16NO12,23,f,1,0,Psychologie,0,0,0,0,0
Stimulus,canvas.Screen,2_82_0_1,2022-06-03T11:16:39.864Z,,,0,V,100.15499999999884,timeout,,,241419.40000000224,241417.69,241317539,241318.70000000298,241334217,241434372,,grey,AS16NO12,23,f,1,0,Psychologie,0,0,0,0,0
Reaction,canvas.Screen,2_82_0_2,2022-06-03T11:16:40.137Z,,,0,V,256.627999999997,response,stim_detected,mousedown,241692.40000000224,241691,241417.69,241419.70000000298,241434372,241717819,,grey,AS16NO12,23,f,1,0,Psychologie,0,0,0,0,0
Trial,flow.Sequence,2_82_0,2022-06-03T11:16:40.137Z,,,0,V,1907.8699999999953,completion,,,241692.80000000075,241691,239766454,239769.20000000298,239783.13,241717819,,grey,AS16NO12,23,f,1,0,Psychologie,0,0,0,0,0
Frame,canvas.Frame,2_82,2022-06-03T11:16:40.137Z,,,0,V,1909.7700000022305,,,,241693.1000000015,241692.90000000224,239766454,239768.30000000075,239783.13,241717819,,grey,AS16NO12,23,f,1,0,Psychologie,0,0,0,0,0
Fixation,canvas.Screen,2_83_0_0,2022-06-03T11:16:42.482Z,,,1,A,2334.146999999997,timeout,,,244036.80000000075,244035293,241684465,241694.20000000298,241717819,244051966,,black,AS16NO12,23,f,1,0,Psychologie,0,0,0,0,0
Stimulus,canvas.Screen,2_83_0_1,2022-06-03T11:16:42.582Z,,,1,A,100.65600000001723,timeout,,,244137.6000000015,244135946,244035293,244037.1000000015,244051966,244152622,,black,AS16NO12,23,f,1,0,Psychologie,0,0,0,0,0
Reaction,canvas.Screen,2_83_0_2,2022-06-03T11:16:42.736Z,,,1,A,137.37799999999697,response,stim_detected,mousedown,244291.5,244290,244135946,244137.90000000224,244152622,244302819,,black,AS16NO12,23,f,1,0,Psychologie,0,0,0,0,0
Trial,flow.Sequence,2_83_0,2022-06-03T11:16:42.737Z,,,1,A,2572.1810000000114,completion,,,244292,244290,241684465,241694.1000000015,241717819,244302819,,black,AS16NO12,23,f,1,0,Psychologie,0,0,0,0,0
Frame,canvas.Frame,2_83,2022-06-03T11:16:42.737Z,,,1,A,2574.2810000015015,,,,244292.30000000075,244292.1000000015,241684465,241693.30000000075,241717819,244302819,,black,AS16NO12,23,f,1,0,Psychologie,0,0,0,0,0
Fixation,canvas.Screen,2_84_0_0,2022-06-03T11:16:44.518Z,,,1,AV,1785.2580000000016,timeout,,,246072.6000000015,246071393,244286142,244293.40000000224,244302819,246088077,,grey,AS16NO12,23,f,1,0,Psychologie,0,0,0,0,0
Stimulus,canvas.Screen,2_84_0_1,2022-06-03T11:16:44.617Z,,,1,AV,99.10899999999674,timeout,,,246171.70000000298,246170511,246071393,246072.90000000224,246088077,246187186,,grey,AS16NO12,23,f,1,0,Psychologie,0,0,0,0,0
Reaction,canvas.Screen,2_84_0_2,2022-06-03T11:16:44.739Z,,,1,AV,105.6140000007581,response,stim_detected,mousedown,246294.5,246292.80000000075,246170511,246172,246187186,246304159,,grey,AS16NO12,23,f,1,0,Psychologie,0,0,0,0,0
Trial,flow.Sequence,2_84_0,2022-06-03T11:16:44.740Z,,,1,AV,1989.9810000007565,completion,,,246294.90000000224,246292.80000000075,244286142,244293.30000000075,244302819,246304159,,grey,AS16NO12,23,f,1,0,Psychologie,0,0,0,0,0
Frame,canvas.Frame,2_84,2022-06-03T11:16:44.740Z,,,1,AV,1992.2810000015015,,,,246295.30000000075,246295.1000000015,244286142,244292.5,244302819,246304159,,grey,AS16NO12,23,f,1,0,Psychologie,0,0,0,0,0
Fixation,canvas.Screen,2_85_0_0,2022-06-03T11:16:46.451Z,,,1,AV,1717.0569999999716,timeout,,,248005.70000000298,248004545,246287482,246296.40000000224,246304159,248021216,,grey,AS16NO12,23,f,1,0,Psychologie,0,0,0,0,0
Stimulus,canvas.Screen,2_85_0_1,2022-06-03T11:16:46.552Z,,,1,AV,100.79100000002654,timeout,,,248106.70000000298,248105.33,248004545,248006,248021216,248122007,,grey,AS16NO12,23,f,1,0,Psychologie,0,0,0,0,0
Reaction,canvas.Screen,2_85_0_2,2022-06-03T11:16:46.671Z,,,1,AV,102.69300000296789,response,stim_detected,mousedown,248226.30000000075,248224.70000000298,248105.33,248106.90000000224,248122007,248238724,,grey,AS16NO12,23,f,1,0,Psychologie,0,0,0,0,0
Trial,flow.Sequence,2_85_0,2022-06-03T11:16:46.672Z,,,1,AV,1920.541000002966,completion,,,248226.6000000015,248224.70000000298,246287482,246296.30000000075,246304159,248238724,,grey,AS16NO12,23,f,1,0,Psychologie,0,0,0,0,0
Frame,canvas.Frame,2_85,2022-06-03T11:16:46.672Z,,,1,AV,1922.541000002966,,,,248226.90000000224,248226.70000000298,246287482,246295.5,246304159,248238724,,grey,AS16NO12,23,f,1,0,Psychologie,0,0,0,0,0
Fixation,canvas.Screen,2_86_0_0,2022-06-03T11:16:48.287Z,,,1,A,1618.5380000000005,timeout,,,249841.80000000075,249840577,248222047,248228.1000000015,248238724,249857262,,black,AS16NO12,23,f,1,0,Psychologie,0,0,0,0,0
Stimulus,canvas.Screen,2_86_0_1,2022-06-03T11:16:48.386Z,,,1,A,99.22000000000116,timeout,,,249940.80000000075,249939806,249840577,249842,249857262,249956482,,black,AS16NO12,23,f,1,0,Psychologie,0,0,0,0,0
Reaction,canvas.Screen,2_86_0_2,2022-06-03T11:16:48.529Z,,,1,A,126.318000000756,response,stim_detected,mousedown,250084.40000000224,250082.80000000075,249939806,249941.1000000015,249956482,250089969,,black,AS16NO12,23,f,1,0,Psychologie,0,0,0,0,0
Trial,flow.Sequence,2_86_0,2022-06-03T11:16:48.530Z,,,1,A,1844.0760000007576,completion,,,250085,250082.80000000075,248222047,248228,248238724,250089969,,black,AS16NO12,23,f,1,0,Psychologie,0,0,0,0,0
Frame,canvas.Frame,2_86,2022-06-03T11:16:48.530Z,,,1,A,1846.3760000015027,,,,250085.30000000075,250085.1000000015,248222047,248227.1000000015,248238724,250089969,,black,AS16NO12,23,f,1,0,Psychologie,0,0,0,0,0
Fixation,canvas.Screen,2_87_0_0,2022-06-03T11:16:50.705Z,,,1,A,2184.9839999999967,timeout,,,252259.90000000224,252258274,250073292,250086.5,250089969,252274953,,black,AS16NO12,23,f,1,0,Psychologie,0,0,0,0,0
Stimulus,canvas.Screen,2_87_0_1,2022-06-03T11:16:50.805Z,,,1,A,99.94699999998556,timeout,,,252360,252358222,252258274,252260.1000000015,252274953,252374.9,,black,AS16NO12,23,f,1,0,Psychologie,0,0,0,0,0
Reaction,canvas.Screen,2_87_0_2,2022-06-03T11:16:50.997Z,,,1,A,175.80000000298605,response,stim_detected,mousedown,252552.1000000015,252550.70000000298,252358222,252360.20000000298,252374.9,252574923,,black,AS16NO12,23,f,1,0,Psychologie,0,0,0,0,0
Trial,flow.Sequence,2_87_0,2022-06-03T11:16:50.997Z,,,1,A,2460.7310000029684,completion,,,252552.40000000224,252550.70000000298,250073292,250086.30000000075,250089969,252574923,,black,AS16NO12,23,f,1,0,Psychologie,0,0,0,0,0
Frame,canvas.Frame,2_87,2022-06-03T11:16:50.998Z,,,1,A,2462.6310000014782,,,,252552.70000000298,252552.6000000015,250073292,250085.5,250089969,252574923,,black,AS16NO12,23,f,1,0,Psychologie,0,0,0,0,0
Fixation,canvas.Screen,2_88_0_0,2022-06-03T11:16:53.240Z,,,1,AV,2235.3189999999886,timeout,,,254795.1000000015,254793561,252541569,252553.90000000224,252574923,254810242,,grey,AS16NO12,23,f,1,0,Psychologie,0,0,0,0,0
Stimulus,canvas.Screen,2_88_0_1,2022-06-03T11:16:53.339Z,,,1,AV,99.46199999999953,timeout,,,254894.40000000224,254893028,254793561,254795.40000000224,254810242,254909704,,grey,AS16NO12,23,f,1,0,Psychologie,0,0,0,0,0
Reaction,canvas.Screen,2_88_0_2,2022-06-03T11:16:53.464Z,,,1,AV,107.99600000298233,response,stim_detected,mousedown,255019.20000000298,255017.70000000298,254893028,254894.70000000298,254909704,255026546,,grey,AS16NO12,23,f,1,0,Psychologie,0,0,0,0,0
Trial,flow.Sequence,2_88_0,2022-06-03T11:16:53.464Z,,,1,AV,2442.7770000029705,completion,,,255019.5,255017.70000000298,252541569,252553.80000000075,252574923,255026546,,grey,AS16NO12,23,f,1,0,Psychologie,0,0,0,0,0
Frame,canvas.Frame,2_88,2022-06-03T11:16:53.465Z,,,1,AV,2444.7770000029705,,,,255019.80000000075,255019.70000000298,252541569,252552.90000000224,252574923,255026546,,grey,AS16NO12,23,f,1,0,Psychologie,0,0,0,0,0
Fixation,canvas.Screen,2_89_0_0,2022-06-03T11:16:55.724Z,,,1,A,2268.0810000000056,timeout,,,257279,257277.95,255009869,255021,255026546,257294627,,black,AS16NO12,23,f,1,0,Psychologie,0,0,0,0,0
Stimulus,canvas.Screen,2_89_0_1,2022-06-03T11:16:55.824Z,,,1,A,100.10099999999511,timeout,,,257379.20000000298,257378051,257277.95,257279.20000000298,257294627,257394728,,black,AS16NO12,23,f,1,0,Psychologie,0,0,0,0,0
Reaction,canvas.Screen,2_89_0_2,2022-06-03T11:16:55.953Z,,,1,A,111.87200000148732,response,stim_detected,mousedown,257508.1000000015,257506.6000000015,257378051,257379.30000000075,257394728,257511508,,black,AS16NO12,23,f,1,0,Psychologie,0,0,0,0,0
Trial,flow.Sequence,2_89_0,2022-06-03T11:16:55.953Z,,,1,A,2480.054000001488,completion,,,257508.5,257506.6000000015,255009869,255021,255026546,257511508,,black,AS16NO12,23,f,1,0,Psychologie,0,0,0,0,0
Frame,canvas.Frame,2_89,2022-06-03T11:16:55.954Z,,,1,A,2481.953999999998,,,,257508.70000000298,257508.5,255009869,255020,255026546,257511508,,black,AS16NO12,23,f,1,0,Psychologie,0,0,0,0,0
Fixation,canvas.Screen,2_90_0_0,2022-06-03T11:16:57.576Z,,,1,AV,1634.5679999999993,timeout,,,259131.1000000015,259129397,257494831,257509.80000000075,257511508,259146076,,grey,AS16NO12,23,f,1,0,Psychologie,0,0,0,0,0
Stimulus,canvas.Screen,2_90_0_1,2022-06-03T11:16:57.675Z,,,1,AV,99.55499999999302,timeout,,,259230.20000000298,259228957,259129397,259131.40000000224,259146076,259245631,,grey,AS16NO12,23,f,1,0,Psychologie,0,0,0,0,0
Reaction,canvas.Screen,2_90_0_2,2022-06-03T11:16:57.827Z,,,1,AV,134.86900000000605,response,stim_detected,mousedown,259382,259380.5,259228957,259230.40000000224,259245631,259429429,,grey,AS16NO12,23,f,1,0,Psychologie,0,0,0,0,0
Trial,flow.Sequence,2_90_0,2022-06-03T11:16:57.827Z,,,1,AV,1868.9919999999984,completion,,,259382.30000000075,259380.5,257494831,257509.70000000298,257511508,259429429,,grey,AS16NO12,23,f,1,0,Psychologie,0,0,0,0,0
Frame,canvas.Frame,2_90,2022-06-03T11:16:57.828Z,,,1,AV,1870.9919999999984,,,,259382.6000000015,259382.5,257494831,257508.90000000224,257511508,259429429,,grey,AS16NO12,23,f,1,0,Psychologie,0,0,0,0,0
Loop,flow.Loop,2,2022-06-03T11:16:57.828Z,,,,,208274119,completion,,,259383,259382.5,51091712,51093.900000002235,51108381,259429429,,,AS16NO12,23,f,1,0,Psychologie,0,0,0,0,0
end,html.Page,3,2022-06-03T11:17:05.423Z,,,,,7548.371000000741,form submission,,,266978.30000000075,266977.80000000075,259379398,259383.30000000075,259429429,267049048,,,AS16NO12,23,f,1,0,Psychologie,0,0,0,0,0
root,flow.Sequence,,2022-06-03T11:17:05.424Z,,,,,265551.02900000074,completion,,,266979.5,266977.80000000075,1410095,1416.9000000022352,1426771,267049048,,,AS16NO12,23,f,1,0,Psychologie,0,0,0,0,0
