sender,sender_type,sender_id,timestamp,meta,,aud,condition,duration,ended_on,response,response_action,time_commit,time_end,time_render,time_run,time_show,time_switch,url,vis,id,age,sex,edu,occ,ela,pat,ill,prt,pcr,pab
Instructions,html.Page,0,2022-06-27T16:21:30.238Z,"{""labjs_version"":""20.2.4"",""labjs_build"":{""flavor"":""production"",""commit"":""f5b4a49f956347addd546a832a3327688c2c0fef""},""location"":""file:///C:/Users/Proband%207/Desktop/RTE/index.html"",""userAgent"":""Mozilla/5.0 (Windows NT 6.1; Win64; x64) AppleWebKit/537.36 (KHTML, like Gecko) Chrome/102.0.0.0 Safari/537.36"",""platform"":""Win32"",""language"":""de-DE"",""locale"":""de"",""timeZone"":""Europe/Berlin"",""timezoneOffset"":-120,""screen_width"":1366,""screen_height"":768,""scroll_width"":1366,""scroll_height"":609,""window_innerWidth"":1366,""window_innerHeight"":657,""devicePixelRatio"":1}",,,,262368.1650000002,form submission,,,264084.1000000001,264082.7000000002,1697854,1705.3000000002794,1714535,264104764,{},,ED06EC24,59,f,4,2,Immobilienkauffrau,0,0,0,0,0
Change Background,canvas.Screen,1,2022-06-27T16:21:33.247Z,,,,,3004.4009999999544,timeout,,,267093.8000000003,267092492,264071.42,264084.8999999999,264104764,267109165,,,ED06EC24,59,f,4,2,Immobilienkauffrau,0,0,0,0,0
Fixation,canvas.Screen,2_0_0_0,2022-06-27T16:21:35.051Z,,,1,AV,1804.0470000000205,timeout,,,268897.5,268896514,267092492,267095.3999999999,267109165,268913212,,grey,ED06EC24,59,f,4,2,Immobilienkauffrau,0,0,0,0,0
Stimulus,canvas.Screen,2_0_0_1,2022-06-27T16:21:35.148Z,,,1,AV,97.88400000002002,timeout,,,268994.8000000003,268994418,268896514,268897.8999999999,268913212,269011096,,grey,ED06EC24,59,f,4,2,Immobilienkauffrau,0,0,0,0,0
Reaction,canvas.Screen,2_0_0_2,2022-06-27T16:21:35.435Z,,,1,AV,268.5040000000736,response,stim_detected,mousedown,269281.8000000003,269279.6000000001,268994418,268994.8000000003,269011096,269294535,,grey,ED06EC24,59,f,4,2,Immobilienkauffrau,0,0,0,0,0
Trial,flow.Sequence,2_0_0,2022-06-27T16:21:35.436Z,,,1,AV,2170.435000000114,completion,,,269282.5,269279.6000000001,267092492,267095.3000000003,267109165,269294535,,grey,ED06EC24,59,f,4,2,Immobilienkauffrau,0,0,0,0,0
Frame,canvas.Frame,2_0,2022-06-27T16:21:35.437Z,,,1,AV,2173.6350000003004,,,,269283.1000000001,269282.8000000003,267092492,267094.3000000003,267109165,269294535,,grey,ED06EC24,59,f,4,2,Immobilienkauffrau,0,0,0,0,0
Fixation,canvas.Screen,2_1_0_0,2022-06-27T16:21:37.568Z,,,0,V,2135.50900000002,timeout,,,271414.6000000001,271413361,269277858,269284.7000000002,269294535,271430044,,grey,ED06EC24,59,f,4,2,Immobilienkauffrau,0,0,0,0,0
Stimulus,canvas.Screen,2_1_0_1,2022-06-27T16:21:37.668Z,,,0,V,99.01400000002468,timeout,,,271514.3000000003,271512383,271413361,271414.8999999999,271430044,271529058,,grey,ED06EC24,59,f,4,2,Immobilienkauffrau,0,0,0,0,0
Reaction,canvas.Screen,2_1_0_2,2022-06-27T16:21:37.793Z,,,0,V,108.44199999998091,response,stim_detected,mousedown,271639.7000000002,271637.5,271512383,271514.8999999999,271529058,271646149,,grey,ED06EC24,59,f,4,2,Immobilienkauffrau,0,0,0,0,0
Trial,flow.Sequence,2_1_0,2022-06-27T16:21:37.794Z,,,0,V,2342.9650000000256,completion,,,271640.6000000001,271637.5,269277858,269284.5,269294535,271646149,,grey,ED06EC24,59,f,4,2,Immobilienkauffrau,0,0,0,0,0
Frame,canvas.Frame,2_1,2022-06-27T16:21:37.795Z,,,0,V,2346.3649999999325,,,,271641.2000000002,271640.8999999999,269277858,269283.3999999999,269294535,271646149,,grey,ED06EC24,59,f,4,2,Immobilienkauffrau,0,0,0,0,0
Fixation,canvas.Screen,2_2_0_0,2022-06-27T16:21:39.603Z,,,0,V,1818.521000000008,timeout,,,273449.7000000002,273447987,271629471,271642.8000000003,271646149,273464.67,,grey,ED06EC24,59,f,4,2,Immobilienkauffrau,0,0,0,0,0
Stimulus,canvas.Screen,2_2_0_1,2022-06-27T16:21:39.702Z,,,0,V,99.49900000001071,timeout,,,273548.8000000003,273547491,273447987,273449.8999999999,273464.67,273564169,,grey,ED06EC24,59,f,4,2,Immobilienkauffrau,0,0,0,0,0
Reaction,canvas.Screen,2_2_0_2,2022-06-27T16:21:39.845Z,,,0,V,125.33100000000559,response,stim_detected,mousedown,273691.3999999999,273689.5,273547491,273549.2000000002,273564169,273697551,,grey,ED06EC24,59,f,4,2,Immobilienkauffrau,0,0,0,0,0
Trial,flow.Sequence,2_2_0,2022-06-27T16:21:39.845Z,,,0,V,2043.3510000000242,completion,,,273691.8999999999,273689.5,271629471,271642.6000000001,271646149,273697551,,grey,ED06EC24,59,f,4,2,Immobilienkauffrau,0,0,0,0,0
Frame,canvas.Frame,2_2,2022-06-27T16:21:39.846Z,,,0,V,2045.9510000001173,,,,273692.3999999999,273692.1000000001,271629471,271641.6000000001,271646149,273697551,,grey,ED06EC24,59,f,4,2,Immobilienkauffrau,0,0,0,0,0
Fixation,canvas.Screen,2_3_0_0,2022-06-27T16:21:41.820Z,,,0,V,1984.8340000000317,timeout,,,275666.7000000002,275665706,273680874,273693.7000000002,273697551,275682385,,grey,ED06EC24,59,f,4,2,Immobilienkauffrau,0,0,0,0,0
Stimulus,canvas.Screen,2_3_0_1,2022-06-27T16:21:41.920Z,,,0,V,99.31699999998091,timeout,,,275766.8000000003,275765029,275665706,275667,275682385,275781702,,grey,ED06EC24,59,f,4,2,Immobilienkauffrau,0,0,0,0,0
Reaction,canvas.Screen,2_3_0_2,2022-06-27T16:21:42.044Z,,,0,V,106.69799999991665,response,stim_detected,mousedown,275890.3000000003,275888.3999999999,275765029,275767.1000000001,275781702,275899042,,grey,ED06EC24,59,f,4,2,Immobilienkauffrau,0,0,0,0,0
Trial,flow.Sequence,2_3_0,2022-06-27T16:21:42.044Z,,,0,V,2190.848999999929,completion,,,275890.8999999999,275888.3999999999,273680874,273693.5,273697551,275899042,,grey,ED06EC24,59,f,4,2,Immobilienkauffrau,0,0,0,0,0
Frame,canvas.Frame,2_3,2022-06-27T16:21:42.045Z,,,0,V,2193.4490000000224,,,,275891.3000000003,275891,273680874,273692.6000000001,273697551,275899042,,grey,ED06EC24,59,f,4,2,Immobilienkauffrau,0,0,0,0,0
Fixation,canvas.Screen,2_4_0_0,2022-06-27T16:21:43.638Z,,,1,A,1600.7649999999558,timeout,,,277484.8000000003,277483132,275882364,275892.7000000002,275899042,277499807,,black,ED06EC24,59,f,4,2,Immobilienkauffrau,0,0,0,0,0
Stimulus,canvas.Screen,2_4_0_1,2022-06-27T16:21:43.738Z,,,1,A,100.43600000004517,timeout,,,277584.8999999999,277583563,277483132,277485.1000000001,277499807,277600243,,black,ED06EC24,59,f,4,2,Immobilienkauffrau,0,0,0,0,0
Reaction,canvas.Screen,2_4_0_2,2022-06-27T16:21:43.859Z,,,1,A,103.25699999998324,response,stim_detected,mousedown,277705.6000000001,277703.5,277583563,277585.3000000003,277600243,277716924,,black,ED06EC24,59,f,4,2,Immobilienkauffrau,0,0,0,0,0
Trial,flow.Sequence,2_4_0,2022-06-27T16:21:43.860Z,,,1,A,1804.4579999999842,completion,,,277706.1000000001,277703.5,275882364,275892.5,275899042,277716924,,black,ED06EC24,59,f,4,2,Immobilienkauffrau,0,0,0,0,0
Frame,canvas.Frame,2_4,2022-06-27T16:21:43.860Z,,,1,A,1807.2580000002636,,,,277706.6000000001,277706.3000000003,275882364,275891.5,275899042,277716924,,black,ED06EC24,59,f,4,2,Immobilienkauffrau,0,0,0,0,0
Fixation,canvas.Screen,2_5_0_0,2022-06-27T16:21:46.090Z,,,1,AV,2235.017999999982,timeout,,,279936.2000000002,279935263,277700247,277707.8999999999,277716924,279951942,,grey,ED06EC24,59,f,4,2,Immobilienkauffrau,0,0,0,0,0
Stimulus,canvas.Screen,2_5_0_1,2022-06-27T16:21:46.190Z,,,1,AV,99.16899999999441,timeout,,,280036.1000000001,280034439,279935263,279936.5,279951942,280051111,,grey,ED06EC24,59,f,4,2,Immobilienkauffrau,0,0,0,0,0
Reaction,canvas.Screen,2_5_0_2,2022-06-27T16:21:46.303Z,,,1,AV,96.38900000002468,response,stim_detected,mousedown,280149.6000000001,280147.5,280034439,280036.3999999999,280051111,280168545,,grey,ED06EC24,59,f,4,2,Immobilienkauffrau,0,0,0,0,0
Trial,flow.Sequence,2_5_0,2022-06-27T16:21:46.304Z,,,1,AV,2430.576000000001,completion,,,280150,280147.5,277700247,277707.8000000003,277716924,280168545,,grey,ED06EC24,59,f,4,2,Immobilienkauffrau,0,0,0,0,0
Frame,canvas.Frame,2_5,2022-06-27T16:21:46.304Z,,,1,AV,2433.276000000187,,,,280150.5,280150.2000000002,277700247,277706.8000000003,277716924,280168545,,grey,ED06EC24,59,f,4,2,Immobilienkauffrau,0,0,0,0,0
Fixation,canvas.Screen,2_6_0_0,2022-06-27T16:21:47.842Z,,,1,A,1534.3890000000247,timeout,,,281688.1000000001,281686256,280135191,280151.8999999999,280168545,281702934,,black,ED06EC24,59,f,4,2,Immobilienkauffrau,0,0,0,0,0
Stimulus,canvas.Screen,2_6_0_1,2022-06-27T16:21:47.941Z,,,1,A,100.04899999999907,timeout,,,281787.1000000001,281785.88,281686256,281688.8000000003,281702934,281802983,,black,ED06EC24,59,f,4,2,Immobilienkauffrau,0,0,0,0,0
Reaction,canvas.Screen,2_6_0_2,2022-06-27T16:21:48.076Z,,,1,A,117.51699999999255,response,stim_detected,mousedown,281922.3999999999,281920.5,281785.88,281787.3999999999,281802983,281936407,,black,ED06EC24,59,f,4,2,Immobilienkauffrau,0,0,0,0,0
Trial,flow.Sequence,2_6_0,2022-06-27T16:21:48.076Z,,,1,A,1751.9550000000163,completion,,,281922.8999999999,281920.5,280135191,280151.8000000003,280168545,281936407,,black,ED06EC24,59,f,4,2,Immobilienkauffrau,0,0,0,0,0
Frame,canvas.Frame,2_6,2022-06-27T16:21:48.077Z,,,1,A,1754.5550000001094,,,,281923.3999999999,281923.1000000001,280135191,280150.7000000002,280168545,281936407,,black,ED06EC24,59,f,4,2,Immobilienkauffrau,0,0,0,0,0
Fixation,canvas.Screen,2_7_0_0,2022-06-27T16:21:50.461Z,,,1,A,2386.043000000005,timeout,,,284307.3000000003,284305765,281919729,281924.8999999999,281936407,284322.45,,black,ED06EC24,59,f,4,2,Immobilienkauffrau,0,0,0,0,0
Stimulus,canvas.Screen,2_7_0_1,2022-06-27T16:21:50.560Z,,,1,A,99.01999999996042,timeout,,,284406.3999999999,284404792,284305765,284307.7000000002,284322.45,284421.47,,black,ED06EC24,59,f,4,2,Immobilienkauffrau,0,0,0,0,0
Reaction,canvas.Screen,2_7_0_2,2022-06-27T16:21:50.685Z,,,1,A,108.03000000002794,response,stim_detected,mousedown,284531.3000000003,284529.5,284404792,284406.7000000002,284421.47,284538155,,black,ED06EC24,59,f,4,2,Immobilienkauffrau,0,0,0,0,0
Trial,flow.Sequence,2_7_0,2022-06-27T16:21:50.685Z,,,1,A,2593.0929999999935,completion,,,284531.8000000003,284529.5,281919729,281924.7000000002,281936407,284538155,,black,ED06EC24,59,f,4,2,Immobilienkauffrau,0,0,0,0,0
Frame,canvas.Frame,2_7,2022-06-27T16:21:50.686Z,,,1,A,2595.5929999999935,,,,284532.3000000003,284532,281919729,281923.7000000002,281936407,284538155,,black,ED06EC24,59,f,4,2,Immobilienkauffrau,0,0,0,0,0
Fixation,canvas.Screen,2_8_0_0,2022-06-27T16:21:52.394Z,,,0,V,1717.8429999999935,timeout,,,286240.3000000003,286239.32,284521478,284533.5,284538155,286255998,,grey,ED06EC24,59,f,4,2,Immobilienkauffrau,0,0,0,0,0
Stimulus,canvas.Screen,2_8_0_1,2022-06-27T16:21:52.495Z,,,0,V,100.17399999999907,timeout,,,286341.3000000003,286339493,286239.32,286240.6000000001,286255998,286356172,,grey,ED06EC24,59,f,4,2,Immobilienkauffrau,0,0,0,0,0
Reaction,canvas.Screen,2_8_0_2,2022-06-27T16:21:52.891Z,,,0,V,379.2279999998864,response,stim_detected,mousedown,286737.3999999999,286735.3999999999,286339493,286341.7000000002,286356172,286739677,,grey,ED06EC24,59,f,4,2,Immobilienkauffrau,0,0,0,0,0
Trial,flow.Sequence,2_8_0,2022-06-27T16:21:52.891Z,,,0,V,2197.244999999879,completion,,,286737.8999999999,286735.3999999999,284521478,284533.3999999999,284538155,286739677,,grey,ED06EC24,59,f,4,2,Immobilienkauffrau,0,0,0,0,0
Frame,canvas.Frame,2_8,2022-06-27T16:21:52.892Z,,,0,V,2199.844999999972,,,,286738.3000000003,286738,284521478,284532.5,284538155,286739677,,grey,ED06EC24,59,f,4,2,Immobilienkauffrau,0,0,0,0,0
Fixation,canvas.Screen,2_9_0_0,2022-06-27T16:21:54.395Z,,,1,AV,1517.48199999996,timeout,,,288241.3999999999,288240483,286722999,286739.8000000003,286739677,288257159,,grey,ED06EC24,59,f,4,2,Immobilienkauffrau,0,0,0,0,0
Stimulus,canvas.Screen,2_9_0_1,2022-06-27T16:21:54.496Z,,,1,AV,100.28100000001723,timeout,,,288342.3999999999,288340762,288240483,288241.6000000001,288257159,288357.44,,grey,ED06EC24,59,f,4,2,Immobilienkauffrau,0,0,0,0,0
Reaction,canvas.Screen,2_9_0_2,2022-06-27T16:21:54.616Z,,,1,AV,103.05999999999767,response,stim_detected,mousedown,288462.2000000002,288460.5,288340762,288342.7000000002,288357.44,288474158,,grey,ED06EC24,59,f,4,2,Immobilienkauffrau,0,0,0,0,0
Trial,flow.Sequence,2_9_0,2022-06-27T16:21:54.616Z,,,1,AV,1720.8229999999749,completion,,,288462.8000000003,288460.5,286722999,286739.7000000002,286739677,288474158,,grey,ED06EC24,59,f,4,2,Immobilienkauffrau,0,0,0,0,0
Frame,canvas.Frame,2_9,2022-06-27T16:21:54.617Z,,,1,AV,1723.2229999998817,,,,288463.1000000001,288462.8999999999,286722999,286738.5,286739677,288474158,,grey,ED06EC24,59,f,4,2,Immobilienkauffrau,0,0,0,0,0
Fixation,canvas.Screen,2_10_0_0,2022-06-27T16:21:56.646Z,,,0,V,2034.0659999999916,timeout,,,290492.6000000001,290491551,288457481,288464.3999999999,288474158,290508224,,grey,ED06EC24,59,f,4,2,Immobilienkauffrau,0,0,0,0,0
Stimulus,canvas.Screen,2_10_0_1,2022-06-27T16:21:56.747Z,,,0,V,100.79000000003725,timeout,,,290593.3999999999,290592332,290491551,290493,290508224,290609014,,grey,ED06EC24,59,f,4,2,Immobilienkauffrau,0,0,0,0,0
Reaction,canvas.Screen,2_10_0_2,2022-06-27T16:21:56.894Z,,,0,V,129.3859999998822,response,stim_detected,mousedown,290740.8000000003,290738.3999999999,290592332,290593.8000000003,290609014,290759036,,grey,ED06EC24,59,f,4,2,Immobilienkauffrau,0,0,0,0,0
Trial,flow.Sequence,2_10_0,2022-06-27T16:21:56.895Z,,,0,V,2264.241999999911,completion,,,290741.3000000003,290738.3999999999,288457481,288464.2000000002,288474158,290759036,,grey,ED06EC24,59,f,4,2,Immobilienkauffrau,0,0,0,0,0
Frame,canvas.Frame,2_10,2022-06-27T16:21:56.895Z,,,0,V,2267.342000000004,,,,290741.7000000002,290741.5,288457481,288463.3000000003,288474158,290759036,,grey,ED06EC24,59,f,4,2,Immobilienkauffrau,0,0,0,0,0
Fixation,canvas.Screen,2_11_0_0,2022-06-27T16:21:59.049Z,,,1,A,2151.478999999992,timeout,,,292895.6000000001,292893837,290742359,290743.2000000002,290759036,292910515,,black,ED06EC24,59,f,4,2,Immobilienkauffrau,0,0,0,0,0
Stimulus,canvas.Screen,2_11_0_1,2022-06-27T16:21:59.148Z,,,1,A,100.03800000000047,timeout,,,292994.7000000002,292993598,292893837,292895.8999999999,292910515,293010553,,black,ED06EC24,59,f,4,2,Immobilienkauffrau,0,0,0,0,0
Reaction,canvas.Screen,2_11_0_2,2022-06-27T16:21:59.322Z,,,1,A,155.84699999989243,response,stim_detected,mousedown,293168.2000000002,293166.3999999999,292993598,292995.1000000001,293010553,293194,,black,ED06EC24,59,f,4,2,Immobilienkauffrau,0,0,0,0,0
Trial,flow.Sequence,2_11_0,2022-06-27T16:21:59.322Z,,,1,A,2407.363999999885,completion,,,293168.7000000002,293166.3999999999,290742359,290743.1000000001,290759036,293194,,black,ED06EC24,59,f,4,2,Immobilienkauffrau,0,0,0,0,0
Frame,canvas.Frame,2_11,2022-06-27T16:21:59.323Z,,,1,A,2409.7640000002575,,,,293169,293168.8000000003,290742359,290742.1000000001,290759036,293194,,black,ED06EC24,59,f,4,2,Immobilienkauffrau,0,0,0,0,0
Fixation,canvas.Screen,2_12_0_0,2022-06-27T16:22:00.949Z,,,1,A,1617.219999999972,timeout,,,294795.7000000002,294794547,293177323,293170.3000000003,293194,294811.22,,black,ED06EC24,59,f,4,2,Immobilienkauffrau,0,0,0,0,0
Stimulus,canvas.Screen,2_12_0_1,2022-06-27T16:22:01.050Z,,,1,A,100.67000000004191,timeout,,,294896.7000000002,294895209,294794547,294796,294811.22,294911.89,,black,ED06EC24,59,f,4,2,Immobilienkauffrau,0,0,0,0,0
Reaction,canvas.Screen,2_12_0_2,2022-06-27T16:22:01.218Z,,,1,A,150.5099999998929,response,stim_detected,mousedown,295064.2000000002,295062.3999999999,294895209,294897.1000000001,294911.89,295078599,,black,ED06EC24,59,f,4,2,Immobilienkauffrau,0,0,0,0,0
Trial,flow.Sequence,2_12_0,2022-06-27T16:22:01.218Z,,,1,A,1868.3999999999069,completion,,,295064.6000000001,295062.3999999999,293177323,293170.2000000002,293194,295078599,,black,ED06EC24,59,f,4,2,Immobilienkauffrau,0,0,0,0,0
Frame,canvas.Frame,2_12,2022-06-27T16:22:01.219Z,,,1,A,1870.8999999999069,,,,295065.1000000001,295064.8999999999,293177323,293169.3000000003,293194,295078599,,black,ED06EC24,59,f,4,2,Immobilienkauffrau,0,0,0,0,0
Fixation,canvas.Screen,2_13_0_0,2022-06-27T16:22:02.817Z,,,0,V,1600.7669999999925,timeout,,,296663.8999999999,296662691,295061922,295066.5,295078599,296679366,,grey,ED06EC24,59,f,4,2,Immobilienkauffrau,0,0,0,0,0
Stimulus,canvas.Screen,2_13_0_1,2022-06-27T16:22:02.918Z,,,0,V,100.39000000001397,timeout,,,296764.8999999999,296763024,296662691,296664.2000000002,296679366,296779756,,grey,ED06EC24,59,f,4,2,Immobilienkauffrau,0,0,0,0,0
Reaction,canvas.Screen,2_13_0_2,2022-06-27T16:22:03.073Z,,,0,V,137.64399999991292,response,stim_detected,mousedown,296919.3000000003,296917.3999999999,296763024,296765.2000000002,296779756,296929858,,grey,ED06EC24,59,f,4,2,Immobilienkauffrau,0,0,0,0,0
Trial,flow.Sequence,2_13_0,2022-06-27T16:22:03.073Z,,,0,V,1838.8009999999194,completion,,,296919.8000000003,296917.3999999999,295061922,295066.3999999999,295078599,296929858,,grey,ED06EC24,59,f,4,2,Immobilienkauffrau,0,0,0,0,0
Frame,canvas.Frame,2_13,2022-06-27T16:22:03.074Z,,,0,V,1841.4010000000126,,,,296920.2000000002,296920,295061922,295065.3000000003,295078599,296929858,,grey,ED06EC24,59,f,4,2,Immobilienkauffrau,0,0,0,0,0
Fixation,canvas.Screen,2_14_0_0,2022-06-27T16:22:05.052Z,,,1,AV,1984.820000000007,timeout,,,298898.8999999999,298897999,296913.18,296921.3999999999,296929858,298914678,,grey,ED06EC24,59,f,4,2,Immobilienkauffrau,0,0,0,0,0
Stimulus,canvas.Screen,2_14_0_1,2022-06-27T16:22:05.152Z,,,1,AV,99.82699999999022,timeout,,,298998.8999999999,298997828,298897999,298899.2000000002,298914678,299014505,,grey,ED06EC24,59,f,4,2,Immobilienkauffrau,0,0,0,0,0
Reaction,canvas.Screen,2_14_0_2,2022-06-27T16:22:05.291Z,,,1,AV,120.89499999990221,response,stim_detected,mousedown,299137.2000000002,299135.3999999999,298997828,298999.2000000002,299014505,299147976,,grey,ED06EC24,59,f,4,2,Immobilienkauffrau,0,0,0,0,0
Trial,flow.Sequence,2_14_0,2022-06-27T16:22:05.291Z,,,1,AV,2205.5419999998994,completion,,,299137.7000000002,299135.3999999999,296913.18,296921.3000000003,296929858,299147976,,grey,ED06EC24,59,f,4,2,Immobilienkauffrau,0,0,0,0,0
Frame,canvas.Frame,2_14,2022-06-27T16:22:05.292Z,,,1,AV,2207.942000000272,,,,299138.1000000001,299137.8000000003,296913.18,296920.3999999999,296929858,299147976,,grey,ED06EC24,59,f,4,2,Immobilienkauffrau,0,0,0,0,0
Fixation,canvas.Screen,2_15_0_0,2022-06-27T16:22:07.438Z,,,0,V,2151.9049999999697,timeout,,,301284.1000000001,301283.2,299131299,299139.5,299147976,301299881,,grey,ED06EC24,59,f,4,2,Immobilienkauffrau,0,0,0,0,0
Stimulus,canvas.Screen,2_15_0_1,2022-06-27T16:22:07.537Z,,,0,V,99.73300000000745,timeout,,,301384,301382936,301283.2,301284.3000000003,301299881,301399614,,grey,ED06EC24,59,f,4,2,Immobilienkauffrau,0,0,0,0,0
Reaction,canvas.Screen,2_15_0_2,2022-06-27T16:22:07.718Z,,,0,V,136.78599999990547,response,stim_detected,mousedown,301564.8000000003,301536.3999999999,301382936,301384.2000000002,301399614,301566305,,grey,ED06EC24,59,f,4,2,Immobilienkauffrau,0,0,0,0,0
Trial,flow.Sequence,2_15_0,2022-06-27T16:22:07.719Z,,,0,V,2388.4239999998827,completion,,,301565.6000000001,301536.3999999999,299131299,299139.3999999999,299147976,301566305,,grey,ED06EC24,59,f,4,2,Immobilienkauffrau,0,0,0,0,0
Frame,canvas.Frame,2_15,2022-06-27T16:22:07.719Z,,,0,V,2417.824000000255,,,,301566,301565.8000000003,299131299,299138.2000000002,299147976,301566305,,grey,ED06EC24,59,f,4,2,Immobilienkauffrau,0,0,0,0,0
Fixation,canvas.Screen,2_16_0_0,2022-06-27T16:22:09.456Z,,,0,V,1751.3929999999818,timeout,,,303302.1000000001,303301018,301549628,301567.3999999999,301566305,303317698,,grey,ED06EC24,59,f,4,2,Immobilienkauffrau,0,0,0,0,0
Stimulus,canvas.Screen,2_16_0_1,2022-06-27T16:22:09.555Z,,,0,V,99.07300000003306,timeout,,,303401.2000000002,303400.1,303301018,303302.3000000003,303317698,303416771,,grey,ED06EC24,59,f,4,2,Immobilienkauffrau,0,0,0,0,0
Reaction,canvas.Screen,2_16_0_2,2022-06-27T16:22:09.711Z,,,0,V,138.62899999989895,response,stim_detected,mousedown,303557.2000000002,303555.3999999999,303400.1,303401.5,303416771,303584342,,grey,ED06EC24,59,f,4,2,Immobilienkauffrau,0,0,0,0,0
Trial,flow.Sequence,2_16_0,2022-06-27T16:22:09.711Z,,,0,V,1989.0949999999139,completion,,,303557.6000000001,303555.3999999999,301549628,301567.1000000001,301566305,303584342,,grey,ED06EC24,59,f,4,2,Immobilienkauffrau,0,0,0,0,0
Frame,canvas.Frame,2_16,2022-06-27T16:22:09.711Z,,,0,V,1991.3950000001932,,,,303558,303557.7000000002,301549628,301566.2000000002,301566305,303584342,,grey,ED06EC24,59,f,4,2,Immobilienkauffrau,0,0,0,0,0
Fixation,canvas.Screen,2_17_0_0,2022-06-27T16:22:11.507Z,,,1,A,1784.6730000000098,timeout,,,305353.2000000002,305352336,303567664,303559.2000000002,303584342,305369015,,black,ED06EC24,59,f,4,2,Immobilienkauffrau,0,0,0,0,0
Stimulus,canvas.Screen,2_17_0_1,2022-06-27T16:22:11.607Z,,,1,A,99.63899999996647,timeout,,,305453.2000000002,305451979,305352336,305353.3999999999,305369015,305468654,,black,ED06EC24,59,f,4,2,Immobilienkauffrau,0,0,0,0,0
Reaction,canvas.Screen,2_17_0_2,2022-06-27T16:22:11.751Z,,,1,A,126.74599999992643,response,stim_detected,mousedown,305597.3999999999,305595.3999999999,305451979,305453.5,305468654,305618996,,black,ED06EC24,59,f,4,2,Immobilienkauffrau,0,0,0,0,0
Trial,flow.Sequence,2_17_0,2022-06-27T16:22:11.752Z,,,1,A,2011.0579999999027,completion,,,305597.8000000003,305595.3999999999,303567664,303559.1000000001,303584342,305618996,,black,ED06EC24,59,f,4,2,Immobilienkauffrau,0,0,0,0,0
Frame,canvas.Frame,2_17,2022-06-27T16:22:11.752Z,,,1,A,2013.6579999999958,,,,305598.2000000002,305598,303567664,303558.2000000002,303584342,305618996,,black,ED06EC24,59,f,4,2,Immobilienkauffrau,0,0,0,0,0
Fixation,canvas.Screen,2_18_0_0,2022-06-27T16:22:13.676Z,,,1,AV,1918.5009999999893,timeout,,,307522.3000000003,307520815,305602319,305599.3000000003,305618996,307537497,,grey,ED06EC24,59,f,4,2,Immobilienkauffrau,0,0,0,0,0
Stimulus,canvas.Screen,2_18_0_1,2022-06-27T16:22:13.775Z,,,1,AV,99.18900000001304,timeout,,,307621.3000000003,307620011,307520815,307522.6000000001,307537497,307636686,,grey,ED06EC24,59,f,4,2,Immobilienkauffrau,0,0,0,0,0
Reaction,canvas.Screen,2_18_0_2,2022-06-27T16:22:13.910Z,,,1,AV,117.61400000029244,response,stim_detected,mousedown,307756,307754.3000000003,307620011,307621.7000000002,307636686,307770447,,grey,ED06EC24,59,f,4,2,Immobilienkauffrau,0,0,0,0,0
Trial,flow.Sequence,2_18_0,2022-06-27T16:22:13.911Z,,,1,AV,2135.3040000002948,completion,,,307756.5,307754.3000000003,305602319,305599.3000000003,305618996,307770447,,grey,ED06EC24,59,f,4,2,Immobilienkauffrau,0,0,0,0,0
Frame,canvas.Frame,2_18,2022-06-27T16:22:13.911Z,,,1,AV,2137.9039999999222,,,,307757.1000000001,307756.8999999999,305602319,305598.5,305618996,307770447,,grey,ED06EC24,59,f,4,2,Immobilienkauffrau,0,0,0,0,0
Fixation,canvas.Screen,2_19_0_0,2022-06-27T16:22:16.295Z,,,1,A,2385.1300000000047,timeout,,,310140.6000000001,310138898,307753.77,307758.3999999999,307770447,310155577,,black,ED06EC24,59,f,4,2,Immobilienkauffrau,0,0,0,0,0
Stimulus,canvas.Screen,2_19_0_1,2022-06-27T16:22:16.395Z,,,1,A,99.96500000002561,timeout,,,310241.1000000001,310238862,310138898,310140.8999999999,310155577,310255542,,black,ED06EC24,59,f,4,2,Immobilienkauffrau,0,0,0,0,0
Reaction,canvas.Screen,2_19_0_2,2022-06-27T16:22:16.542Z,,,1,A,130.85799999989104,response,stim_detected,mousedown,310388.3000000003,310386.3999999999,310238862,310241.3999999999,310255542,310405586,,black,ED06EC24,59,f,4,2,Immobilienkauffrau,0,0,0,0,0
Trial,flow.Sequence,2_19_0,2022-06-27T16:22:16.543Z,,,1,A,2615.9529999999213,completion,,,310388.8999999999,310386.3999999999,307753.77,307758.3000000003,307770447,310405586,,black,ED06EC24,59,f,4,2,Immobilienkauffrau,0,0,0,0,0
Frame,canvas.Frame,2_19,2022-06-27T16:22:16.544Z,,,1,A,2618.7530000002007,,,,310389.5,310389.2000000002,307753.77,307757.3999999999,307770447,310405586,,black,ED06EC24,59,f,4,2,Immobilienkauffrau,0,0,0,0,0
Fixation,canvas.Screen,2_20_0_0,2022-06-27T16:22:18.813Z,,,1,AV,2268.61599999998,timeout,,,312658.7000000002,312657521,310388852,310391.1000000001,310405586,312674202,,grey,ED06EC24,59,f,4,2,Immobilienkauffrau,0,0,0,0,0
Stimulus,canvas.Screen,2_20_0_1,2022-06-27T16:22:18.914Z,,,1,AV,99.68400000000838,timeout,,,312759.6000000001,312757206,312657521,312659,312674202,312773886,,grey,ED06EC24,59,f,4,2,Immobilienkauffrau,0,0,0,0,0
Reaction,canvas.Screen,2_20_0_2,2022-06-27T16:22:19.040Z,,,1,AV,109.9140000002808,response,stim_detected,mousedown,312885.3999999999,312883.8000000003,312757206,312759.8999999999,312773886,312907268,,grey,ED06EC24,59,f,4,2,Immobilienkauffrau,0,0,0,0,0
Trial,flow.Sequence,2_20_0,2022-06-27T16:22:19.040Z,,,1,AV,2478.214000000269,completion,,,312886,312883.8000000003,310388852,310390.8999999999,310405586,312907268,,grey,ED06EC24,59,f,4,2,Immobilienkauffrau,0,0,0,0,0
Frame,canvas.Frame,2_20,2022-06-27T16:22:19.041Z,,,1,AV,2480.614000000176,,,,312886.5,312886.2000000002,310388852,310389.8000000003,310405586,312907268,,grey,ED06EC24,59,f,4,2,Immobilienkauffrau,0,0,0,0,0
Fixation,canvas.Screen,2_21_0_0,2022-06-27T16:22:21.331Z,,,0,V,2284.896000000008,timeout,,,315177.1000000001,315175486,312873914,312887.7000000002,312907268,315192164,,grey,ED06EC24,59,f,4,2,Immobilienkauffrau,0,0,0,0,0
Stimulus,canvas.Screen,2_21_0_1,2022-06-27T16:22:21.431Z,,,0,V,99.94200000003912,timeout,,,315276.8999999999,315275429,315175486,315177.5,315192164,315292106,,grey,ED06EC24,59,f,4,2,Immobilienkauffrau,0,0,0,0,0
Reaction,canvas.Screen,2_21_0_2,2022-06-27T16:22:21.581Z,,,0,V,132.49400000006426,response,stim_detected,mousedown,315426.8000000003,315424.6000000001,315275429,315277.2000000002,315292106,315442289,,grey,ED06EC24,59,f,4,2,Immobilienkauffrau,0,0,0,0,0
Trial,flow.Sequence,2_21_0,2022-06-27T16:22:21.582Z,,,0,V,2517.3320000001113,completion,,,315427.5,315424.6000000001,312873914,312887.6000000001,312907268,315442289,,grey,ED06EC24,59,f,4,2,Immobilienkauffrau,0,0,0,0,0
Frame,canvas.Frame,2_21,2022-06-27T16:22:21.582Z,,,0,V,2520.3320000001113,,,,315427.8999999999,315427.6000000001,312873914,312886.7000000002,312907268,315442289,,grey,ED06EC24,59,f,4,2,Immobilienkauffrau,0,0,0,0,0
Fixation,canvas.Screen,2_22_0_0,2022-06-27T16:22:23.516Z,,,1,AV,1935.0570000000298,timeout,,,317361.8999999999,317360665,315425612,315429.3999999999,315442289,317377346,,grey,ED06EC24,59,f,4,2,Immobilienkauffrau,0,0,0,0,0
Stimulus,canvas.Screen,2_22_0_1,2022-06-27T16:22:23.616Z,,,1,AV,99.52599999995437,timeout,,,317461.8000000003,317460196,317360665,317362.2000000002,317377346,317476872,,grey,ED06EC24,59,f,4,2,Immobilienkauffrau,0,0,0,0,0
Reaction,canvas.Screen,2_22_0_2,2022-06-27T16:22:23.749Z,,,1,AV,116.52799999993294,response,stim_detected,mousedown,317595.3999999999,317593.3999999999,317460196,317462.1000000001,317476872,317610439,,grey,ED06EC24,59,f,4,2,Immobilienkauffrau,0,0,0,0,0
Trial,flow.Sequence,2_22_0,2022-06-27T16:22:23.750Z,,,1,AV,2151.110999999917,completion,,,317595.8000000003,317593.3999999999,315425612,315429.2000000002,315442289,317610439,,grey,ED06EC24,59,f,4,2,Immobilienkauffrau,0,0,0,0,0
Frame,canvas.Frame,2_22,2022-06-27T16:22:23.750Z,,,1,AV,2153.7110000000102,,,,317596.2000000002,317596,315425612,315428.2000000002,315442289,317610439,,grey,ED06EC24,59,f,4,2,Immobilienkauffrau,0,0,0,0,0
Fixation,canvas.Screen,2_23_0_0,2022-06-27T16:22:25.800Z,,,1,AV,2051.2760000000126,timeout,,,319646.1000000001,319645038,317593762,317597.7000000002,317610439,319661715,,grey,ED06EC24,59,f,4,2,Immobilienkauffrau,0,0,0,0,0
Stimulus,canvas.Screen,2_23_0_1,2022-06-27T16:22:25.900Z,,,1,AV,100.1589999999851,timeout,,,319746.3999999999,319745.17,319645038,319646.3999999999,319661715,319761874,,grey,ED06EC24,59,f,4,2,Immobilienkauffrau,0,0,0,0,0
Reaction,canvas.Screen,2_23_0_2,2022-06-27T16:22:26.044Z,,,1,AV,126.42600000026869,response,stim_detected,mousedown,319890,319888.3000000003,319745.17,319746.7000000002,319761874,319895.29,,grey,ED06EC24,59,f,4,2,Immobilienkauffrau,0,0,0,0,0
Trial,flow.Sequence,2_23_0,2022-06-27T16:22:26.045Z,,,1,AV,2277.8610000002664,completion,,,319890.5,319888.3000000003,317593762,317597.5,317610439,319895.29,,grey,ED06EC24,59,f,4,2,Immobilienkauffrau,0,0,0,0,0
Frame,canvas.Frame,2_23,2022-06-27T16:22:26.045Z,,,1,AV,2280.261000000173,,,,319890.8999999999,319890.7000000002,317593762,317596.5,317610439,319895.29,,grey,ED06EC24,59,f,4,2,Immobilienkauffrau,0,0,0,0,0
Fixation,canvas.Screen,2_24_0_0,2022-06-27T16:22:27.819Z,,,1,AV,1784.9170000000158,timeout,,,321665.1000000001,321663526,319878613,319892.5,319895.29,321680207,,grey,ED06EC24,59,f,4,2,Immobilienkauffrau,0,0,0,0,0
Stimulus,canvas.Screen,2_24_0_1,2022-06-27T16:22:27.918Z,,,1,AV,99.5690000000177,timeout,,,321764.1000000001,321763.1,321663526,321665.3000000003,321680207,321779776,,grey,ED06EC24,59,f,4,2,Immobilienkauffrau,0,0,0,0,0
Reaction,canvas.Screen,2_24_0_2,2022-06-27T16:22:28.051Z,,,1,AV,116.42400000017369,response,stim_detected,mousedown,321897.3999999999,321896.2000000002,321763.1,321764.3999999999,321779776,321913347,,grey,ED06EC24,59,f,4,2,Immobilienkauffrau,0,0,0,0,0
Trial,flow.Sequence,2_24_0,2022-06-27T16:22:28.052Z,,,1,AV,2000.9100000002072,completion,,,321897.7000000002,321896.2000000002,319878613,319892.3999999999,319895.29,321913347,,grey,ED06EC24,59,f,4,2,Immobilienkauffrau,0,0,0,0,0
Frame,canvas.Frame,2_24,2022-06-27T16:22:28.052Z,,,1,AV,2002.5100000003004,,,,321898,321897.8000000003,319878613,319891.2000000002,319895.29,321913347,,grey,ED06EC24,59,f,4,2,Immobilienkauffrau,0,0,0,0,0
Fixation,canvas.Screen,2_25_0_0,2022-06-27T16:22:29.836Z,,,1,A,1784.195000000007,timeout,,,323682.2000000002,323680867,321896669,321898.8999999999,321913347,323697542,,black,ED06EC24,59,f,4,2,Immobilienkauffrau,0,0,0,0,0
Stimulus,canvas.Screen,2_25_0_1,2022-06-27T16:22:29.936Z,,,1,A,99.88999999995576,timeout,,,323782.2000000002,323780759,323680867,323682.5,323697542,323797432,,black,ED06EC24,59,f,4,2,Immobilienkauffrau,0,0,0,0,0
Reaction,canvas.Screen,2_25_0_2,2022-06-27T16:22:30.119Z,,,1,A,165.8680000003078,response,stim_detected,mousedown,323965,323963.3000000003,323780759,323782.6000000001,323797432,323981.36,,black,ED06EC24,59,f,4,2,Immobilienkauffrau,0,0,0,0,0
Trial,flow.Sequence,2_25_0,2022-06-27T16:22:30.119Z,,,1,A,2049.9530000002705,completion,,,323965.3999999999,323963.3000000003,321896669,321898.8000000003,321913347,323981.36,,black,ED06EC24,59,f,4,2,Immobilienkauffrau,0,0,0,0,0
Frame,canvas.Frame,2_25,2022-06-27T16:22:30.120Z,,,1,A,2052.3530000001774,,,,323966,323965.7000000002,321896669,321898.1000000001,321913347,323981.36,,black,ED06EC24,59,f,4,2,Immobilienkauffrau,0,0,0,0,0
Fixation,canvas.Screen,2_26_0_0,2022-06-27T16:22:32.154Z,,,1,AV,2034.869000000006,timeout,,,326000.3000000003,325999279,323964683,323967.2000000002,323981.36,326016229,,grey,ED06EC24,59,f,4,2,Immobilienkauffrau,0,0,0,0,0
Stimulus,canvas.Screen,2_26_0_1,2022-06-27T16:22:32.265Z,,,1,AV,100.07400000002235,timeout,,,326111.3999999999,326099624,325999279,326000.5,326016229,326116303,,grey,ED06EC24,59,f,4,2,Immobilienkauffrau,0,0,0,0,0
Reaction,canvas.Screen,2_26_0_2,2022-06-27T16:22:32.391Z,,,1,AV,118.99700000026496,response,stim_detected,mousedown,326237,326235.3000000003,326099624,326111.6000000001,326116303,326249582,,grey,ED06EC24,59,f,4,2,Immobilienkauffrau,0,0,0,0,0
Trial,flow.Sequence,2_26_0,2022-06-27T16:22:32.392Z,,,1,AV,2253.9400000002934,completion,,,326237.3999999999,326235.3000000003,323964683,323967.1000000001,323981.36,326249582,,grey,ED06EC24,59,f,4,2,Immobilienkauffrau,0,0,0,0,0
Frame,canvas.Frame,2_26,2022-06-27T16:22:32.392Z,,,1,AV,2256.140000000014,,,,326237.8000000003,326237.5,323964683,323966.3000000003,323981.36,326249582,,grey,ED06EC24,59,f,4,2,Immobilienkauffrau,0,0,0,0,0
Fixation,canvas.Screen,2_27_0_0,2022-06-27T16:22:34.790Z,,,1,A,2401.488000000012,timeout,,,328635.7000000002,328634393,326232905,326239.3000000003,326249582,328651.07,,black,ED06EC24,59,f,4,2,Immobilienkauffrau,0,0,0,0,0
Stimulus,canvas.Screen,2_27_0_1,2022-06-27T16:22:34.890Z,,,1,A,99.95100000000093,timeout,,,328735.7000000002,328734345,328634393,328636,328651.07,328751021,,black,ED06EC24,59,f,4,2,Immobilienkauffrau,0,0,0,0,0
Reaction,canvas.Screen,2_27_0_2,2022-06-27T16:22:35.037Z,,,1,A,130.17900000017835,response,stim_detected,mousedown,328883,328881.2000000002,328734345,328736.1000000001,328751021,328884679,,black,ED06EC24,59,f,4,2,Immobilienkauffrau,0,0,0,0,0
Trial,flow.Sequence,2_27_0,2022-06-27T16:22:35.038Z,,,1,A,2631.6180000001914,completion,,,328883.5,328881.2000000002,326232905,326239.2000000002,326249582,328884679,,black,ED06EC24,59,f,4,2,Immobilienkauffrau,0,0,0,0,0
Frame,canvas.Frame,2_27,2022-06-27T16:22:35.038Z,,,1,A,2634.0180000000983,,,,328883.8000000003,328883.6000000001,326232905,326238,326249582,328884679,,black,ED06EC24,59,f,4,2,Immobilienkauffrau,0,0,0,0,0
Fixation,canvas.Screen,2_28_0_0,2022-06-27T16:22:36.574Z,,,1,A,1550.646000000008,timeout,,,330419.7000000002,330418651,328868002,328885,328884679,330435325,,black,ED06EC24,59,f,4,2,Immobilienkauffrau,0,0,0,0,0
Stimulus,canvas.Screen,2_28_0_1,2022-06-27T16:22:36.675Z,,,1,A,100.51299999997718,timeout,,,330520.6000000001,330519.16,330418651,330419.8999999999,330435325,330535838,,black,ED06EC24,59,f,4,2,Immobilienkauffrau,0,0,0,0,0
Reaction,canvas.Screen,2_28_0_2,2022-06-27T16:22:36.884Z,,,1,A,192.36200000019744,response,stim_detected,mousedown,330730.1000000001,330728.2000000002,330519.16,330520.8999999999,330535838,330735897,,black,ED06EC24,59,f,4,2,Immobilienkauffrau,0,0,0,0,0
Trial,flow.Sequence,2_28_0,2022-06-27T16:22:36.885Z,,,1,A,1843.5210000001825,completion,,,330730.6000000001,330728.2000000002,328868002,328885,328884679,330735897,,black,ED06EC24,59,f,4,2,Immobilienkauffrau,0,0,0,0,0
Frame,canvas.Frame,2_28,2022-06-27T16:22:36.885Z,,,1,A,1846.2209999999031,,,,330731.3000000003,330730.8999999999,328868002,328884,328884679,330735897,,black,ED06EC24,59,f,4,2,Immobilienkauffrau,0,0,0,0,0
Fixation,canvas.Screen,2_29_0_0,2022-06-27T16:22:39.161Z,,,0,V,2285.68200000003,timeout,,,333006.8000000003,333004896,330719.22,330732.7000000002,330735897,333021579,,grey,ED06EC24,59,f,4,2,Immobilienkauffrau,0,0,0,0,0
Stimulus,canvas.Screen,2_29_0_1,2022-06-27T16:22:39.260Z,,,0,V,99.18599999998696,timeout,,,333105.8000000003,333104088,333004896,333007.1000000001,333021579,333120765,,grey,ED06EC24,59,f,4,2,Immobilienkauffrau,0,0,0,0,0
Reaction,canvas.Screen,2_29_0_2,2022-06-27T16:22:39.590Z,,,0,V,313.0350000002654,response,stim_detected,mousedown,333435.6000000001,333433.8000000003,333104088,333106.1000000001,333120765,333454415,,grey,ED06EC24,59,f,4,2,Immobilienkauffrau,0,0,0,0,0
Trial,flow.Sequence,2_29_0,2022-06-27T16:22:39.590Z,,,0,V,2697.903000000282,completion,,,333436.1000000001,333433.8000000003,330719.22,330732.6000000001,330735897,333454415,,grey,ED06EC24,59,f,4,2,Immobilienkauffrau,0,0,0,0,0
Frame,canvas.Frame,2_29,2022-06-27T16:22:39.591Z,,,0,V,2700.403000000282,,,,333436.5,333436.3000000003,330719.22,330731.6000000001,330735897,333454415,,grey,ED06EC24,59,f,4,2,Immobilienkauffrau,0,0,0,0,0
Fixation,canvas.Screen,2_30_0_0,2022-06-27T16:22:41.594Z,,,0,V,2000.5200000000186,timeout,,,335439.8000000003,335438263,333437738,333437.8000000003,333454415,335454935,,grey,ED06EC24,59,f,4,2,Immobilienkauffrau,0,0,0,0,0
Stimulus,canvas.Screen,2_30_0_1,2022-06-27T16:22:41.694Z,,,0,V,100.72000000003027,timeout,,,335539.7000000002,335538979,335438263,335440.1000000001,335454935,335555655,,grey,ED06EC24,59,f,4,2,Immobilienkauffrau,0,0,0,0,0
Reaction,canvas.Screen,2_30_0_2,2022-06-27T16:22:41.828Z,,,0,V,116.54500000015832,response,stim_detected,mousedown,335673.8999999999,335672.2000000002,335538979,335540,335555655,335689231,,grey,ED06EC24,59,f,4,2,Immobilienkauffrau,0,0,0,0,0
Trial,flow.Sequence,2_30_0,2022-06-27T16:22:41.828Z,,,0,V,2217.785000000207,completion,,,335674.3000000003,335672.2000000002,333437738,333437.7000000002,333454415,335689231,,grey,ED06EC24,59,f,4,2,Immobilienkauffrau,0,0,0,0,0
Frame,canvas.Frame,2_30,2022-06-27T16:22:41.829Z,,,0,V,2220.085000000021,,,,335674.6000000001,335674.5,333437738,333436.8000000003,333454415,335689231,,grey,ED06EC24,59,f,4,2,Immobilienkauffrau,0,0,0,0,0
Fixation,canvas.Screen,2_31_0_0,2022-06-27T16:22:43.813Z,,,1,AV,1985.353999999992,timeout,,,337658.7000000002,337657902,335672554,335675.7000000002,335689231,337674585,,grey,ED06EC24,59,f,4,2,Immobilienkauffrau,0,0,0,0,0
Stimulus,canvas.Screen,2_31_0_1,2022-06-27T16:22:43.913Z,,,1,AV,99.40399999998044,timeout,,,337758.8999999999,337757172,337657902,337659,337674585,337773989,,grey,ED06EC24,59,f,4,2,Immobilienkauffrau,0,0,0,0,0
Reaction,canvas.Screen,2_31_0_2,2022-06-27T16:22:44.045Z,,,1,AV,115.21100000018487,response,stim_detected,mousedown,337890.8999999999,337889.2000000002,337757172,337759.2000000002,337773989,337907405,,grey,ED06EC24,59,f,4,2,Immobilienkauffrau,0,0,0,0,0
Trial,flow.Sequence,2_31_0,2022-06-27T16:22:44.045Z,,,1,AV,2199.9690000001574,completion,,,337891.2000000002,337889.2000000002,335672554,335675.6000000001,335689231,337907405,,grey,ED06EC24,59,f,4,2,Immobilienkauffrau,0,0,0,0,0
Frame,canvas.Frame,2_31,2022-06-27T16:22:44.046Z,,,1,AV,2202.0690000002505,,,,337891.5,337891.3000000003,335672554,335674.7000000002,335689231,337907405,,grey,ED06EC24,59,f,4,2,Immobilienkauffrau,0,0,0,0,0
Fixation,canvas.Screen,2_32_0_0,2022-06-27T16:22:45.864Z,,,0,V,1818.2269999999553,timeout,,,339710,339708951,337890728,337892.7000000002,337907405,339725632,,grey,ED06EC24,59,f,4,2,Immobilienkauffrau,0,0,0,0,0
Stimulus,canvas.Screen,2_32_0_1,2022-06-27T16:22:45.963Z,,,0,V,98.93700000003446,timeout,,,339809,339807898,339708951,339710.3999999999,339725632,339824569,,grey,ED06EC24,59,f,4,2,Immobilienkauffrau,0,0,0,0,0
Reaction,canvas.Screen,2_32_0_2,2022-06-27T16:22:46.142Z,,,0,V,161.53100000007544,response,stim_detected,mousedown,339987.7000000002,339986.1000000001,339807898,339809.3999999999,339824569,339992162,,grey,ED06EC24,59,f,4,2,Immobilienkauffrau,0,0,0,0,0
Trial,flow.Sequence,2_32_0,2022-06-27T16:22:46.142Z,,,0,V,2078.695000000065,completion,,,339988.3000000003,339986.1000000001,337890728,337892.6000000001,337907405,339992162,,grey,ED06EC24,59,f,4,2,Immobilienkauffrau,0,0,0,0,0
Frame,canvas.Frame,2_32,2022-06-27T16:22:46.143Z,,,0,V,2081.094999999972,,,,339988.7000000002,339988.5,337890728,337891.7000000002,337907405,339992162,,grey,ED06EC24,59,f,4,2,Immobilienkauffrau,0,0,0,0,0
Fixation,canvas.Screen,2_33_0_0,2022-06-27T16:22:47.698Z,,,1,A,1567.0989999999874,timeout,,,341544.1000000001,341542589,339975484,339989.8999999999,339992162,341559261,,black,ED06EC24,59,f,4,2,Immobilienkauffrau,0,0,0,0,0
Stimulus,canvas.Screen,2_33_0_1,2022-06-27T16:22:47.799Z,,,1,A,100.76400000002468,timeout,,,341645.1000000001,341643344,341542589,341544.3000000003,341559261,341660025,,black,ED06EC24,59,f,4,2,Immobilienkauffrau,0,0,0,0,0
Reaction,canvas.Screen,2_33_0_2,2022-06-27T16:22:48.096Z,,,1,A,280.175000000163,response,stim_detected,mousedown,341941.8999999999,341940.2000000002,341643344,341645.3999999999,341660025,341943479,,black,ED06EC24,59,f,4,2,Immobilienkauffrau,0,0,0,0,0
Trial,flow.Sequence,2_33_0,2022-06-27T16:22:48.096Z,,,1,A,1948.038000000175,completion,,,341942.2000000002,341940.2000000002,339975484,339989.8000000003,339992162,341943479,,black,ED06EC24,59,f,4,2,Immobilienkauffrau,0,0,0,0,0
Frame,canvas.Frame,2_33,2022-06-27T16:22:48.097Z,,,1,A,1950.2379999998957,,,,341942.6000000001,341942.3999999999,339975484,339988.8000000003,339992162,341943479,,black,ED06EC24,59,f,4,2,Immobilienkauffrau,0,0,0,0,0
Fixation,canvas.Screen,2_34_0_0,2022-06-27T16:22:50.200Z,,,1,AV,2117.6930000000284,timeout,,,344046.3000000003,344044497,341926802,341943.8000000003,341943479,344061172,,grey,ED06EC24,59,f,4,2,Immobilienkauffrau,0,0,0,0,0
Stimulus,canvas.Screen,2_34_0_1,2022-06-27T16:22:50.301Z,,,1,AV,100.36499999999069,timeout,,,344146.6000000001,344144.86,344044497,344046.3999999999,344061172,344161537,,grey,ED06EC24,59,f,4,2,Immobilienkauffrau,0,0,0,0,0
Reaction,canvas.Screen,2_34_0_2,2022-06-27T16:22:50.423Z,,,1,AV,105.66300000017509,response,stim_detected,mousedown,344269,344267.2000000002,344144.86,344146.8999999999,344161537,344295041,,grey,ED06EC24,59,f,4,2,Immobilienkauffrau,0,0,0,0,0
Trial,flow.Sequence,2_34_0,2022-06-27T16:22:50.424Z,,,1,AV,2323.721000000194,completion,,,344269.5,344267.2000000002,341926802,341943.7000000002,341943479,344295041,,grey,ED06EC24,59,f,4,2,Immobilienkauffrau,0,0,0,0,0
Frame,canvas.Frame,2_34,2022-06-27T16:22:50.424Z,,,1,AV,2326.121000000101,,,,344269.8999999999,344269.6000000001,341926802,341942.8000000003,341943479,344295041,,grey,ED06EC24,59,f,4,2,Immobilienkauffrau,0,0,0,0,0
Fixation,canvas.Screen,2_35_0_0,2022-06-27T16:22:52.551Z,,,0,V,2117.7059999999474,timeout,,,346397.3999999999,346396072,344278364,344271,344295041,346412747,,grey,ED06EC24,59,f,4,2,Immobilienkauffrau,0,0,0,0,0
Stimulus,canvas.Screen,2_35_0_1,2022-06-27T16:22:52.652Z,,,0,V,100.5,timeout,,,346498.3999999999,346496567,346396072,346397.6000000001,346412747,346513247,,grey,ED06EC24,59,f,4,2,Immobilienkauffrau,0,0,0,0,0
Reaction,canvas.Screen,2_35_0_2,2022-06-27T16:22:52.769Z,,,0,V,99.85300000011921,response,stim_detected,mousedown,346615,346613.1000000001,346496567,346498.6000000001,346513247,346629962,,grey,ED06EC24,59,f,4,2,Immobilienkauffrau,0,0,0,0,0
Trial,flow.Sequence,2_35_0,2022-06-27T16:22:52.770Z,,,0,V,2318.0590000000666,completion,,,346615.3999999999,346613.1000000001,344278364,344271,344295041,346629962,,grey,ED06EC24,59,f,4,2,Immobilienkauffrau,0,0,0,0,0
Frame,canvas.Frame,2_35,2022-06-27T16:22:52.770Z,,,0,V,2320.759000000253,,,,346616,346615.8000000003,344278364,344270,344295041,346629962,,grey,ED06EC24,59,f,4,2,Immobilienkauffrau,0,0,0,0,0
Fixation,canvas.Screen,2_36_0_0,2022-06-27T16:22:54.603Z,,,1,A,1834.353999999992,timeout,,,348448.7000000002,348447.64,346613285,346617.3000000003,346629962,348464316,,black,ED06EC24,59,f,4,2,Immobilienkauffrau,0,0,0,0,0
Stimulus,canvas.Screen,2_36_0_1,2022-06-27T16:22:54.704Z,,,1,A,100.37200000003213,timeout,,,348549.3999999999,348548009,348447.64,348448.8999999999,348464316,348564688,,black,ED06EC24,59,f,4,2,Immobilienkauffrau,0,0,0,0,0
Reaction,canvas.Screen,2_36_0_2,2022-06-27T16:22:55.100Z,,,1,A,379.4120000000694,response,stim_detected,mousedown,348945.8000000003,348944.1000000001,348548009,348549.7000000002,348564688,348964826,,black,ED06EC24,59,f,4,2,Immobilienkauffrau,0,0,0,0,0
Trial,flow.Sequence,2_36_0,2022-06-27T16:22:55.100Z,,,1,A,2314.1380000000936,completion,,,348946.3000000003,348944.1000000001,346613285,346617.2000000002,346629962,348964826,,black,ED06EC24,59,f,4,2,Immobilienkauffrau,0,0,0,0,0
Frame,canvas.Frame,2_36,2022-06-27T16:22:55.101Z,,,1,A,2316.5380000000005,,,,348946.6000000001,348946.5,346613285,346616.3000000003,346629962,348964826,,black,ED06EC24,59,f,4,2,Immobilienkauffrau,0,0,0,0,0
Fixation,canvas.Screen,2_37_0_0,2022-06-27T16:22:56.872Z,,,1,A,1767.9079999999958,timeout,,,350717.6000000001,350716056,348948149,348947.8999999999,348964826,350732734,,black,ED06EC24,59,f,4,2,Immobilienkauffrau,0,0,0,0,0
Stimulus,canvas.Screen,2_37_0_1,2022-06-27T16:22:56.972Z,,,1,A,100.00099999998929,timeout,,,350817.5,350816058,350716056,350717.8000000003,350732734,350832735,,black,ED06EC24,59,f,4,2,Immobilienkauffrau,0,0,0,0,0
Reaction,canvas.Screen,2_37_0_2,2022-06-27T16:22:57.117Z,,,1,A,128.46500000020023,response,stim_detected,mousedown,350962.8999999999,350961.2000000002,350816058,350817.8000000003,350832735,350982872,,black,ED06EC24,59,f,4,2,Immobilienkauffrau,0,0,0,0,0
Trial,flow.Sequence,2_37_0,2022-06-27T16:22:57.118Z,,,1,A,1996.3740000001853,completion,,,350963.5,350961.2000000002,348948149,348947.8000000003,348964826,350982872,,black,ED06EC24,59,f,4,2,Immobilienkauffrau,0,0,0,0,0
Frame,canvas.Frame,2_37,2022-06-27T16:22:57.118Z,,,1,A,1998.8740000001853,,,,350963.8999999999,350963.7000000002,348948149,348946.8999999999,348964826,350982872,,black,ED06EC24,59,f,4,2,Immobilienkauffrau,0,0,0,0,0
Fixation,canvas.Screen,2_38_0_0,2022-06-27T16:22:58.773Z,,,1,A,1650.6880000000237,timeout,,,352618.8000000003,352616886,350949518,350965.3000000003,350982872,352633.56,,black,ED06EC24,59,f,4,2,Immobilienkauffrau,0,0,0,0,0
Stimulus,canvas.Screen,2_38_0_1,2022-06-27T16:22:58.873Z,,,1,A,100.49699999997392,timeout,,,352718.7000000002,352717379,352616886,352619.1000000001,352633.56,352734057,,black,ED06EC24,59,f,4,2,Immobilienkauffrau,0,0,0,0,0
Reaction,canvas.Screen,2_38_0_2,2022-06-27T16:22:59.034Z,,,1,A,144.04300000012154,response,stim_detected,mousedown,352879.8000000003,352878.1000000001,352717379,352719,352734057,352884.13,,black,ED06EC24,59,f,4,2,Immobilienkauffrau,0,0,0,0,0
Trial,flow.Sequence,2_38_0,2022-06-27T16:22:59.034Z,,,1,A,1895.2280000001192,completion,,,352880.2000000002,352878.1000000001,350949518,350965.2000000002,350982872,352884.13,,black,ED06EC24,59,f,4,2,Immobilienkauffrau,0,0,0,0,0
Frame,canvas.Frame,2_38,2022-06-27T16:22:59.035Z,,,1,A,1897.4280000003055,,,,352880.5,352880.3000000003,350949518,350964.2000000002,350982872,352884.13,,black,ED06EC24,59,f,4,2,Immobilienkauffrau,0,0,0,0,0
Fixation,canvas.Screen,2_39_0_0,2022-06-27T16:23:01.092Z,,,1,AV,2068.7399999999907,timeout,,,354937.8999999999,354936187,352867453,352882.1000000001,352884.13,354952.87,,grey,ED06EC24,59,f,4,2,Immobilienkauffrau,0,0,0,0,0
Stimulus,canvas.Screen,2_39_0_1,2022-06-27T16:23:01.191Z,,,1,AV,99.4440000000177,timeout,,,355036.8000000003,355035636,354936187,354938.1000000001,354952.87,355052314,,grey,ED06EC24,59,f,4,2,Immobilienkauffrau,0,0,0,0,0
Reaction,canvas.Screen,2_39_0_2,2022-06-27T16:23:01.320Z,,,1,AV,111.7860000000801,response,stim_detected,mousedown,355165.8000000003,355164.1000000001,355035636,355037,355052314,355169025,,grey,ED06EC24,59,f,4,2,Immobilienkauffrau,0,0,0,0,0
Trial,flow.Sequence,2_39_0,2022-06-27T16:23:01.320Z,,,1,AV,2279.9700000000885,completion,,,355166.3000000003,355164.1000000001,352867453,352881.8999999999,352884.13,355169025,,grey,ED06EC24,59,f,4,2,Immobilienkauffrau,0,0,0,0,0
Frame,canvas.Frame,2_39,2022-06-27T16:23:01.321Z,,,1,AV,2282.269999999902,,,,355166.6000000001,355166.3999999999,352867453,352880.7000000002,352884.13,355169025,,grey,ED06EC24,59,f,4,2,Immobilienkauffrau,0,0,0,0,0
Fixation,canvas.Screen,2_40_0_0,2022-06-27T16:23:03.076Z,,,1,AV,1768.2149999999674,timeout,,,356921.8000000003,356920559,355152348,355167.7000000002,355169025,356937.24,,grey,ED06EC24,59,f,4,2,Immobilienkauffrau,0,0,0,0,0
Stimulus,canvas.Screen,2_40_0_1,2022-06-27T16:23:03.175Z,,,1,AV,99.49400000000605,timeout,,,357021,357020059,356920559,356922.1000000001,356937.24,357036734,,grey,ED06EC24,59,f,4,2,Immobilienkauffrau,0,0,0,0,0
Reaction,canvas.Screen,2_40_0_2,2022-06-27T16:23:03.307Z,,,1,AV,114.46600000018952,response,stim_detected,mousedown,357152.7000000002,357151.2000000002,357020059,357021.2000000002,357036734,357170341,,grey,ED06EC24,59,f,4,2,Immobilienkauffrau,0,0,0,0,0
Trial,flow.Sequence,2_40_0,2022-06-27T16:23:03.307Z,,,1,AV,1982.175000000163,completion,,,357153.2000000002,357151.2000000002,355152348,355167.7000000002,355169025,357170341,,grey,ED06EC24,59,f,4,2,Immobilienkauffrau,0,0,0,0,0
Frame,canvas.Frame,2_40,2022-06-27T16:23:03.308Z,,,1,AV,1984.2750000002561,,,,357153.5,357153.3000000003,355152348,355166.8000000003,355169025,357170341,,grey,ED06EC24,59,f,4,2,Immobilienkauffrau,0,0,0,0,0
Fixation,canvas.Screen,2_41_0_0,2022-06-27T16:23:05.194Z,,,1,AV,1885.4349999999977,timeout,,,359040,359039091,357153664,357154.5,357170341,359055776,,grey,ED06EC24,59,f,4,2,Immobilienkauffrau,0,0,0,0,0
Stimulus,canvas.Screen,2_41_0_1,2022-06-27T16:23:05.293Z,,,1,AV,99.24299999995856,timeout,,,359139,359137699,359039091,359040.2000000002,359055776,359155019,,grey,ED06EC24,59,f,4,2,Immobilienkauffrau,0,0,0,0,0
Reaction,canvas.Screen,2_41_0_2,2022-06-27T16:23:05.427Z,,,1,AV,116.081000000122,response,stim_detected,mousedown,359272.8999999999,359271.1000000001,359137699,359139.1000000001,359155019,359288443,,grey,ED06EC24,59,f,4,2,Immobilienkauffrau,0,0,0,0,0
Trial,flow.Sequence,2_41_0,2022-06-27T16:23:05.427Z,,,1,AV,2100.7590000000782,completion,,,359273.3000000003,359271.1000000001,357153664,357154.3999999999,357170341,359288443,,grey,ED06EC24,59,f,4,2,Immobilienkauffrau,0,0,0,0,0
Frame,canvas.Frame,2_41,2022-06-27T16:23:05.428Z,,,1,AV,2103.058999999892,,,,359273.6000000001,359273.3999999999,357153664,357153.6000000001,357170341,359288443,,grey,ED06EC24,59,f,4,2,Immobilienkauffrau,0,0,0,0,0
Fixation,canvas.Screen,2_42_0_0,2022-06-27T16:23:07.739Z,,,1,AV,2302.887999999977,timeout,,,361585.3000000003,361574644,359271765,359275,359288443,361591331,,grey,ED06EC24,59,f,4,2,Immobilienkauffrau,0,0,0,0,0
Stimulus,canvas.Screen,2_42_0_1,2022-06-27T16:23:07.828Z,,,1,AV,98.66399999998976,timeout,,,361674.3999999999,361673318,361574644,361585.7000000002,361591331,361689995,,grey,ED06EC24,59,f,4,2,Immobilienkauffrau,0,0,0,0,0
Reaction,canvas.Screen,2_42_0_2,2022-06-27T16:23:07.960Z,,,1,AV,114.20500000019092,response,stim_detected,mousedown,361805.7000000002,361804.2000000002,361673318,361674.6000000001,361689995,361823459,,grey,ED06EC24,59,f,4,2,Immobilienkauffrau,0,0,0,0,0
Trial,flow.Sequence,2_42_0,2022-06-27T16:23:07.960Z,,,1,AV,2515.757000000158,completion,,,361806.1000000001,361804.2000000002,359271765,359274.8999999999,359288443,361823459,,grey,ED06EC24,59,f,4,2,Immobilienkauffrau,0,0,0,0,0
Frame,canvas.Frame,2_42,2022-06-27T16:23:07.961Z,,,1,AV,2517.757000000158,,,,361806.5,361806.2000000002,359271765,359273.8000000003,359288443,361823459,,grey,ED06EC24,59,f,4,2,Immobilienkauffrau,0,0,0,0,0
Fixation,canvas.Screen,2_43_0_0,2022-06-27T16:23:09.814Z,,,1,A,1852.5720000000438,timeout,,,363660.2000000002,363659342,361806782,361808,361823459,363676031,,black,ED06EC24,59,f,4,2,Immobilienkauffrau,0,0,0,0,0
Stimulus,canvas.Screen,2_43_0_1,2022-06-27T16:23:09.913Z,,,1,A,98.81500000000233,timeout,,,363759.1000000001,363758168,363659342,363660.5,363676031,363774846,,black,ED06EC24,59,f,4,2,Immobilienkauffrau,0,0,0,0,0
Reaction,canvas.Screen,2_43_0_2,2022-06-27T16:23:10.229Z,,,1,A,298.2540000000736,response,stim_detected,mousedown,364074.8000000003,364073.1000000001,363758168,363759.3999999999,363774846,364091696,,black,ED06EC24,59,f,4,2,Immobilienkauffrau,0,0,0,0,0
Trial,flow.Sequence,2_43_0,2022-06-27T16:23:10.229Z,,,1,A,2249.6410000001197,completion,,,364075.1000000001,364073.1000000001,361806782,361807.8999999999,361823459,364091696,,black,ED06EC24,59,f,4,2,Immobilienkauffrau,0,0,0,0,0
Frame,canvas.Frame,2_43,2022-06-27T16:23:10.230Z,,,1,A,2251.841000000306,,,,364075.3999999999,364075.3000000003,361806782,361806.7000000002,361823459,364091696,,black,ED06EC24,59,f,4,2,Immobilienkauffrau,0,0,0,0,0
Fixation,canvas.Screen,2_44_0_0,2022-06-27T16:23:12.247Z,,,0,V,2017.066999999981,timeout,,,366093.3000000003,366092092,364075019,364076.5,364091696,366108763,,grey,ED06EC24,59,f,4,2,Immobilienkauffrau,0,0,0,0,0
Stimulus,canvas.Screen,2_44_0_1,2022-06-27T16:23:12.349Z,,,0,V,101.10400000005029,timeout,,,366194.3999999999,366193189,366092092,366093.6000000001,366108763,366209867,,grey,ED06EC24,59,f,4,2,Immobilienkauffrau,0,0,0,0,0
Reaction,canvas.Screen,2_44_0_2,2022-06-27T16:23:12.761Z,,,0,V,395.1329999999725,response,stim_detected,mousedown,366606.7000000002,366605,366193189,366194.6000000001,366209867,366610035,,grey,ED06EC24,59,f,4,2,Immobilienkauffrau,0,0,0,0,0
Trial,flow.Sequence,2_44_0,2022-06-27T16:23:12.761Z,,,0,V,2513.3040000000037,completion,,,366607.1000000001,366605,364075019,364076.5,364091696,366610035,,grey,ED06EC24,59,f,4,2,Immobilienkauffrau,0,0,0,0,0
Frame,canvas.Frame,2_44,2022-06-27T16:23:12.761Z,,,0,V,2515.50400000019,,,,366607.3999999999,366607.2000000002,364075019,364075.6000000001,364091696,366610035,,grey,ED06EC24,59,f,4,2,Immobilienkauffrau,0,0,0,0,0
Fixation,canvas.Screen,2_45_0_0,2022-06-27T16:23:15.001Z,,,1,AV,2252.287000000011,timeout,,,368846.5,368845639,366593358,366608.6000000001,366610035,368862322,,grey,ED06EC24,59,f,4,2,Immobilienkauffrau,0,0,0,0,0
Stimulus,canvas.Screen,2_45_0_1,2022-06-27T16:23:15.101Z,,,1,AV,99.09200000000419,timeout,,,368946.5,368944738,368845639,368846.7000000002,368862322,368961414,,grey,ED06EC24,59,f,4,2,Immobilienkauffrau,0,0,0,0,0
Reaction,canvas.Screen,2_45_0_2,2022-06-27T16:23:15.261Z,,,1,AV,143.58600000001024,response,stim_detected,mousedown,369107.1000000001,369105,368944738,368946.7000000002,368961414,369111723,,grey,ED06EC24,59,f,4,2,Immobilienkauffrau,0,0,0,0,0
Trial,flow.Sequence,2_45_0,2022-06-27T16:23:15.262Z,,,1,AV,2494.9650000000256,completion,,,369107.5,369105,366593358,366608.5,366610035,369111723,,grey,ED06EC24,59,f,4,2,Immobilienkauffrau,0,0,0,0,0
Frame,canvas.Frame,2_45,2022-06-27T16:23:15.262Z,,,1,AV,2497.4650000000256,,,,369107.7000000002,369107.5,366593358,366607.6000000001,366610035,369111723,,grey,ED06EC24,59,f,4,2,Immobilienkauffrau,0,0,0,0,0
Fixation,canvas.Screen,2_46_0_0,2022-06-27T16:23:17.169Z,,,0,V,1918.5050000000047,timeout,,,371014.6000000001,371013546,369095046,369109,369111723,371030228,,grey,ED06EC24,59,f,4,2,Immobilienkauffrau,0,0,0,0,0
Stimulus,canvas.Screen,2_46_0_1,2022-06-27T16:23:17.268Z,,,0,V,98.96399999997811,timeout,,,371113.6000000001,371112519,371013546,371014.8000000003,371030228,371129192,,grey,ED06EC24,59,f,4,2,Immobilienkauffrau,0,0,0,0,0
Reaction,canvas.Screen,2_46_0_2,2022-06-27T16:23:17.500Z,,,0,V,214.8080000000191,response,stim_detected,mousedown,371345.7000000002,371344,371112519,371113.8000000003,371129192,371363252,,grey,ED06EC24,59,f,4,2,Immobilienkauffrau,0,0,0,0,0
Trial,flow.Sequence,2_46_0,2022-06-27T16:23:17.500Z,,,0,V,2232.277000000002,completion,,,371346,371344,369095046,369109,369111723,371363252,,grey,ED06EC24,59,f,4,2,Immobilienkauffrau,0,0,0,0,0
Frame,canvas.Frame,2_46,2022-06-27T16:23:17.500Z,,,0,V,2234.477000000188,,,,371346.3999999999,371346.2000000002,369095046,369107.8999999999,369111723,371363252,,grey,ED06EC24,59,f,4,2,Immobilienkauffrau,0,0,0,0,0
Fixation,canvas.Screen,2_47_0_0,2022-06-27T16:23:19.471Z,,,0,V,1968.4120000000112,timeout,,,373316.7000000002,373314983,371346574,371348.1000000001,371363252,373331664,,grey,ED06EC24,59,f,4,2,Immobilienkauffrau,0,0,0,0,0
Stimulus,canvas.Screen,2_47_0_1,2022-06-27T16:23:19.570Z,,,0,V,99.64100000000326,timeout,,,373416.1000000001,373414627,373314983,373316.8999999999,373331664,373431305,,grey,ED06EC24,59,f,4,2,Immobilienkauffrau,0,0,0,0,0
Reaction,canvas.Screen,2_47_0_2,2022-06-27T16:23:19.743Z,,,0,V,155.79500000010012,response,stim_detected,mousedown,373588.8000000003,373587.1000000001,373414627,373416.3000000003,373431305,373598031,,grey,ED06EC24,59,f,4,2,Immobilienkauffrau,0,0,0,0,0
Trial,flow.Sequence,2_47_0,2022-06-27T16:23:19.743Z,,,0,V,2223.8480000001146,completion,,,373589.3000000003,373587.1000000001,371346574,371348,371363252,373598031,,grey,ED06EC24,59,f,4,2,Immobilienkauffrau,0,0,0,0,0
Frame,canvas.Frame,2_47,2022-06-27T16:23:19.744Z,,,0,V,2226.1479999999283,,,,373589.6000000001,373589.3999999999,371346574,371346.6000000001,371363252,373598031,,grey,ED06EC24,59,f,4,2,Immobilienkauffrau,0,0,0,0,0
Fixation,canvas.Screen,2_48_0_0,2022-06-27T16:23:21.923Z,,,0,V,2186.3009999999776,timeout,,,375768.8000000003,375767643,373581354,373590.8000000003,373598031,375784332,,grey,ED06EC24,59,f,4,2,Immobilienkauffrau,0,0,0,0,0
Stimulus,canvas.Screen,2_48_0_1,2022-06-27T16:23:22.021Z,,,0,V,98.6359999999986,timeout,,,375866.8000000003,375865976,375767643,375769.1000000001,375784332,375882968,,grey,ED06EC24,59,f,4,2,Immobilienkauffrau,0,0,0,0,0
Reaction,canvas.Screen,2_48_0_2,2022-06-27T16:23:22.280Z,,,0,V,241.03200000000652,response,stim_detected,mousedown,376126,376124,375865976,375867.1000000001,375882968,376133138,,grey,ED06EC24,59,f,4,2,Immobilienkauffrau,0,0,0,0,0
Trial,flow.Sequence,2_48_0,2022-06-27T16:23:22.280Z,,,0,V,2525.9689999999828,completion,,,376126.3999999999,376124,373581354,373590.7000000002,373598031,376133138,,grey,ED06EC24,59,f,4,2,Immobilienkauffrau,0,0,0,0,0
Frame,canvas.Frame,2_48,2022-06-27T16:23:22.281Z,,,0,V,2528.4689999999828,,,,376126.7000000002,376126.5,373581354,373589.8999999999,373598031,376133138,,grey,ED06EC24,59,f,4,2,Immobilienkauffrau,0,0,0,0,0
Fixation,canvas.Screen,2_49_0_0,2022-06-27T16:23:24.757Z,,,1,AV,2485.2060000000056,timeout,,,378603,378601665,376116.46,376127.8999999999,376133138,378618344,,grey,ED06EC24,59,f,4,2,Immobilienkauffrau,0,0,0,0,0
Stimulus,canvas.Screen,2_49_0_1,2022-06-27T16:23:24.857Z,,,1,AV,99.67999999999302,timeout,,,378703.1000000001,378701348,378601665,378603.1000000001,378618344,378718024,,grey,ED06EC24,59,f,4,2,Immobilienkauffrau,0,0,0,0,0
Reaction,canvas.Screen,2_49_0_2,2022-06-27T16:23:24.987Z,,,1,AV,112.87599999993108,response,stim_detected,mousedown,378832.6000000001,378830.8999999999,378701348,378703.3999999999,378718024,378834949,,grey,ED06EC24,59,f,4,2,Immobilienkauffrau,0,0,0,0,0
Trial,flow.Sequence,2_49_0,2022-06-27T16:23:24.987Z,,,1,AV,2697.7619999999297,completion,,,378833,378830.8999999999,376116.46,376127.8000000003,376133138,378834949,,grey,ED06EC24,59,f,4,2,Immobilienkauffrau,0,0,0,0,0
Frame,canvas.Frame,2_49,2022-06-27T16:23:24.987Z,,,1,AV,2699.962000000116,,,,378833.3000000003,378833.1000000001,376116.46,376126.8999999999,376133138,378834949,,grey,ED06EC24,59,f,4,2,Immobilienkauffrau,0,0,0,0,0
Fixation,canvas.Screen,2_50_0_0,2022-06-27T16:23:26.575Z,,,1,A,1601.1879999999655,timeout,,,380421,380419458,378818272,378834.3999999999,378834949,380436137,,black,ED06EC24,59,f,4,2,Immobilienkauffrau,0,0,0,0,0
Stimulus,canvas.Screen,2_50_0_1,2022-06-27T16:23:26.674Z,,,1,A,99.96000000002095,timeout,,,380520.1000000001,380518851,380419458,380421.3000000003,380436137,380536097,,black,ED06EC24,59,f,4,2,Immobilienkauffrau,0,0,0,0,0
Reaction,canvas.Screen,2_50_0_2,2022-06-27T16:23:26.905Z,,,1,A,212.90299999999115,response,stim_detected,mousedown,380750.6000000001,380749,380518851,380520.3999999999,380536097,380752911,,black,ED06EC24,59,f,4,2,Immobilienkauffrau,0,0,0,0,0
Trial,flow.Sequence,2_50_0,2022-06-27T16:23:26.905Z,,,1,A,1914.0509999999776,completion,,,380751,380749,378818272,378834.3999999999,378834949,380752911,,black,ED06EC24,59,f,4,2,Immobilienkauffrau,0,0,0,0,0
Frame,canvas.Frame,2_50,2022-06-27T16:23:26.905Z,,,1,A,1916.1510000000708,,,,380751.3000000003,380751.1000000001,378818272,378833.6000000001,378834949,380752911,,black,ED06EC24,59,f,4,2,Immobilienkauffrau,0,0,0,0,0
Fixation,canvas.Screen,2_51_0_0,2022-06-27T16:23:28.976Z,,,1,AV,2085.036999999953,timeout,,,382822.1000000001,382821268,380736233,380752.5,380752911,382837948,,grey,ED06EC24,59,f,4,2,Immobilienkauffrau,0,0,0,0,0
Stimulus,canvas.Screen,2_51_0_1,2022-06-27T16:23:29.077Z,,,1,AV,99.73300000000745,timeout,,,382922.7000000002,382921004,382821268,382822.3999999999,382837948,382937681,,grey,ED06EC24,59,f,4,2,Immobilienkauffrau,0,0,0,0,0
Reaction,canvas.Screen,2_51_0_2,2022-06-27T16:23:29.201Z,,,1,AV,107.41900000011083,response,stim_detected,mousedown,383046.8000000003,383045.1000000001,382921004,382922.8999999999,382937681,383054.46,,grey,ED06EC24,59,f,4,2,Immobilienkauffrau,0,0,0,0,0
Trial,flow.Sequence,2_51_0,2022-06-27T16:23:29.201Z,,,1,AV,2292.1890000000712,completion,,,383047.1000000001,383045.1000000001,380736233,380752.3000000003,380752911,383054.46,,grey,ED06EC24,59,f,4,2,Immobilienkauffrau,0,0,0,0,0
Frame,canvas.Frame,2_51,2022-06-27T16:23:29.201Z,,,1,AV,2294.2890000001644,,,,383047.3000000003,383047.2000000002,380736233,380751.3999999999,380752911,383054.46,,grey,ED06EC24,59,f,4,2,Immobilienkauffrau,0,0,0,0,0
Fixation,canvas.Screen,2_52_0_0,2022-06-27T16:23:31.478Z,,,1,A,2285.487999999954,timeout,,,385324.3000000003,385323266,383037783,383048.7000000002,383054.46,385339948,,black,ED06EC24,59,f,4,2,Immobilienkauffrau,0,0,0,0,0
Stimulus,canvas.Screen,2_52_0_1,2022-06-27T16:23:31.578Z,,,1,A,98.54100000002654,timeout,,,385424,385421818,385323266,385324.5,385339948,385438489,,black,ED06EC24,59,f,4,2,Immobilienkauffrau,0,0,0,0,0
Reaction,canvas.Screen,2_52_0_2,2022-06-27T16:23:31.720Z,,,1,A,125.41099999990547,response,stim_detected,mousedown,385565.5,385563.8999999999,385421818,385424.2000000002,385438489,385572799,,black,ED06EC24,59,f,4,2,Immobilienkauffrau,0,0,0,0,0
Trial,flow.Sequence,2_52_0,2022-06-27T16:23:31.720Z,,,1,A,2509.439999999886,completion,,,385565.8000000003,385563.8999999999,383037783,383048.6000000001,383054.46,385572799,,black,ED06EC24,59,f,4,2,Immobilienkauffrau,0,0,0,0,0
Frame,canvas.Frame,2_52,2022-06-27T16:23:31.720Z,,,1,A,2511.539999999979,,,,385566.1000000001,385566,383037783,383047.5,383054.46,385572799,,black,ED06EC24,59,f,4,2,Immobilienkauffrau,0,0,0,0,0
Fixation,canvas.Screen,2_53_0_0,2022-06-27T16:23:33.513Z,,,0,V,1801.234999999986,timeout,,,387358.6000000001,387357356,385556122,385567.3000000003,385572799,387374034,,grey,ED06EC24,59,f,4,2,Immobilienkauffrau,0,0,0,0,0
Stimulus,canvas.Screen,2_53_0_1,2022-06-27T16:23:33.612Z,,,0,V,100.12599999998929,timeout,,,387458.3999999999,387457481,387357356,387358.8000000003,387374034,387474.16,,grey,ED06EC24,59,f,4,2,Immobilienkauffrau,0,0,0,0,0
Reaction,canvas.Screen,2_53_0_2,2022-06-27T16:23:33.784Z,,,0,V,154.04000000021188,response,stim_detected,mousedown,387630.1000000001,387628.2000000002,387457481,387458.6000000001,387474.16,387640883,,grey,ED06EC24,59,f,4,2,Immobilienkauffrau,0,0,0,0,0
Trial,flow.Sequence,2_53_0,2022-06-27T16:23:33.785Z,,,0,V,2055.401000000187,completion,,,387630.3999999999,387628.2000000002,385556122,385567.2000000002,385572799,387640883,,grey,ED06EC24,59,f,4,2,Immobilienkauffrau,0,0,0,0,0
Frame,canvas.Frame,2_53,2022-06-27T16:23:33.785Z,,,0,V,2057.701000000001,,,,387630.8000000003,387630.5,385556122,385566.3999999999,385572799,387640883,,grey,ED06EC24,59,f,4,2,Immobilienkauffrau,0,0,0,0,0
Fixation,canvas.Screen,2_54_0_0,2022-06-27T16:23:35.531Z,,,1,A,1750.9700000000303,timeout,,,389376.5,389375177,387624206,387631.8999999999,387640883,389391853,,black,ED06EC24,59,f,4,2,Immobilienkauffrau,0,0,0,0,0
Stimulus,canvas.Screen,2_54_0_1,2022-06-27T16:23:35.631Z,,,1,A,100.24099999997998,timeout,,,389476.5,389475417,389375177,389376.8999999999,389391853,389492094,,black,ED06EC24,59,f,4,2,Immobilienkauffrau,0,0,0,0,0
Reaction,canvas.Screen,2_54_0_2,2022-06-27T16:23:35.806Z,,,1,A,157.90600000001723,response,stim_detected,mousedown,389651.6000000001,389650,389475417,389476.7000000002,389492094,389658899,,black,ED06EC24,59,f,4,2,Immobilienkauffrau,0,0,0,0,0
Trial,flow.Sequence,2_54_0,2022-06-27T16:23:35.806Z,,,1,A,2009.1170000000275,completion,,,389652,389650,387624206,387631.8999999999,387640883,389658899,,black,ED06EC24,59,f,4,2,Immobilienkauffrau,0,0,0,0,0
Frame,canvas.Frame,2_54,2022-06-27T16:23:35.806Z,,,1,A,2011.2170000001206,,,,389652.3000000003,389652.1000000001,387624206,387631,387640883,389658899,,black,ED06EC24,59,f,4,2,Immobilienkauffrau,0,0,0,0,0
Fixation,canvas.Screen,2_55_0_0,2022-06-27T16:23:37.448Z,,,1,A,1650.4650000000256,timeout,,,391293.6000000001,391292692,389642222,389653.3999999999,389658899,391309364,,black,ED06EC24,59,f,4,2,Immobilienkauffrau,0,0,0,0,0
Stimulus,canvas.Screen,2_55_0_1,2022-06-27T16:23:37.549Z,,,1,A,100.7609999999986,timeout,,,391394.6000000001,391393447,391292692,391293.8000000003,391309364,391410125,,black,ED06EC24,59,f,4,2,Immobilienkauffrau,0,0,0,0,0
Reaction,canvas.Screen,2_55_0_2,2022-06-27T16:23:37.727Z,,,1,A,160.77499999990687,response,stim_detected,mousedown,391572.6000000001,391570.8999999999,391393447,391394.8000000003,391410125,391576822,,black,ED06EC24,59,f,4,2,Immobilienkauffrau,0,0,0,0,0
Trial,flow.Sequence,2_55_0,2022-06-27T16:23:37.727Z,,,1,A,1912.000999999931,completion,,,391573,391570.8999999999,389642222,389653.3000000003,389658899,391576822,,black,ED06EC24,59,f,4,2,Immobilienkauffrau,0,0,0,0,0
Frame,canvas.Frame,2_55,2022-06-27T16:23:37.727Z,,,1,A,1914.2010000001173,,,,391573.2000000002,391573.1000000001,389642222,389652.3999999999,389658899,391576822,,black,ED06EC24,59,f,4,2,Immobilienkauffrau,0,0,0,0,0
Fixation,canvas.Screen,2_56_0_0,2022-06-27T16:23:39.803Z,,,0,V,2085.847000000009,timeout,,,393648.3999999999,393645983,391560145,391574.3999999999,391576822,393662669,,grey,ED06EC24,59,f,4,2,Immobilienkauffrau,0,0,0,0,0
Stimulus,canvas.Screen,2_56_0_1,2022-06-27T16:23:39.900Z,,,0,V,98.90799999999581,timeout,,,393745.8000000003,393744.9,393645983,393648.7000000002,393662669,393761577,,grey,ED06EC24,59,f,4,2,Immobilienkauffrau,0,0,0,0,0
Reaction,canvas.Screen,2_56_0_2,2022-06-27T16:23:40.078Z,,,0,V,160.32299999991665,response,stim_detected,mousedown,393923.6000000001,393921.8999999999,393744.9,393746.1000000001,393761577,393945097,,grey,ED06EC24,59,f,4,2,Immobilienkauffrau,0,0,0,0,0
Trial,flow.Sequence,2_56_0,2022-06-27T16:23:40.078Z,,,0,V,2345.0779999999213,completion,,,393924,393921.8999999999,391560145,391574.3000000003,391576822,393945097,,grey,ED06EC24,59,f,4,2,Immobilienkauffrau,0,0,0,0,0
Frame,canvas.Frame,2_56,2022-06-27T16:23:40.078Z,,,0,V,2347.2780000001076,,,,393924.3000000003,393924.1000000001,391560145,391573.3999999999,391576822,393945097,,grey,ED06EC24,59,f,4,2,Immobilienkauffrau,0,0,0,0,0
Fixation,canvas.Screen,2_57_0_0,2022-06-27T16:23:41.985Z,,,1,A,1900.926999999967,timeout,,,395831.1000000001,395829349,393911743,393925.3999999999,393945097,395846024,,black,ED06EC24,59,f,4,2,Immobilienkauffrau,0,0,0,0,0
Stimulus,canvas.Screen,2_57_0_1,2022-06-27T16:23:42.085Z,,,1,A,100.48800000001211,timeout,,,395930.8999999999,395929834,395829349,395831.3999999999,395846024,395946512,,black,ED06EC24,59,f,4,2,Immobilienkauffrau,0,0,0,0,0
Reaction,canvas.Screen,2_57_0_2,2022-06-27T16:23:42.256Z,,,1,A,153.38799999991897,response,stim_detected,mousedown,396101.5,396099.8999999999,395929834,395931.1000000001,395946512,396113247,,black,ED06EC24,59,f,4,2,Immobilienkauffrau,0,0,0,0,0
Trial,flow.Sequence,2_57_0,2022-06-27T16:23:42.256Z,,,1,A,2154.802999999898,completion,,,396102,396099.8999999999,393911743,393925.3999999999,393945097,396113247,,black,ED06EC24,59,f,4,2,Immobilienkauffrau,0,0,0,0,0
Frame,canvas.Frame,2_57,2022-06-27T16:23:42.256Z,,,1,A,2157.0030000000843,,,,396102.2000000002,396102.1000000001,393911743,393924.5,393945097,396113247,,black,ED06EC24,59,f,4,2,Immobilienkauffrau,0,0,0,0,0
Fixation,canvas.Screen,2_58_0_0,2022-06-27T16:23:43.836Z,,,0,V,1583.9780000000028,timeout,,,397681.8999999999,397680551,396096569,396103.3000000003,396113247,397697225,,grey,ED06EC24,59,f,4,2,Immobilienkauffrau,0,0,0,0,0
Stimulus,canvas.Screen,2_58_0_1,2022-06-27T16:23:43.936Z,,,0,V,100.52900000003865,timeout,,,397781.8999999999,397781076,397680551,397682.2000000002,397697225,397797754,,grey,ED06EC24,59,f,4,2,Immobilienkauffrau,0,0,0,0,0
Reaction,canvas.Screen,2_58_0_2,2022-06-27T16:23:44.086Z,,,0,V,132.1459999998915,response,stim_detected,mousedown,397931.6000000001,397929.8999999999,397781076,397782.2000000002,397797754,397947819,,grey,ED06EC24,59,f,4,2,Immobilienkauffrau,0,0,0,0,0
Trial,flow.Sequence,2_58_0,2022-06-27T16:23:44.086Z,,,0,V,1816.652999999933,completion,,,397932,397929.8999999999,396096569,396103.3000000003,396113247,397947819,,grey,ED06EC24,59,f,4,2,Immobilienkauffrau,0,0,0,0,0
Frame,canvas.Frame,2_58,2022-06-27T16:23:44.086Z,,,0,V,1818.8530000001192,,,,397932.3000000003,397932.1000000001,396096569,396102.3999999999,396113247,397947819,,grey,ED06EC24,59,f,4,2,Immobilienkauffrau,0,0,0,0,0
Fixation,canvas.Screen,2_59_0_0,2022-06-27T16:23:45.654Z,,,0,V,1567.7330000000075,timeout,,,399500.1000000001,399498874,397931141,397933.5,397947819,399515552,,grey,ED06EC24,59,f,4,2,Immobilienkauffrau,0,0,0,0,0
Stimulus,canvas.Screen,2_59_0_1,2022-06-27T16:23:45.754Z,,,0,V,99.88399999996182,timeout,,,399600,399598.76,399498874,399500.3000000003,399515552,399615436,,grey,ED06EC24,59,f,4,2,Immobilienkauffrau,0,0,0,0,0
Reaction,canvas.Screen,2_59_0_2,2022-06-27T16:23:45.935Z,,,0,V,163.4639999999199,response,stim_detected,mousedown,399780.6000000001,399778.8999999999,399598.76,399600.3000000003,399615436,399782391,,grey,ED06EC24,59,f,4,2,Immobilienkauffrau,0,0,0,0,0
Trial,flow.Sequence,2_59_0,2022-06-27T16:23:45.935Z,,,0,V,1831.0809999998892,completion,,,399781,399778.8999999999,397931141,397933.3999999999,397947819,399782391,,grey,ED06EC24,59,f,4,2,Immobilienkauffrau,0,0,0,0,0
Frame,canvas.Frame,2_59,2022-06-27T16:23:45.935Z,,,0,V,1833.2810000000754,,,,399781.2000000002,399781.1000000001,397931141,397932.5,397947819,399782391,,grey,ED06EC24,59,f,4,2,Immobilienkauffrau,0,0,0,0,0
Fixation,canvas.Screen,2_60_0_0,2022-06-27T16:23:48.089Z,,,1,AV,2168.0079999999725,timeout,,,401935.2000000002,401933722,399765713,399782.3999999999,399782391,401950399,,grey,ED06EC24,59,f,4,2,Immobilienkauffrau,0,0,0,0,0
Stimulus,canvas.Screen,2_60_0_1,2022-06-27T16:23:48.189Z,,,1,AV,100.07900000002701,timeout,,,402035.2000000002,402033801,401933722,401935.3999999999,401950399,402050478,,grey,ED06EC24,59,f,4,2,Immobilienkauffrau,0,0,0,0,0
Reaction,canvas.Screen,2_60_0_2,2022-06-27T16:23:48.350Z,,,1,AV,144.22200000018347,response,stim_detected,mousedown,402196.3999999999,402194.7000000002,402033801,402035.3999999999,402050478,402200678,,grey,ED06EC24,59,f,4,2,Immobilienkauffrau,0,0,0,0,0
Trial,flow.Sequence,2_60_0,2022-06-27T16:23:48.351Z,,,1,AV,2412.309000000183,completion,,,402196.7000000002,402194.7000000002,399765713,399782.3000000003,399782391,402200678,,grey,ED06EC24,59,f,4,2,Immobilienkauffrau,0,0,0,0,0
Frame,canvas.Frame,2_60,2022-06-27T16:23:48.351Z,,,1,AV,2414.5089999999036,,,,402197.1000000001,402196.8999999999,399765713,399781.3999999999,399782391,402200678,,grey,ED06EC24,59,f,4,2,Immobilienkauffrau,0,0,0,0,0
Fixation,canvas.Screen,2_61_0_0,2022-06-27T16:23:50.274Z,,,1,A,1934.664999999979,timeout,,,404120.3000000003,404118665,402184001,402198.3000000003,402200678,404135343,,black,ED06EC24,59,f,4,2,Immobilienkauffrau,0,0,0,0,0
Stimulus,canvas.Screen,2_61_0_1,2022-06-27T16:23:50.374Z,,,1,A,100.01900000002934,timeout,,,404220.3000000003,404218562,404118665,404120.5,404135343,404235362,,black,ED06EC24,59,f,4,2,Immobilienkauffrau,0,0,0,0,0
Reaction,canvas.Screen,2_61_0_2,2022-06-27T16:23:50.553Z,,,1,A,161.53799999988405,response,stim_detected,mousedown,404398.6000000001,404396.8999999999,404218562,404220.6000000001,404235362,404402132,,black,ED06EC24,59,f,4,2,Immobilienkauffrau,0,0,0,0,0
Trial,flow.Sequence,2_61_0,2022-06-27T16:23:50.553Z,,,1,A,2196.2219999998924,completion,,,404399,404396.8999999999,402184001,402198.2000000002,402200678,404402132,,black,ED06EC24,59,f,4,2,Immobilienkauffrau,0,0,0,0,0
Frame,canvas.Frame,2_61,2022-06-27T16:23:50.553Z,,,1,A,2198.522000000172,,,,404399.2000000002,404399.2000000002,402184001,402197.3000000003,402200678,404402132,,black,ED06EC24,59,f,4,2,Immobilienkauffrau,0,0,0,0,0
Fixation,canvas.Screen,2_62_0_0,2022-06-27T16:23:52.860Z,,,1,A,2318.850000000035,timeout,,,406705.6000000001,406704.3,404385455,404400.3000000003,404402132,406720982,,black,ED06EC24,59,f,4,2,Immobilienkauffrau,0,0,0,0,0
Stimulus,canvas.Screen,2_62_0_1,2022-06-27T16:23:52.960Z,,,1,A,99.46799999999348,timeout,,,406805.7000000002,406803732,406704.3,406705.8999999999,406720982,406820.45,,black,ED06EC24,59,f,4,2,Immobilienkauffrau,0,0,0,0,0
Reaction,canvas.Screen,2_62_0_2,2022-06-27T16:23:53.172Z,,,1,A,195.44999999989523,response,stim_detected,mousedown,407017.5,407015.8999999999,406803732,406806,406820.45,407037251,,black,ED06EC24,59,f,4,2,Immobilienkauffrau,0,0,0,0,0
Trial,flow.Sequence,2_62_0,2022-06-27T16:23:53.172Z,,,1,A,2613.7679999999236,completion,,,407018,407015.8999999999,404385455,404400.3000000003,404402132,407037251,,black,ED06EC24,59,f,4,2,Immobilienkauffrau,0,0,0,0,0
Frame,canvas.Frame,2_62,2022-06-27T16:23:53.172Z,,,1,A,2615.96800000011,,,,407018.3000000003,407018.1000000001,404385455,404399.3999999999,404402132,407037251,,black,ED06EC24,59,f,4,2,Immobilienkauffrau,0,0,0,0,0
Fixation,canvas.Screen,2_63_0_0,2022-06-27T16:23:55.327Z,,,0,V,2150.896000000008,timeout,,,409172.6000000001,409171473,407003897,407019.3999999999,407037251,409188147,,grey,ED06EC24,59,f,4,2,Immobilienkauffrau,0,0,0,0,0
Stimulus,canvas.Screen,2_63_0_1,2022-06-27T16:23:55.428Z,,,0,V,100.63300000003073,timeout,,,409273.8000000003,409272102,409171473,409172.8999999999,409188147,409288.78,,grey,ED06EC24,59,f,4,2,Immobilienkauffrau,0,0,0,0,0
Reaction,canvas.Screen,2_63_0_2,2022-06-27T16:23:55.639Z,,,0,V,194.11999999987893,response,stim_detected,mousedown,409484.6000000001,409482.8999999999,409272102,409274,409288.78,409488868,,grey,ED06EC24,59,f,4,2,Immobilienkauffrau,0,0,0,0,0
Trial,flow.Sequence,2_63_0,2022-06-27T16:23:55.639Z,,,0,V,2445.6489999999176,completion,,,409485,409482.8999999999,407003897,407019.3000000003,407037251,409488868,,grey,ED06EC24,59,f,4,2,Immobilienkauffrau,0,0,0,0,0
Frame,canvas.Frame,2_63,2022-06-27T16:23:55.639Z,,,0,V,2447.849000000104,,,,409485.3000000003,409485.1000000001,407003897,407018.5,407037251,409488868,,grey,ED06EC24,59,f,4,2,Immobilienkauffrau,0,0,0,0,0
Fixation,canvas.Screen,2_64_0_0,2022-06-27T16:23:57.480Z,,,0,V,1852.3589999999967,timeout,,,411325.6000000001,411324.54,409472191,409486.5,409488868,411341227,,grey,ED06EC24,59,f,4,2,Immobilienkauffrau,0,0,0,0,0
Stimulus,canvas.Screen,2_64_0_1,2022-06-27T16:23:57.579Z,,,0,V,98.70499999995809,timeout,,,411424.6000000001,411423257,411324.54,411325.8000000003,411341227,411439932,,grey,ED06EC24,59,f,4,2,Immobilienkauffrau,0,0,0,0,0
Reaction,canvas.Screen,2_64_0_2,2022-06-27T16:23:57.772Z,,,0,V,175.96799999993527,response,stim_detected,mousedown,411617.5,411615.8999999999,411423257,411424.8999999999,411439932,411623703,,grey,ED06EC24,59,f,4,2,Immobilienkauffrau,0,0,0,0,0
Trial,flow.Sequence,2_64_0,2022-06-27T16:23:57.772Z,,,0,V,2127.03199999989,completion,,,411618,411615.8999999999,409472191,409486.3999999999,409488868,411623703,,grey,ED06EC24,59,f,4,2,Immobilienkauffrau,0,0,0,0,0
Frame,canvas.Frame,2_64,2022-06-27T16:23:57.772Z,,,0,V,2129.2320000000764,,,,411618.3999999999,411618.1000000001,409472191,409485.5,409488868,411623703,,grey,ED06EC24,59,f,4,2,Immobilienkauffrau,0,0,0,0,0
Fixation,canvas.Screen,2_65_0_0,2022-06-27T16:23:59.597Z,,,1,A,1834.091000000015,timeout,,,413442.8000000003,413441.12,411607025,411619.8000000003,411623703,413457794,,black,ED06EC24,59,f,4,2,Immobilienkauffrau,0,0,0,0,0
Stimulus,canvas.Screen,2_65_0_1,2022-06-27T16:23:59.697Z,,,1,A,100.54200000001583,timeout,,,413542.7000000002,413541658,413441.12,413443,413457794,413558336,,black,ED06EC24,59,f,4,2,Immobilienkauffrau,0,0,0,0,0
Reaction,canvas.Screen,2_65_0_2,2022-06-27T16:23:59.883Z,,,1,A,168.46400000026915,response,stim_detected,mousedown,413728.8999999999,413726.8000000003,413541658,413543.1000000001,413558336,413741762,,black,ED06EC24,59,f,4,2,Immobilienkauffrau,0,0,0,0,0
Trial,flow.Sequence,2_65_0,2022-06-27T16:23:59.883Z,,,1,A,2103.0970000003,completion,,,413729.3999999999,413726.8000000003,411607025,411619.7000000002,411623703,413741762,,black,ED06EC24,59,f,4,2,Immobilienkauffrau,0,0,0,0,0
Frame,canvas.Frame,2_65,2022-06-27T16:23:59.884Z,,,1,A,2105.6969999999274,,,,413729.6000000001,413729.3999999999,411607025,411618.5,411623703,413741762,,black,ED06EC24,59,f,4,2,Immobilienkauffrau,0,0,0,0,0
Fixation,canvas.Screen,2_66_0_0,2022-06-27T16:24:02.116Z,,,1,A,2235.597999999998,timeout,,,415962.1000000001,415960677,413725085,413730.7000000002,413741762,415977.36,,black,ED06EC24,59,f,4,2,Immobilienkauffrau,0,0,0,0,0
Stimulus,canvas.Screen,2_66_0_1,2022-06-27T16:24:02.215Z,,,1,A,99.32099999999627,timeout,,,416061.1000000001,416059916,415960677,415962.3999999999,415977.36,416076681,,black,ED06EC24,59,f,4,2,Immobilienkauffrau,0,0,0,0,0
Reaction,canvas.Screen,2_66_0_2,2022-06-27T16:24:02.349Z,,,1,A,116.11900000029709,response,stim_detected,mousedown,416195.3000000003,416192.8000000003,416059916,416061.3000000003,416076681,416210097,,black,ED06EC24,59,f,4,2,Immobilienkauffrau,0,0,0,0,0
Trial,flow.Sequence,2_66_0,2022-06-27T16:24:02.350Z,,,1,A,2451.0380000002915,completion,,,416195.6000000001,416192.8000000003,413725085,413730.7000000002,413741762,416210097,,black,ED06EC24,59,f,4,2,Immobilienkauffrau,0,0,0,0,0
Frame,canvas.Frame,2_66,2022-06-27T16:24:02.350Z,,,1,A,2453.9380000001984,,,,416195.8999999999,416195.7000000002,413725085,413729.7000000002,413741762,416210097,,black,ED06EC24,59,f,4,2,Immobilienkauffrau,0,0,0,0,0
Fixation,canvas.Screen,2_67_0_0,2022-06-27T16:24:04.650Z,,,1,AV,2301.433000000019,timeout,,,418496.2000000002,418494853,416193.42,416197.2000000002,416210097,418511.53,,grey,ED06EC24,59,f,4,2,Immobilienkauffrau,0,0,0,0,0
Stimulus,canvas.Screen,2_67_0_1,2022-06-27T16:24:04.750Z,,,1,AV,100.01399999996647,timeout,,,418596.2000000002,418594868,418494853,418496.3999999999,418511.53,418611544,,grey,ED06EC24,59,f,4,2,Immobilienkauffrau,0,0,0,0,0
Reaction,canvas.Screen,2_67_0_2,2022-06-27T16:24:04.884Z,,,1,AV,116.15600000019185,response,stim_detected,mousedown,418729.8000000003,418727.7000000002,418594868,418596.5,418611544,418745139,,grey,ED06EC24,59,f,4,2,Immobilienkauffrau,0,0,0,0,0
Trial,flow.Sequence,2_67_0,2022-06-27T16:24:04.884Z,,,1,AV,2517.6030000001774,completion,,,418730.3999999999,418727.7000000002,416193.42,416197.1000000001,416210097,418745139,,grey,ED06EC24,59,f,4,2,Immobilienkauffrau,0,0,0,0,0
Frame,canvas.Frame,2_67,2022-06-27T16:24:04.885Z,,,1,AV,2520.402999999991,,,,418730.7000000002,418730.5,416193.42,416196.1000000001,416210097,418745139,,grey,ED06EC24,59,f,4,2,Immobilienkauffrau,0,0,0,0,0
Fixation,canvas.Screen,2_68_0_0,2022-06-27T16:24:07.084Z,,,0,V,2200.5069999999832,timeout,,,420930.2000000002,420928975,418728462,418731.8000000003,418745139,420945646,,grey,ED06EC24,59,f,4,2,Immobilienkauffrau,0,0,0,0,0
Stimulus,canvas.Screen,2_68_0_1,2022-06-27T16:24:07.185Z,,,0,V,101.12699999997858,timeout,,,421031.2000000002,421030093,420928975,420930.6000000001,420945646,421046773,,grey,ED06EC24,59,f,4,2,Immobilienkauffrau,0,0,0,0,0
Reaction,canvas.Screen,2_68_0_2,2022-06-27T16:24:07.350Z,,,0,V,146.92700000019977,response,stim_detected,mousedown,421195.3999999999,421193.7000000002,421030093,421031.3999999999,421046773,421213441,,grey,ED06EC24,59,f,4,2,Immobilienkauffrau,0,0,0,0,0
Trial,flow.Sequence,2_68_0,2022-06-27T16:24:07.350Z,,,0,V,2448.5610000001616,completion,,,421195.8000000003,421193.7000000002,418728462,418731.7000000002,418745139,421213441,,grey,ED06EC24,59,f,4,2,Immobilienkauffrau,0,0,0,0,0
Frame,canvas.Frame,2_68,2022-06-27T16:24:07.350Z,,,0,V,2450.8609999999753,,,,421196.2000000002,421196,418728462,418730.8000000003,418745139,421213441,,grey,ED06EC24,59,f,4,2,Immobilienkauffrau,0,0,0,0,0
Fixation,canvas.Screen,2_69_0_0,2022-06-27T16:24:09.688Z,,,1,A,2335.945000000007,timeout,,,423534.3000000003,423532701,421196764,421197.3999999999,421213441,423549386,,black,ED06EC24,59,f,4,2,Immobilienkauffrau,0,0,0,0,0
Stimulus,canvas.Screen,2_69_0_1,2022-06-27T16:24:09.787Z,,,1,A,99.02000000001863,timeout,,,423632.5,423631343,423532701,423534.5,423549386,423648406,,black,ED06EC24,59,f,4,2,Immobilienkauffrau,0,0,0,0,0
Reaction,canvas.Screen,2_69_0_2,2022-06-27T16:24:09.931Z,,,1,A,126.39400000026217,response,stim_detected,mousedown,423776.6000000001,423774.8000000003,423631343,423632.8000000003,423648406,423781822,,black,ED06EC24,59,f,4,2,Immobilienkauffrau,0,0,0,0,0
Trial,flow.Sequence,2_69_0,2022-06-27T16:24:09.931Z,,,1,A,2561.359000000288,completion,,,423776.8999999999,423774.8000000003,421196764,421197.2000000002,421213441,423781822,,black,ED06EC24,59,f,4,2,Immobilienkauffrau,0,0,0,0,0
Frame,canvas.Frame,2_69,2022-06-27T16:24:09.931Z,,,1,A,2563.5590000000084,,,,423777.2000000002,423777,421196764,421196.3000000003,421213441,423781822,,black,ED06EC24,59,f,4,2,Immobilienkauffrau,0,0,0,0,0
Fixation,canvas.Screen,2_70_0_0,2022-06-27T16:24:12.056Z,,,0,V,2136.0659999999916,timeout,,,425902.3999999999,425901201,423765145,423778.6000000001,423781822,425917888,,grey,ED06EC24,59,f,4,2,Immobilienkauffrau,0,0,0,0,0
Stimulus,canvas.Screen,2_70_0_1,2022-06-27T16:24:12.156Z,,,0,V,98.66200000001118,timeout,,,426001.3999999999,425999874,425901201,425902.6000000001,425917888,426016.55,,grey,ED06EC24,59,f,4,2,Immobilienkauffrau,0,0,0,0,0
Reaction,canvas.Screen,2_70_0_2,2022-06-27T16:24:12.322Z,,,0,V,149.1500000001979,response,stim_detected,mousedown,426167.3999999999,426165.7000000002,425999874,426001.6000000001,426016.55,426183477,,grey,ED06EC24,59,f,4,2,Immobilienkauffrau,0,0,0,0,0
Trial,flow.Sequence,2_70_0,2022-06-27T16:24:12.323Z,,,0,V,2383.8780000002007,completion,,,426167.8999999999,426165.7000000002,423765145,423778.3999999999,423781822,426183477,,grey,ED06EC24,59,f,4,2,Immobilienkauffrau,0,0,0,0,0
Frame,canvas.Frame,2_70,2022-06-27T16:24:12.323Z,,,0,V,2386.1780000000144,,,,426168.2000000002,426168,423765145,423777.3999999999,423781822,426183477,,grey,ED06EC24,59,f,4,2,Immobilienkauffrau,0,0,0,0,0
Fixation,canvas.Screen,2_71_0_0,2022-06-27T16:24:14.724Z,,,1,A,2401.4899999999907,timeout,,,428569.5,428568.29,426166.8,426169.7000000002,426183477,428584967,,black,ED06EC24,59,f,4,2,Immobilienkauffrau,0,0,0,0,0
Stimulus,canvas.Screen,2_71_0_1,2022-06-27T16:24:14.824Z,,,1,A,100.15000000002328,timeout,,,428669.5,428668.44,428568.29,428569.7000000002,428584967,428685117,,black,ED06EC24,59,f,4,2,Immobilienkauffrau,0,0,0,0,0
Reaction,canvas.Screen,2_71_0_2,2022-06-27T16:24:14.944Z,,,1,A,102.58300000015879,response,stim_detected,mousedown,428789.3999999999,428787.7000000002,428668.44,428669.8000000003,428685117,428801.9,,black,ED06EC24,59,f,4,2,Immobilienkauffrau,0,0,0,0,0
Trial,flow.Sequence,2_71_0,2022-06-27T16:24:14.945Z,,,1,A,2604.2230000001728,completion,,,428789.8000000003,428787.7000000002,426166.8,426169.5,426183477,428801.9,,black,ED06EC24,59,f,4,2,Immobilienkauffrau,0,0,0,0,0
Frame,canvas.Frame,2_71,2022-06-27T16:24:14.945Z,,,1,A,2606.4229999998934,,,,428790.1000000001,428789.8999999999,426166.8,426168.5,426183477,428801.9,,black,ED06EC24,59,f,4,2,Immobilienkauffrau,0,0,0,0,0
Fixation,canvas.Screen,2_72_0_0,2022-06-27T16:24:17.209Z,,,0,V,2267.4919999999693,timeout,,,431053.8999999999,431052719,428785223,428791.3999999999,428801.9,431069392,,grey,ED06EC24,59,f,4,2,Immobilienkauffrau,0,0,0,0,0
Stimulus,canvas.Screen,2_72_0_1,2022-06-27T16:24:17.310Z,,,0,V,100.83699999999953,timeout,,,431154.8999999999,431153551,431052719,431054.2000000002,431069392,431170229,,grey,ED06EC24,59,f,4,2,Immobilienkauffrau,0,0,0,0,0
Reaction,canvas.Screen,2_72_0_2,2022-06-27T16:24:17.487Z,,,0,V,160.47100000019418,response,stim_detected,mousedown,431332.3999999999,431330.7000000002,431153551,431155,431170229,431336933,,grey,ED06EC24,59,f,4,2,Immobilienkauffrau,0,0,0,0,0
Trial,flow.Sequence,2_72_0,2022-06-27T16:24:17.488Z,,,0,V,2528.800000000163,completion,,,431332.8999999999,431330.7000000002,428785223,428791.3999999999,428801.9,431336933,,grey,ED06EC24,59,f,4,2,Immobilienkauffrau,0,0,0,0,0
Frame,canvas.Frame,2_72,2022-06-27T16:24:17.488Z,,,0,V,2530.9999999998836,,,,431333.2000000002,431332.8999999999,428785223,428790.2000000002,428801.9,431336933,,grey,ED06EC24,59,f,4,2,Immobilienkauffrau,0,0,0,0,0
Fixation,canvas.Screen,2_73_0_0,2022-06-27T16:24:19.679Z,,,1,AV,2202.2429999999586,timeout,,,433523.8999999999,433522493,431320256,431334.3999999999,431336933,433539176,,grey,ED06EC24,59,f,4,2,Immobilienkauffrau,0,0,0,0,0
Stimulus,canvas.Screen,2_73_0_1,2022-06-27T16:24:19.778Z,,,1,AV,98.67000000004191,timeout,,,433622.8999999999,433621173,433522493,433524.1000000001,433539176,433637846,,grey,ED06EC24,59,f,4,2,Immobilienkauffrau,0,0,0,0,0
Reaction,canvas.Screen,2_73_0_2,2022-06-27T16:24:19.926Z,,,1,AV,131.8540000001667,response,stim_detected,mousedown,433771.6000000001,433769.7000000002,433621173,433623.1000000001,433637846,433788618,,grey,ED06EC24,59,f,4,2,Immobilienkauffrau,0,0,0,0,0
Trial,flow.Sequence,2_73_0,2022-06-27T16:24:19.927Z,,,1,AV,2432.767000000167,completion,,,433771.8999999999,433769.7000000002,431320256,431334.3000000003,431336933,433788618,,grey,ED06EC24,59,f,4,2,Immobilienkauffrau,0,0,0,0,0
Frame,canvas.Frame,2_73,2022-06-27T16:24:19.927Z,,,1,AV,2435.267000000167,,,,433772.3000000003,433772.2000000002,431320256,431333.3999999999,431336933,433788618,,grey,ED06EC24,59,f,4,2,Immobilienkauffrau,0,0,0,0,0
Fixation,canvas.Screen,2_74_0_0,2022-06-27T16:24:21.779Z,,,1,AV,1850.6429999999818,timeout,,,435623.8999999999,435622588,433771.94,433773.3999999999,433788618,435639261,,grey,ED06EC24,59,f,4,2,Immobilienkauffrau,0,0,0,0,0
Stimulus,canvas.Screen,2_74_0_1,2022-06-27T16:24:21.880Z,,,1,AV,100.63699999998789,timeout,,,435724.8999999999,435723191,435622588,435624.2000000002,435639261,435739898,,grey,ED06EC24,59,f,4,2,Immobilienkauffrau,0,0,0,0,0
Reaction,canvas.Screen,2_74_0_2,2022-06-27T16:24:22.188Z,,,1,AV,291.80200000019977,response,stim_detected,mousedown,436033.3999999999,436031.7000000002,435723191,435725.1000000001,435739898,436040084,,grey,ED06EC24,59,f,4,2,Immobilienkauffrau,0,0,0,0,0
Trial,flow.Sequence,2_74_0,2022-06-27T16:24:22.189Z,,,1,AV,2243.0820000001695,completion,,,436033.8999999999,436031.7000000002,433771.94,433773.3000000003,433788618,436040084,,grey,ED06EC24,59,f,4,2,Immobilienkauffrau,0,0,0,0,0
Frame,canvas.Frame,2_74,2022-06-27T16:24:22.189Z,,,1,AV,2245.3819999999832,,,,436034.2000000002,436034,433771.94,433772.3999999999,433788618,436040084,,grey,ED06EC24,59,f,4,2,Immobilienkauffrau,0,0,0,0,0
Fixation,canvas.Screen,2_75_0_0,2022-06-27T16:24:24.198Z,,,1,AV,2018.3479999999981,timeout,,,438043.1000000001,438041752,436023407,436035.7000000002,436040084,438058432,,grey,ED06EC24,59,f,4,2,Immobilienkauffrau,0,0,0,0,0
Stimulus,canvas.Screen,2_75_0_1,2022-06-27T16:24:24.298Z,,,1,AV,99.73300000000745,timeout,,,438143.3000000003,438141488,438041752,438043.2000000002,438058432,438158165,,grey,ED06EC24,59,f,4,2,Immobilienkauffrau,0,0,0,0,0
Reaction,canvas.Screen,2_75_0_2,2022-06-27T16:24:24.416Z,,,1,AV,101.53500000020722,response,stim_detected,mousedown,438261.2000000002,438259.7000000002,438141488,438143.5,438158165,438274936,,grey,ED06EC24,59,f,4,2,Immobilienkauffrau,0,0,0,0,0
Trial,flow.Sequence,2_75_0,2022-06-27T16:24:24.416Z,,,1,AV,2219.616000000213,completion,,,438261.6000000001,438259.7000000002,436023407,436035.5,436040084,438274936,,grey,ED06EC24,59,f,4,2,Immobilienkauffrau,0,0,0,0,0
Frame,canvas.Frame,2_75,2022-06-27T16:24:24.417Z,,,1,AV,2221.616000000213,,,,438261.8000000003,438261.7000000002,436023407,436034.3999999999,436040084,438274936,,grey,ED06EC24,59,f,4,2,Immobilienkauffrau,0,0,0,0,0
Fixation,canvas.Screen,2_76_0_0,2022-06-27T16:24:26.583Z,,,0,V,2168.5590000000084,timeout,,,440428.2000000002,440426814,438258259,438263,438274936,440443495,,grey,ED06EC24,59,f,4,2,Immobilienkauffrau,0,0,0,0,0
Stimulus,canvas.Screen,2_76_0_1,2022-06-27T16:24:26.683Z,,,0,V,99.67599999997765,timeout,,,440528.2000000002,440526493,440426814,440428.6000000001,440443495,440543171,,grey,ED06EC24,59,f,4,2,Immobilienkauffrau,0,0,0,0,0
Reaction,canvas.Screen,2_76_0_2,2022-06-27T16:24:26.887Z,,,0,V,187.02900000021327,response,stim_detected,mousedown,440732.5,440730.2000000002,440526493,440528.3999999999,440543171,440743239,,grey,ED06EC24,59,f,4,2,Immobilienkauffrau,0,0,0,0,0
Trial,flow.Sequence,2_76_0,2022-06-27T16:24:26.888Z,,,0,V,2455.2640000001993,completion,,,440733.1000000001,440730.2000000002,438258259,438262.8999999999,438274936,440743239,,grey,ED06EC24,59,f,4,2,Immobilienkauffrau,0,0,0,0,0
Frame,canvas.Frame,2_76,2022-06-27T16:24:26.888Z,,,0,V,2458.2640000001993,,,,440733.3999999999,440733.2000000002,438258259,438262.1000000001,438274936,440743239,,grey,ED06EC24,59,f,4,2,Immobilienkauffrau,0,0,0,0,0
Fixation,canvas.Screen,2_77_0_0,2022-06-27T16:24:28.934Z,,,1,AV,2051.0069999999832,timeout,,,442778.8999999999,442777571,440726562,440734.6000000001,440743239,442794246,,grey,ED06EC24,59,f,4,2,Immobilienkauffrau,0,0,0,0,0
Stimulus,canvas.Screen,2_77_0_1,2022-06-27T16:24:29.034Z,,,1,AV,100.56400000001304,timeout,,,442879.2000000002,442878.13,442777571,442779.1000000001,442794246,442894.81,,grey,ED06EC24,59,f,4,2,Immobilienkauffrau,0,0,0,0,0
Reaction,canvas.Screen,2_77_0_2,2022-06-27T16:24:29.155Z,,,1,AV,103.89000000018859,response,stim_detected,mousedown,443000.3000000003,442998.7000000002,442878.13,442879.5,442894.81,443011459,,grey,ED06EC24,59,f,4,2,Immobilienkauffrau,0,0,0,0,0
Trial,flow.Sequence,2_77_0,2022-06-27T16:24:29.155Z,,,1,AV,2255.461000000185,completion,,,443000.7000000002,442998.7000000002,440726562,440734.5,440743239,443011459,,grey,ED06EC24,59,f,4,2,Immobilienkauffrau,0,0,0,0,0
Frame,canvas.Frame,2_77,2022-06-27T16:24:29.156Z,,,1,AV,2257.561000000278,,,,443000.8999999999,443000.8000000003,440726562,440733.5,440743239,443011459,,grey,ED06EC24,59,f,4,2,Immobilienkauffrau,0,0,0,0,0
Fixation,canvas.Screen,2_78_0_0,2022-06-27T16:24:31.052Z,,,1,AV,1901.558000000019,timeout,,,444897.5,444896337,442994782,443002,443011459,444913017,,grey,ED06EC24,59,f,4,2,Immobilienkauffrau,0,0,0,0,0
Stimulus,canvas.Screen,2_78_0_1,2022-06-27T16:24:31.152Z,,,1,AV,99.86300000001211,timeout,,,444997.5,444996202,444896337,444897.7000000002,444913017,445012.88,,grey,ED06EC24,59,f,4,2,Immobilienkauffrau,0,0,0,0,0
Reaction,canvas.Screen,2_78_0_2,2022-06-27T16:24:31.316Z,,,1,AV,146.72000000008848,response,stim_detected,mousedown,445161.3000000003,445159.6000000001,444996202,444997.6000000001,445012.88,445162919,,grey,ED06EC24,59,f,4,2,Immobilienkauffrau,0,0,0,0,0
Trial,flow.Sequence,2_78_0,2022-06-27T16:24:31.316Z,,,1,AV,2148.1410000001197,completion,,,445161.6000000001,445159.6000000001,442994782,443001.8000000003,443011459,445162919,,grey,ED06EC24,59,f,4,2,Immobilienkauffrau,0,0,0,0,0
Frame,canvas.Frame,2_78,2022-06-27T16:24:31.317Z,,,1,AV,2150.341000000306,,,,445161.8999999999,445161.8000000003,442994782,443001.1000000001,443011459,445162919,,grey,ED06EC24,59,f,4,2,Immobilienkauffrau,0,0,0,0,0
Fixation,canvas.Screen,2_79_0_0,2022-06-27T16:24:33.420Z,,,1,AV,2117.988000000012,timeout,,,447265.5,447264.23,445146242,445163.1000000001,445162919,447280907,,grey,ED06EC24,59,f,4,2,Immobilienkauffrau,0,0,0,0,0
Stimulus,canvas.Screen,2_79_0_1,2022-06-27T16:24:33.520Z,,,1,AV,99.95699999999488,timeout,,,447365.5,447364188,447264.23,447265.7000000002,447280907,447380864,,grey,ED06EC24,59,f,4,2,Immobilienkauffrau,0,0,0,0,0
Reaction,canvas.Screen,2_79_0_2,2022-06-27T16:24:33.642Z,,,1,AV,104.73600000009174,response,stim_detected,mousedown,447487.6000000001,447485.6000000001,447364188,447365.7000000002,447380864,447497.82,,grey,ED06EC24,59,f,4,2,Immobilienkauffrau,0,0,0,0,0
Trial,flow.Sequence,2_79_0,2022-06-27T16:24:33.643Z,,,1,AV,2322.6810000000987,completion,,,447487.8999999999,447485.6000000001,445146242,445163,445162919,447497.82,,grey,ED06EC24,59,f,4,2,Immobilienkauffrau,0,0,0,0,0
Frame,canvas.Frame,2_79,2022-06-27T16:24:33.643Z,,,1,AV,2325.1810000000987,,,,447488.3000000003,447488.1000000001,445146242,445162.1000000001,445162919,447497.82,,grey,ED06EC24,59,f,4,2,Immobilienkauffrau,0,0,0,0,0
Fixation,canvas.Screen,2_80_0_0,2022-06-27T16:24:36.105Z,,,0,V,2467.5619999999763,timeout,,,449950,449948709,447481143,447489.3999999999,447497.82,449965382,,grey,ED06EC24,59,f,4,2,Immobilienkauffrau,0,0,0,0,0
Stimulus,canvas.Screen,2_80_0_1,2022-06-27T16:24:36.206Z,,,0,V,100.76699999999255,timeout,,,450050.8999999999,450049472,449948709,449950.3999999999,449965382,450066149,,grey,ED06EC24,59,f,4,2,Immobilienkauffrau,0,0,0,0,0
Reaction,canvas.Screen,2_80_0_2,2022-06-27T16:24:36.321Z,,,0,V,98.45100000011735,response,stim_detected,mousedown,450166.6000000001,450164.6000000001,450049472,450051.1000000001,450066149,450182937,,grey,ED06EC24,59,f,4,2,Immobilienkauffrau,0,0,0,0,0
Trial,flow.Sequence,2_80_0,2022-06-27T16:24:36.322Z,,,0,V,2666.780000000086,completion,,,450167.1000000001,450164.6000000001,447481143,447489.3000000003,447497.82,450182937,,grey,ED06EC24,59,f,4,2,Immobilienkauffrau,0,0,0,0,0
Frame,canvas.Frame,2_80,2022-06-27T16:24:36.322Z,,,0,V,2669.3800000001793,,,,450167.5,450167.2000000002,447481143,447488.3999999999,447497.82,450182937,,grey,ED06EC24,59,f,4,2,Immobilienkauffrau,0,0,0,0,0
Fixation,canvas.Screen,2_81_0_0,2022-06-27T16:24:38.508Z,,,1,A,2184.838000000047,timeout,,,452352.8000000003,452351097,450166.26,450168.8999999999,450182937,452367775,,black,ED06EC24,59,f,4,2,Immobilienkauffrau,0,0,0,0,0
Stimulus,canvas.Screen,2_81_0_1,2022-06-27T16:24:38.607Z,,,1,A,100.03999999997905,timeout,,,452452.7000000002,452451041,452351097,452353,452367775,452467815,,black,ED06EC24,59,f,4,2,Immobilienkauffrau,0,0,0,0,0
Reaction,canvas.Screen,2_81_0_2,2022-06-27T16:24:38.831Z,,,1,A,206.7850000000908,response,stim_detected,mousedown,452676.3000000003,452674.6000000001,452451041,452452.8999999999,452467815,452684616,,black,ED06EC24,59,f,4,2,Immobilienkauffrau,0,0,0,0,0
Trial,flow.Sequence,2_81_0,2022-06-27T16:24:38.831Z,,,1,A,2491.663000000117,completion,,,452676.7000000002,452674.6000000001,450166.26,450168.8000000003,450182937,452684616,,black,ED06EC24,59,f,4,2,Immobilienkauffrau,0,0,0,0,0
Frame,canvas.Frame,2_81,2022-06-27T16:24:38.832Z,,,1,A,2493.863000000303,,,,452676.8999999999,452676.8000000003,450166.26,450167.6000000001,450182937,452684616,,black,ED06EC24,59,f,4,2,Immobilienkauffrau,0,0,0,0,0
Fixation,canvas.Screen,2_82_0_0,2022-06-27T16:24:41.210Z,,,1,AV,2385.594000000041,timeout,,,455055.1000000001,455053528,452667939,452678.1000000001,452684616,455070.21,,grey,ED06EC24,59,f,4,2,Immobilienkauffrau,0,0,0,0,0
Stimulus,canvas.Screen,2_82_0_1,2022-06-27T16:24:41.309Z,,,1,AV,99.26199999998789,timeout,,,455154.2000000002,455152796,455053528,455055.3999999999,455070.21,455169472,,grey,ED06EC24,59,f,4,2,Immobilienkauffrau,0,0,0,0,0
Reaction,canvas.Screen,2_82_0_2,2022-06-27T16:24:41.443Z,,,1,AV,117.12800000008428,response,stim_detected,mousedown,455288.5,455286.6000000001,455152796,455154.3999999999,455169472,455303068,,grey,ED06EC24,59,f,4,2,Immobilienkauffrau,0,0,0,0,0
Trial,flow.Sequence,2_82_0,2022-06-27T16:24:41.444Z,,,1,AV,2601.984000000113,completion,,,455288.8999999999,455286.6000000001,452667939,452678,452684616,455303068,,grey,ED06EC24,59,f,4,2,Immobilienkauffrau,0,0,0,0,0
Frame,canvas.Frame,2_82,2022-06-27T16:24:41.444Z,,,1,AV,2604.38400000002,,,,455289.2000000002,455289,452667939,452677.1000000001,452684616,455303068,,grey,ED06EC24,59,f,4,2,Immobilienkauffrau,0,0,0,0,0
Fixation,canvas.Screen,2_83_0_0,2022-06-27T16:24:43.493Z,,,0,V,2050.6059999999707,timeout,,,457338.1000000001,457337002,455286391,455290.3999999999,455303068,457353674,,grey,ED06EC24,59,f,4,2,Immobilienkauffrau,0,0,0,0,0
Stimulus,canvas.Screen,2_83_0_1,2022-06-27T16:24:43.594Z,,,0,V,100.92900000000373,timeout,,,457439,457437924,457337002,457338.3999999999,457353674,457454603,,grey,ED06EC24,59,f,4,2,Immobilienkauffrau,0,0,0,0,0
Reaction,canvas.Screen,2_83_0_2,2022-06-27T16:24:43.818Z,,,0,V,206.99700000009034,response,stim_detected,mousedown,457663.2000000002,457661.6000000001,457437924,457439.3000000003,457454603,457688001,,grey,ED06EC24,59,f,4,2,Immobilienkauffrau,0,0,0,0,0
Trial,flow.Sequence,2_83_0,2022-06-27T16:24:43.818Z,,,0,V,2358.5320000000647,completion,,,457663.6000000001,457661.6000000001,455286391,455290.3000000003,455303068,457688001,,grey,ED06EC24,59,f,4,2,Immobilienkauffrau,0,0,0,0,0
Frame,canvas.Frame,2_83,2022-06-27T16:24:43.819Z,,,0,V,2360.632000000158,,,,457663.8999999999,457663.7000000002,455286391,455289.3999999999,455303068,457688001,,grey,ED06EC24,59,f,4,2,Immobilienkauffrau,0,0,0,0,0
Fixation,canvas.Screen,2_84_0_0,2022-06-27T16:24:46.280Z,,,1,A,2452.1600000000326,timeout,,,460125.3000000003,460123.48,457654647,457665,457688001,460140161,,black,ED06EC24,59,f,4,2,Immobilienkauffrau,0,0,0,0,0
Stimulus,canvas.Screen,2_84_0_1,2022-06-27T16:24:46.379Z,,,1,A,99.25199999997858,timeout,,,460224.2000000002,460222738,460123.48,460125.7000000002,460140161,460239413,,black,ED06EC24,59,f,4,2,Immobilienkauffrau,0,0,0,0,0
Reaction,canvas.Screen,2_84_0_2,2022-06-27T16:24:46.530Z,,,1,A,134.18700000009267,response,stim_detected,mousedown,460375.3000000003,460373.6000000001,460222738,460224.5,460239413,460389812,,black,ED06EC24,59,f,4,2,Immobilienkauffrau,0,0,0,0,0
Trial,flow.Sequence,2_84_0,2022-06-27T16:24:46.530Z,,,1,A,2685.599000000104,completion,,,460375.7000000002,460373.6000000001,457654647,457665,457688001,460389812,,black,ED06EC24,59,f,4,2,Immobilienkauffrau,0,0,0,0,0
Frame,canvas.Frame,2_84,2022-06-27T16:24:46.531Z,,,1,A,2687.79900000029,,,,460376,460375.8000000003,457654647,457664.1000000001,457688001,460389812,,black,ED06EC24,59,f,4,2,Immobilienkauffrau,0,0,0,0,0
Fixation,canvas.Screen,2_85_0_0,2022-06-27T16:24:48.515Z,,,1,A,1985.4910000000382,timeout,,,462360.3000000003,462358619,460373135,460377.1000000001,460389812,462375303,,black,ED06EC24,59,f,4,2,Immobilienkauffrau,0,0,0,0,0
Stimulus,canvas.Screen,2_85_0_1,2022-06-27T16:24:48.614Z,,,1,A,99.07399999996414,timeout,,,462459.3999999999,462457701,462358619,462360.6000000001,462375303,462474377,,black,ED06EC24,59,f,4,2,Immobilienkauffrau,0,0,0,0,0
Reaction,canvas.Screen,2_85_0_2,2022-06-27T16:24:48.756Z,,,1,A,125.22300000011455,response,stim_detected,mousedown,462601.3000000003,462599.6000000001,462457701,462459.7000000002,462474377,462607977,,black,ED06EC24,59,f,4,2,Immobilienkauffrau,0,0,0,0,0
Trial,flow.Sequence,2_85_0,2022-06-27T16:24:48.756Z,,,1,A,2209.788000000117,completion,,,462601.7000000002,462599.6000000001,460373135,460377,460389812,462607977,,black,ED06EC24,59,f,4,2,Immobilienkauffrau,0,0,0,0,0
Frame,canvas.Frame,2_85,2022-06-27T16:24:48.757Z,,,1,A,2211.988000000303,,,,462602,462601.8000000003,460373135,460376.1000000001,460389812,462607977,,black,ED06EC24,59,f,4,2,Immobilienkauffrau,0,0,0,0,0
Fixation,canvas.Screen,2_86_0_0,2022-06-27T16:24:50.365Z,,,1,AV,1618.1030000000028,timeout,,,464210.3000000003,464209399,462591.3,462603.3999999999,462607977,464226.08,,grey,ED06EC24,59,f,4,2,Immobilienkauffrau,0,0,0,0,0
Stimulus,canvas.Screen,2_86_0_1,2022-06-27T16:24:50.465Z,,,1,AV,99.73499999998603,timeout,,,464310.3999999999,464309017,464209399,464210.6000000001,464226.08,464325815,,grey,ED06EC24,59,f,4,2,Immobilienkauffrau,0,0,0,0,0
Reaction,canvas.Screen,2_86_0_2,2022-06-27T16:24:50.593Z,,,1,AV,110.7850000000908,response,stim_detected,mousedown,464438.3000000003,464436.6000000001,464309017,464310.7000000002,464325815,464442554,,grey,ED06EC24,59,f,4,2,Immobilienkauffrau,0,0,0,0,0
Trial,flow.Sequence,2_86_0,2022-06-27T16:24:50.593Z,,,1,AV,1828.6230000000796,completion,,,464438.7000000002,464436.6000000001,462591.3,462603.3000000003,462607977,464442554,,grey,ED06EC24,59,f,4,2,Immobilienkauffrau,0,0,0,0,0
Frame,canvas.Frame,2_86,2022-06-27T16:24:50.594Z,,,1,AV,1830.9229999998934,,,,464439,464438.8999999999,462591.3,462602.2000000002,462607977,464442554,,grey,ED06EC24,59,f,4,2,Immobilienkauffrau,0,0,0,0,0
Fixation,canvas.Screen,2_87_0_0,2022-06-27T16:24:52.566Z,,,1,A,1984.7019999999902,timeout,,,466411.5,466410578,464425877,464440.3000000003,464442554,466427256,,black,ED06EC24,59,f,4,2,Immobilienkauffrau,0,0,0,0,0
Stimulus,canvas.Screen,2_87_0_1,2022-06-27T16:24:52.666Z,,,1,A,100.00599999999395,timeout,,,466511.5,466510585,466410578,466411.7000000002,466427256,466527262,,black,ED06EC24,59,f,4,2,Immobilienkauffrau,0,0,0,0,0
Reaction,canvas.Screen,2_87_0_2,2022-06-27T16:24:52.823Z,,,1,A,139.33800000010524,response,stim_detected,mousedown,466668.5,466666.6000000001,466510585,466511.8999999999,466527262,466677394,,black,ED06EC24,59,f,4,2,Immobilienkauffrau,0,0,0,0,0
Trial,flow.Sequence,2_87_0,2022-06-27T16:24:52.824Z,,,1,A,2224.0460000000894,completion,,,466669,466666.6000000001,464425877,464440.3000000003,464442554,466677394,,black,ED06EC24,59,f,4,2,Immobilienkauffrau,0,0,0,0,0
Frame,canvas.Frame,2_87,2022-06-27T16:24:52.824Z,,,1,A,2226.5460000000894,,,,466669.3000000003,466669.1000000001,464425877,464439.3000000003,464442554,466677394,,black,ED06EC24,59,f,4,2,Immobilienkauffrau,0,0,0,0,0
Fixation,canvas.Screen,2_88_0_0,2022-06-27T16:24:54.367Z,,,1,AV,1550.9620000000577,timeout,,,468212.7000000002,468211679,466660717,466670.3999999999,466677394,468228356,,grey,ED06EC24,59,f,4,2,Immobilienkauffrau,0,0,0,0,0
Stimulus,canvas.Screen,2_88_0_1,2022-06-27T16:24:54.468Z,,,1,AV,100.15199999994365,timeout,,,468312.8000000003,468311798,468211679,468212.8000000003,468228356,468328508,,grey,ED06EC24,59,f,4,2,Immobilienkauffrau,0,0,0,0,0
Reaction,canvas.Screen,2_88_0_2,2022-06-27T16:24:54.613Z,,,1,AV,127.99200000002747,response,stim_detected,mousedown,468458.3000000003,468456.5,468311798,468313,468328508,468461924,,grey,ED06EC24,59,f,4,2,Immobilienkauffrau,0,0,0,0,0
Trial,flow.Sequence,2_88_0,2022-06-27T16:24:54.613Z,,,1,AV,1779.1060000000289,completion,,,468458.6000000001,468456.5,466660717,466670.3000000003,466677394,468461924,,grey,ED06EC24,59,f,4,2,Immobilienkauffrau,0,0,0,0,0
