sender,sender_type,sender_id,timestamp,meta,,aud,condition,duration,ended_on,response,response_action,time_commit,time_end,time_render,time_run,time_show,time_switch,url,vis,id,age,sex,edu,occ,ela,pat,ill,prt,pcr,pab
Instructions,html.Page,0,2022-07-14T16:06:17.891Z,"{""labjs_version"":""20.2.4"",""labjs_build"":{""flavor"":""production"",""commit"":""f5b4a49f956347addd546a832a3327688c2c0fef""},""location"":""file:///C:/Users/Proband%207/Desktop/RTE/index.html"",""userAgent"":""Mozilla/5.0 (Windows NT 6.1; Win64; x64) AppleWebKit/537.36 (KHTML, like Gecko) Chrome/103.0.0.0 Safari/537.36"",""platform"":""Win32"",""language"":""de-DE"",""locale"":""de"",""timeZone"":""Europe/Berlin"",""timezoneOffset"":-120,""screen_width"":1366,""screen_height"":768,""scroll_width"":1366,""scroll_height"":609,""window_innerWidth"":1366,""window_innerHeight"":657,""devicePixelRatio"":1}",,,,223934747,form submission,,,227720.8999999999,227719.5,3768075,3784,3784753,227729335,{},,NG02KI18,35,m,1,2,Immobilienkaufmann,0,0,0,0,0
Change Background,canvas.Screen,1,2022-07-14T16:06:20.891Z,,,,,3005.7550000000047,timeout,,,230720.19999999972,230718409,227696051,227721.6000000001,227729335,230735.09,,,NG02KI18,35,m,1,2,Immobilienkaufmann,0,0,0,0,0
Fixation,canvas.Screen,2_0_0_0,2022-07-14T16:06:22.884Z,,,1,AV,1992.804999999993,timeout,,,232713.2999999998,232711251,230718409,230721.19999999972,230735.09,232727895,,grey,NG02KI18,35,m,1,2,Immobilienkaufmann,0,0,0,0,0
Stimulus,canvas.Screen,2_0_0_1,2022-07-14T16:06:22.991Z,,,1,AV,108.07099999999627,timeout,,,232820.6000000001,232819289,232711251,232713.6000000001,232727895,232835966,,grey,NG02KI18,35,m,1,2,Immobilienkaufmann,0,0,0,0,0
Reaction,canvas.Screen,2_0_0_2,2022-07-14T16:06:23.213Z,,,1,AV,204.93399999992107,response,stim_detected,mousedown,233042.7999999998,233040.8999999999,232819289,232820.7999999998,232835966,233052828,,grey,NG02KI18,35,m,1,2,Immobilienkaufmann,0,0,0,0,0
Trial,flow.Sequence,2_0_0,2022-07-14T16:06:23.214Z,,,1,AV,2305.8099999999104,completion,,,233043.3999999999,233040.8999999999,230718409,230721.1000000001,230735.09,233052828,,grey,NG02KI18,35,m,1,2,Immobilienkaufmann,0,0,0,0,0
Frame,canvas.Frame,2_0,2022-07-14T16:06:23.215Z,,,1,AV,2308.609999999724,,,,233044.1000000001,233043.69999999972,230718409,230720.3999999999,230735.09,233052828,,grey,NG02KI18,35,m,1,2,Immobilienkaufmann,0,0,0,0,0
Fixation,canvas.Screen,2_1_0_0,2022-07-14T16:06:25.660Z,,,0,V,2451.1909999999916,timeout,,,235489.2999999998,235487344,233036151,233045.19999999972,233052828,235504019,,grey,NG02KI18,35,m,1,2,Immobilienkaufmann,0,0,0,0,0
Stimulus,canvas.Screen,2_1_0_1,2022-07-14T16:06:25.760Z,,,0,V,100.50800000000163,timeout,,,235589.69999999972,235587.85,235487344,235489.6000000001,235504019,235604527,,grey,NG02KI18,35,m,1,2,Immobilienkaufmann,0,0,0,0,0
Reaction,canvas.Screen,2_1_0_2,2022-07-14T16:06:25.974Z,,,0,V,197.372999999905,response,stim_detected,mousedown,235803.5,235801.8999999999,235587.85,235590.19999999972,235604527,235821359,,grey,NG02KI18,35,m,1,2,Immobilienkaufmann,0,0,0,0,0
Trial,flow.Sequence,2_1_0,2022-07-14T16:06:25.975Z,,,0,V,2749.0719999998983,completion,,,235804.3999999999,235801.8999999999,233036151,233045,233052828,235821359,,grey,NG02KI18,35,m,1,2,Immobilienkaufmann,0,0,0,0,0
Frame,canvas.Frame,2_1,2022-07-14T16:06:25.975Z,,,0,V,2751.6719999999914,,,,235804.8999999999,235804.5,233036151,233044.2999999998,233052828,235821359,,grey,NG02KI18,35,m,1,2,Immobilienkaufmann,0,0,0,0,0
Fixation,canvas.Screen,2_2_0_0,2022-07-14T16:06:27.578Z,,,0,V,1601.3429999999935,timeout,,,237407.2999999998,237406022,235804682,235806.19999999972,235821359,237422702,,grey,NG02KI18,35,m,1,2,Immobilienkaufmann,0,0,0,0,0
Stimulus,canvas.Screen,2_2_0_1,2022-07-14T16:06:27.678Z,,,0,V,99.47400000001653,timeout,,,237507.2999999998,237505502,237406022,237407.5,237422702,237522176,,grey,NG02KI18,35,m,1,2,Immobilienkaufmann,0,0,0,0,0
Reaction,canvas.Screen,2_2_0_2,2022-07-14T16:06:27.848Z,,,0,V,153.72399999990012,response,stim_detected,mousedown,237677.5,237675.8999999999,237505502,237507.6000000001,237522176,237689221,,grey,NG02KI18,35,m,1,2,Immobilienkaufmann,0,0,0,0,0
Trial,flow.Sequence,2_2_0,2022-07-14T16:06:27.849Z,,,0,V,1854.5409999999101,completion,,,237678,237675.8999999999,235804682,235806,235821359,237689221,,grey,NG02KI18,35,m,1,2,Immobilienkaufmann,0,0,0,0,0
Frame,canvas.Frame,2_2,2022-07-14T16:06:27.849Z,,,0,V,1856.8409999997239,,,,237678.3999999999,237678.19999999972,235804682,235805.19999999972,235821359,237689221,,grey,NG02KI18,35,m,1,2,Immobilienkaufmann,0,0,0,0,0
Fixation,canvas.Screen,2_3_0_0,2022-07-14T16:06:30.314Z,,,1,AV,2469.5770000000193,timeout,,,240143.2999999998,240142112,237672544,237679.5,237689221,240158798,,grey,NG02KI18,35,m,1,2,Immobilienkaufmann,0,0,0,0,0
Stimulus,canvas.Screen,2_3_0_1,2022-07-14T16:06:30.413Z,,,1,AV,98.85399999999208,timeout,,,240242.3999999999,240240975,240142112,240143.6000000001,240158798,240257652,,grey,NG02KI18,35,m,1,2,Immobilienkaufmann,0,0,0,0,0
Reaction,canvas.Screen,2_3_0_2,2022-07-14T16:06:30.544Z,,,1,AV,114.247999999905,response,stim_detected,mousedown,240373.2999999998,240371.8999999999,240240975,240242.6000000001,240257652,240391048,,grey,NG02KI18,35,m,1,2,Immobilienkaufmann,0,0,0,0,0
Trial,flow.Sequence,2_3_0,2022-07-14T16:06:30.544Z,,,1,AV,2682.6789999999164,completion,,,240373.69999999972,240371.8999999999,237672544,237679.3999999999,237689221,240391048,,grey,NG02KI18,35,m,1,2,Immobilienkaufmann,0,0,0,0,0
Frame,canvas.Frame,2_3,2022-07-14T16:06:30.545Z,,,1,AV,2684.5789999998233,,,,240374,240373.7999999998,237672544,237678.5,237689221,240391048,,grey,NG02KI18,35,m,1,2,Immobilienkaufmann,0,0,0,0,0
Fixation,canvas.Screen,2_4_0_0,2022-07-14T16:06:32.464Z,,,1,AV,1917.8649999999907,timeout,,,242293.5,242292236,240374371,240375.1000000001,240391048,242308913,,grey,NG02KI18,35,m,1,2,Immobilienkaufmann,0,0,0,0,0
Stimulus,canvas.Screen,2_4_0_1,2022-07-14T16:06:32.564Z,,,1,AV,99.99299999998766,timeout,,,242393.3999999999,242392.23,242292236,242293.69999999972,242308913,242408906,,grey,NG02KI18,35,m,1,2,Immobilienkaufmann,0,0,0,0,0
Reaction,canvas.Screen,2_4_0_2,2022-07-14T16:06:32.697Z,,,1,AV,115.89399999982561,response,stim_detected,mousedown,242526.5,242524.7999999998,242392.23,242393.6000000001,242408906,242542.46,,grey,NG02KI18,35,m,1,2,Immobilienkaufmann,0,0,0,0,0
Trial,flow.Sequence,2_4_0,2022-07-14T16:06:32.697Z,,,1,AV,2133.751999999804,completion,,,242526.8999999999,242524.7999999998,240374371,240375,240391048,242542.46,,grey,NG02KI18,35,m,1,2,Immobilienkaufmann,0,0,0,0,0
Frame,canvas.Frame,2_4,2022-07-14T16:06:32.698Z,,,1,AV,2135.95199999999,,,,242527.19999999972,242527,240374371,240374.19999999972,240391048,242542.46,,grey,NG02KI18,35,m,1,2,Immobilienkaufmann,0,0,0,0,0
Fixation,canvas.Screen,2_5_0_0,2022-07-14T16:06:34.898Z,,,0,V,2200.8000000000175,timeout,,,244727.6000000001,244726587,242525783,242528.2999999998,242542.46,244743.26,,grey,NG02KI18,35,m,1,2,Immobilienkaufmann,0,0,0,0,0
Stimulus,canvas.Screen,2_5_0_1,2022-07-14T16:06:34.999Z,,,0,V,100.35499999998137,timeout,,,244828.5,244826.94,244726587,244727.8999999999,244743.26,244843615,,grey,NG02KI18,35,m,1,2,Immobilienkaufmann,0,0,0,0,0
Reaction,canvas.Screen,2_5_0_2,2022-07-14T16:06:35.138Z,,,0,V,122.08499999972992,response,stim_detected,mousedown,244967.19999999972,244965.69999999972,244826.94,244828.7999999998,244843615,244977408,,grey,NG02KI18,35,m,1,2,Immobilienkaufmann,0,0,0,0,0
Trial,flow.Sequence,2_5_0,2022-07-14T16:06:35.138Z,,,0,V,2423.2399999997288,completion,,,244967.6000000001,244965.69999999972,242525783,242528.2999999998,242542.46,244977408,,grey,NG02KI18,35,m,1,2,Immobilienkaufmann,0,0,0,0,0
Frame,canvas.Frame,2_5,2022-07-14T16:06:35.138Z,,,0,V,2425.339999999822,,,,244968,244967.7999999998,242525783,242527.2999999998,242542.46,244977408,,grey,NG02KI18,35,m,1,2,Immobilienkaufmann,0,0,0,0,0
Fixation,canvas.Screen,2_6_0_0,2022-07-14T16:06:36.701Z,,,1,A,1568.1940000000177,timeout,,,246530.6000000001,246528919,244960731,244969.1000000001,244977408,246545602,,black,NG02KI18,35,m,1,2,Immobilienkaufmann,0,0,0,0,0
Stimulus,canvas.Screen,2_6_0_1,2022-07-14T16:06:36.800Z,,,1,A,99.43799999999464,timeout,,,246629.6000000001,246628364,246528919,246531.1000000001,246545602,246645.04,,black,NG02KI18,35,m,1,2,Immobilienkaufmann,0,0,0,0,0
Reaction,canvas.Screen,2_6_0_2,2022-07-14T16:06:36.941Z,,,1,A,123.65999999971245,response,stim_detected,mousedown,246770.19999999972,246768.69999999972,246628364,246629.8999999999,246645.04,246778.6,,black,NG02KI18,35,m,1,2,Immobilienkaufmann,0,0,0,0,0
Trial,flow.Sequence,2_6_0,2022-07-14T16:06:36.941Z,,,1,A,1791.2919999997248,completion,,,246770.5,246768.69999999972,244960731,244969.1000000001,244977408,246778.6,,black,NG02KI18,35,m,1,2,Immobilienkaufmann,0,0,0,0,0
Frame,canvas.Frame,2_6,2022-07-14T16:06:36.941Z,,,1,A,1793.2919999997248,,,,246770.8999999999,246770.69999999972,244960731,244968.1000000001,244977408,246778.6,,black,NG02KI18,35,m,1,2,Immobilienkaufmann,0,0,0,0,0
Fixation,canvas.Screen,2_7_0_0,2022-07-14T16:06:38.768Z,,,1,AV,1834.3489999999874,timeout,,,248597.6000000001,248596273,246761923,246772,246778.6,248612949,,grey,NG02KI18,35,m,1,2,Immobilienkaufmann,0,0,0,0,0
Stimulus,canvas.Screen,2_7_0_1,2022-07-14T16:06:38.868Z,,,1,AV,100.31700000001001,timeout,,,248697.69999999972,248696587,248596273,248597.7999999998,248612949,248713266,,grey,NG02KI18,35,m,1,2,Immobilienkaufmann,0,0,0,0,0
Reaction,canvas.Screen,2_7_0_2,2022-07-14T16:06:38.999Z,,,1,AV,113.43399999971734,response,stim_detected,mousedown,248828.19999999972,248826.69999999972,248696587,248698,248713266,248829944,,grey,NG02KI18,35,m,1,2,Immobilienkaufmann,0,0,0,0,0
Trial,flow.Sequence,2_7_0,2022-07-14T16:06:38.999Z,,,1,AV,2048.099999999715,completion,,,248828.5,248826.69999999972,246761923,246771.8999999999,246778.6,248829944,,grey,NG02KI18,35,m,1,2,Immobilienkaufmann,0,0,0,0,0
Frame,canvas.Frame,2_7,2022-07-14T16:06:38.999Z,,,1,AV,2050.099999999715,,,,248828.8999999999,248828.69999999972,246761923,246771.1000000001,246778.6,248829944,,grey,NG02KI18,35,m,1,2,Immobilienkaufmann,0,0,0,0,0
Fixation,canvas.Screen,2_8_0_0,2022-07-14T16:06:41.437Z,,,1,A,2451.680000000022,timeout,,,251266.69999999972,251264946,248813267,248830.1000000001,248829944,251281624,,black,NG02KI18,35,m,1,2,Immobilienkaufmann,0,0,0,0,0
Stimulus,canvas.Screen,2_8_0_1,2022-07-14T16:06:41.537Z,,,1,A,99.6929999999993,timeout,,,251366,251364642,251264946,251267,251281624,251381317,,black,NG02KI18,35,m,1,2,Immobilienkaufmann,0,0,0,0,0
Reaction,canvas.Screen,2_8_0_2,2022-07-14T16:06:41.702Z,,,1,A,148.3829999997106,response,stim_detected,mousedown,251531,251529.69999999972,251364642,251366.3999999999,251381317,251548415,,black,NG02KI18,35,m,1,2,Immobilienkaufmann,0,0,0,0,0
Trial,flow.Sequence,2_8_0,2022-07-14T16:06:41.702Z,,,1,A,2699.755999999732,completion,,,251531.5,251529.69999999972,248813267,248830,248829944,251548415,,black,NG02KI18,35,m,1,2,Immobilienkaufmann,0,0,0,0,0
Frame,canvas.Frame,2_8,2022-07-14T16:06:41.702Z,,,1,A,2701.6560000001045,,,,251531.7999999998,251531.6000000001,248813267,248829.1000000001,248829944,251548415,,black,NG02KI18,35,m,1,2,Immobilienkaufmann,0,0,0,0,0
Fixation,canvas.Screen,2_9_0_0,2022-07-14T16:06:43.671Z,,,1,A,1967.356999999989,timeout,,,253500.7999999998,253499099,251531738,251532.8999999999,251548415,253515772,,black,NG02KI18,35,m,1,2,Immobilienkaufmann,0,0,0,0,0
Stimulus,canvas.Screen,2_9_0_1,2022-07-14T16:06:43.771Z,,,1,A,100.77100000000792,timeout,,,253600.7999999998,253599864,253499099,253501.1000000001,253515772,253616543,,black,NG02KI18,35,m,1,2,Immobilienkaufmann,0,0,0,0,0
Reaction,canvas.Screen,2_9_0_2,2022-07-14T16:06:43.931Z,,,1,A,142.057000000088,response,stim_detected,mousedown,253760,253758.6000000001,253599864,253601.1000000001,253616543,253783236,,black,NG02KI18,35,m,1,2,Immobilienkaufmann,0,0,0,0,0
Trial,flow.Sequence,2_9_0,2022-07-14T16:06:43.931Z,,,1,A,2210.185000000085,completion,,,253760.3999999999,253758.6000000001,251531738,251532.8999999999,251548415,253783236,,black,NG02KI18,35,m,1,2,Immobilienkaufmann,0,0,0,0,0
Frame,canvas.Frame,2_9,2022-07-14T16:06:43.931Z,,,1,A,2212.084999999992,,,,253760.69999999972,253760.5,251531738,251532,251548415,253783236,,black,NG02KI18,35,m,1,2,Immobilienkaufmann,0,0,0,0,0
Fixation,canvas.Screen,2_10_0_0,2022-07-14T16:06:45.539Z,,,1,AV,1600.2369999999937,timeout,,,255368,255366803,253749882,253786.7999999998,253783236,255383473,,grey,NG02KI18,35,m,1,2,Immobilienkaufmann,0,0,0,0,0
Stimulus,canvas.Screen,2_10_0_1,2022-07-14T16:06:45.639Z,,,1,AV,100.87200000000303,timeout,,,255468.8999999999,255467668,255366803,255368.2999999998,255383473,255484345,,grey,NG02KI18,35,m,1,2,Immobilienkaufmann,0,0,0,0,0
Reaction,canvas.Screen,2_10_0_2,2022-07-14T16:06:45.776Z,,,1,AV,119.15499999999884,response,stim_detected,mousedown,255605.3999999999,255603.5,255467668,255469.19999999972,255484345,255617711,,grey,NG02KI18,35,m,1,2,Immobilienkaufmann,0,0,0,0,0
Trial,flow.Sequence,2_10_0,2022-07-14T16:06:45.776Z,,,1,AV,1820.2639999999956,completion,,,255605.7999999998,255603.5,253749882,253786.69999999972,253783236,255617711,,grey,NG02KI18,35,m,1,2,Immobilienkaufmann,0,0,0,0,0
Frame,canvas.Frame,2_10,2022-07-14T16:06:45.777Z,,,1,AV,1822.7639999999956,,,,255606.19999999972,255606,253749882,253760.8999999999,253783236,255617711,,grey,NG02KI18,35,m,1,2,Immobilienkaufmann,0,0,0,0,0
Fixation,canvas.Screen,2_11_0_0,2022-07-14T16:06:47.692Z,,,1,A,1919.0950000000012,timeout,,,257521.1000000001,257520119,255601035,255607.2999999998,255617711,257536806,,black,NG02KI18,35,m,1,2,Immobilienkaufmann,0,0,0,0,0
Stimulus,canvas.Screen,2_11_0_1,2022-07-14T16:06:47.790Z,,,1,A,98.87599999998929,timeout,,,257620,257619006,257520119,257521.2999999998,257536806,257635682,,black,NG02KI18,35,m,1,2,Immobilienkaufmann,0,0,0,0,0
Reaction,canvas.Screen,2_11_0_2,2022-07-14T16:06:47.923Z,,,1,A,115.8179999999993,response,stim_detected,mousedown,257752.8999999999,257751.5,257619006,257620.19999999972,257635682,257769197,,black,NG02KI18,35,m,1,2,Immobilienkaufmann,0,0,0,0,0
Trial,flow.Sequence,2_11_0,2022-07-14T16:06:47.924Z,,,1,A,2133.7889999999898,completion,,,257753.3999999999,257751.5,255601035,255607.19999999972,255617711,257769197,,black,NG02KI18,35,m,1,2,Immobilienkaufmann,0,0,0,0,0
Frame,canvas.Frame,2_11,2022-07-14T16:06:47.924Z,,,1,A,2135.7889999999898,,,,257753.69999999972,257753.5,255601035,255606.3999999999,255617711,257769197,,black,NG02KI18,35,m,1,2,Immobilienkaufmann,0,0,0,0,0
Fixation,canvas.Screen,2_12_0_0,2022-07-14T16:06:49.959Z,,,0,V,2033.9270000000251,timeout,,,259788.1000000001,259786452,257752.52,257754.8999999999,257769197,259803124,,grey,NG02KI18,35,m,1,2,Immobilienkaufmann,0,0,0,0,0
Stimulus,canvas.Screen,2_12_0_1,2022-07-14T16:06:50.059Z,,,0,V,100.82699999999022,timeout,,,259888.19999999972,259887.27,259786452,259788.2999999998,259803124,259903951,,grey,NG02KI18,35,m,1,2,Immobilienkaufmann,0,0,0,0,0
Reaction,canvas.Screen,2_12_0_2,2022-07-14T16:06:50.290Z,,,0,V,214.54899999999907,response,stim_detected,mousedown,260119.8999999999,260118.5,259887.27,259888.5,259903951,260137412,,grey,NG02KI18,35,m,1,2,Immobilienkaufmann,0,0,0,0,0
Trial,flow.Sequence,2_12_0,2022-07-14T16:06:50.291Z,,,0,V,2349.3030000000144,completion,,,260120.2999999998,260118.5,257752.52,257754.69999999972,257769197,260137412,,grey,NG02KI18,35,m,1,2,Immobilienkaufmann,0,0,0,0,0
Frame,canvas.Frame,2_12,2022-07-14T16:06:50.291Z,,,0,V,2351.3030000000144,,,,260120.6000000001,260120.5,257752.52,257753.8999999999,257769197,260137412,,grey,NG02KI18,35,m,1,2,Immobilienkaufmann,0,0,0,0,0
Fixation,canvas.Screen,2_13_0_0,2022-07-14T16:06:51.844Z,,,1,AV,1551.1839999999793,timeout,,,261673.19999999972,261671917,260120735,260121.69999999972,260137412,261688596,,grey,NG02KI18,35,m,1,2,Immobilienkaufmann,0,0,0,0,0
Stimulus,canvas.Screen,2_13_0_1,2022-07-14T16:06:51.944Z,,,1,AV,99.7950000000128,timeout,,,261773.19999999972,261771715,261671917,261673.3999999999,261688596,261788391,,grey,NG02KI18,35,m,1,2,Immobilienkaufmann,0,0,0,0,0
Reaction,canvas.Screen,2_13_0_2,2022-07-14T16:06:52.118Z,,,1,AV,157.30899999971734,response,stim_detected,mousedown,261947.2999999998,261945.69999999972,261771715,261773.5,261788391,261955259,,grey,NG02KI18,35,m,1,2,Immobilienkaufmann,0,0,0,0,0
Trial,flow.Sequence,2_13_0,2022-07-14T16:06:52.118Z,,,1,AV,1808.2879999997094,completion,,,261947.69999999972,261945.69999999972,260120735,260121.6000000001,260137412,261955259,,grey,NG02KI18,35,m,1,2,Immobilienkaufmann,0,0,0,0,0
Frame,canvas.Frame,2_13,2022-07-14T16:06:52.119Z,,,1,AV,1810.3879999998026,,,,261948,261947.7999999998,260120735,260120.7999999998,260137412,261955259,,grey,NG02KI18,35,m,1,2,Immobilienkaufmann,0,0,0,0,0
Fixation,canvas.Screen,2_14_0_0,2022-07-14T16:06:53.896Z,,,1,A,1785.3459999999905,timeout,,,263725.1999999997,263723.92,261938582,261949,261955259,263740605,,black,NG02KI18,35,m,1,2,Immobilienkaufmann,0,0,0,0,0
Stimulus,canvas.Screen,2_14_0_1,2022-07-14T16:06:53.995Z,,,1,A,98.81300000002375,timeout,,,263824.2999999998,263822745,263723.92,263725.3999999999,263740605,263839418,,black,NG02KI18,35,m,1,2,Immobilienkaufmann,0,0,0,0,0
Reaction,canvas.Screen,2_14_0_2,2022-07-14T16:06:54.122Z,,,1,A,110.98199999990175,response,stim_detected,mousedown,263952,263950.3999999999,263822745,263824.5,263839418,263956612,,black,NG02KI18,35,m,1,2,Immobilienkaufmann,0,0,0,0,0
Trial,flow.Sequence,2_14_0,2022-07-14T16:06:54.123Z,,,1,A,1995.140999999916,completion,,,263952.3999999999,263950.3999999999,261938582,261948.8999999999,261955259,263956612,,black,NG02KI18,35,m,1,2,Immobilienkaufmann,0,0,0,0,0
Frame,canvas.Frame,2_14,2022-07-14T16:06:54.123Z,,,1,A,1997.3410000001022,,,,263952.7999999998,263952.6000000001,261938582,261948.19999999972,261955259,263956612,,black,NG02KI18,35,m,1,2,Immobilienkaufmann,0,0,0,0,0
Fixation,canvas.Screen,2_15_0_0,2022-07-14T16:06:56.080Z,,,1,A,1967.886999999988,timeout,,,265909.2999999998,265907822,263939935,263953.8999999999,263956612,265924499,,black,NG02KI18,35,m,1,2,Immobilienkaufmann,0,0,0,0,0
Stimulus,canvas.Screen,2_15_0_1,2022-07-14T16:06:56.180Z,,,1,A,100.17999999999302,timeout,,,266009.2999999998,266008,265907822,265909.5,265924499,266024679,,black,NG02KI18,35,m,1,2,Immobilienkaufmann,0,0,0,0,0
Reaction,canvas.Screen,2_15_0_2,2022-07-14T16:06:56.296Z,,,1,A,99.62099999981001,response,stim_detected,mousedown,266125.8999999999,266124.2999999998,266008,266009.6000000001,266024679,266141348,,black,NG02KI18,35,m,1,2,Immobilienkaufmann,0,0,0,0,0
Trial,flow.Sequence,2_15_0,2022-07-14T16:06:56.297Z,,,1,A,2167.687999999791,completion,,,266126.2999999998,266124.2999999998,263939935,263953.6999999997,263956612,266141348,,black,NG02KI18,35,m,1,2,Immobilienkaufmann,0,0,0,0,0
Frame,canvas.Frame,2_15,2022-07-14T16:06:56.297Z,,,1,A,2169.787999999884,,,,266126.7999999998,266126.3999999999,263939935,263952.8999999999,263956612,266141348,,black,NG02KI18,35,m,1,2,Immobilienkaufmann,0,0,0,0,0
Fixation,canvas.Screen,2_16_0_0,2022-07-14T16:06:58.332Z,,,1,AV,2035.5929999999935,timeout,,,268161.5,268160256,266124672,266128,266141348,268176941,,grey,NG02KI18,35,m,1,2,Immobilienkaufmann,0,0,0,0,0
Stimulus,canvas.Screen,2_16_0_1,2022-07-14T16:06:58.431Z,,,1,AV,99.04200000001583,timeout,,,268260.2999999998,268259307,268160256,268161.6999999997,268176941,268275983,,grey,NG02KI18,35,m,1,2,Immobilienkaufmann,0,0,0,0,0
Reaction,canvas.Screen,2_16_0_2,2022-07-14T16:06:58.557Z,,,1,AV,109.21699999971315,response,stim_detected,mousedown,268386.7999999998,268385.1999999997,268259307,268260.6000000001,268275983,268392876,,grey,NG02KI18,35,m,1,2,Immobilienkaufmann,0,0,0,0,0
Trial,flow.Sequence,2_16_0,2022-07-14T16:06:58.558Z,,,1,AV,2243.8519999997225,completion,,,268387.2999999998,268385.1999999997,266124672,266127.8999999999,266141348,268392876,,grey,NG02KI18,35,m,1,2,Immobilienkaufmann,0,0,0,0,0
Frame,canvas.Frame,2_16,2022-07-14T16:06:58.558Z,,,1,AV,2246.0519999999087,,,,268387.6000000001,268387.3999999999,266124672,266127.1000000001,266141348,268392876,,grey,NG02KI18,35,m,1,2,Immobilienkaufmann,0,0,0,0,0
Fixation,canvas.Screen,2_17_0_0,2022-07-14T16:07:00.082Z,,,0,V,1534.0829999999842,timeout,,,269911.3999999999,269910284,268376199,268388.7999999998,268392876,269926959,,grey,NG02KI18,35,m,1,2,Immobilienkaufmann,0,0,0,0,0
Stimulus,canvas.Screen,2_17_0_1,2022-07-14T16:07:00.182Z,,,0,V,100.37400000001071,timeout,,,270011.5,270010655,269910284,269911.6999999997,269926959,270027333,,grey,NG02KI18,35,m,1,2,Immobilienkaufmann,0,0,0,0,0
Reaction,canvas.Screen,2_17_0_2,2022-07-14T16:07:00.372Z,,,0,V,173.16700000001583,response,stim_detected,mousedown,270201.8999999999,270200.5,270010655,270011.6999999997,270027333,270210732,,grey,NG02KI18,35,m,1,2,Immobilienkaufmann,0,0,0,0,0
Trial,flow.Sequence,2_17_0,2022-07-14T16:07:00.373Z,,,0,V,1807.6240000000107,completion,,,270202.2999999998,270200.5,268376199,268388.6999999997,268392876,270210732,,grey,NG02KI18,35,m,1,2,Immobilienkaufmann,0,0,0,0,0
Frame,canvas.Frame,2_17,2022-07-14T16:07:00.373Z,,,0,V,1809.6240000000107,,,,270202.6000000001,270202.5,268376199,268387.7999999998,268392876,270210732,,grey,NG02KI18,35,m,1,2,Immobilienkaufmann,0,0,0,0,0
Fixation,canvas.Screen,2_18_0_0,2022-07-14T16:07:02.751Z,,,1,A,2385.2859999999637,timeout,,,272580.5,272579338,270194055,270203.6999999997,270210732,272596018,,black,NG02KI18,35,m,1,2,Immobilienkaufmann,0,0,0,0,0
Stimulus,canvas.Screen,2_18_0_1,2022-07-14T16:07:02.851Z,,,1,A,99.7609999999986,timeout,,,272680.6000000001,272679096,272579338,272580.7999999998,272596018,272695779,,black,NG02KI18,35,m,1,2,Immobilienkaufmann,0,0,0,0,0
Reaction,canvas.Screen,2_18_0_2,2022-07-14T16:07:02.989Z,,,1,A,120.5209999998333,response,stim_detected,mousedown,272818.1000000001,272816.2999999998,272679096,272680.7999999998,272695779,272829.13,,black,NG02KI18,35,m,1,2,Immobilienkaufmann,0,0,0,0,0
Trial,flow.Sequence,2_18_0,2022-07-14T16:07:02.989Z,,,1,A,2605.5679999997956,completion,,,272818.6000000001,272816.2999999998,270194055,270203.6000000001,270210732,272829.13,,black,NG02KI18,35,m,1,2,Immobilienkaufmann,0,0,0,0,0
Frame,canvas.Frame,2_18,2022-07-14T16:07:02.989Z,,,1,A,2607.9679999997024,,,,272818.8999999999,272818.6999999997,270194055,270202.8999999999,270210732,272829.13,,black,NG02KI18,35,m,1,2,Immobilienkaufmann,0,0,0,0,0
Fixation,canvas.Screen,2_19_0_0,2022-07-14T16:07:05.403Z,,,1,AV,2418.4830000000075,timeout,,,275232.8999999999,275230934,272812453,272841.7999999998,272829.13,275247613,,grey,NG02KI18,35,m,1,2,Immobilienkaufmann,0,0,0,0,0
Stimulus,canvas.Screen,2_19_0_1,2022-07-14T16:07:05.502Z,,,1,AV,99.40599999995902,timeout,,,275331.6999999997,275330345,275230934,275233.1999999997,275247613,275347019,,grey,NG02KI18,35,m,1,2,Immobilienkaufmann,0,0,0,0,0
Reaction,canvas.Screen,2_19_0_2,2022-07-14T16:07:05.658Z,,,1,AV,139.2809999998426,response,stim_detected,mousedown,275487.7999999998,275486.2999999998,275330345,275332,275347019,275497566,,grey,NG02KI18,35,m,1,2,Immobilienkaufmann,0,0,0,0,0
Trial,flow.Sequence,2_19_0,2022-07-14T16:07:05.659Z,,,1,AV,2657.169999999809,completion,,,275488.1999999997,275486.2999999998,272812453,272841.6999999997,272829.13,275497566,,grey,NG02KI18,35,m,1,2,Immobilienkaufmann,0,0,0,0,0
Frame,canvas.Frame,2_19,2022-07-14T16:07:05.659Z,,,1,AV,2659.169999999809,,,,275488.6000000001,275488.2999999998,272812453,272819.1000000001,272829.13,275497566,,grey,NG02KI18,35,m,1,2,Immobilienkaufmann,0,0,0,0,0
Fixation,canvas.Screen,2_20_0_0,2022-07-14T16:07:07.620Z,,,0,V,1967.2430000000168,timeout,,,277449.6999999997,277448137,275480889,275489.6000000001,275497566,277464809,,grey,NG02KI18,35,m,1,2,Immobilienkaufmann,0,0,0,0,0
Stimulus,canvas.Screen,2_20_0_1,2022-07-14T16:07:07.721Z,,,0,V,100.84700000000885,timeout,,,277550.7999999998,277548978,277448137,277450,277464809,277565656,,grey,NG02KI18,35,m,1,2,Immobilienkaufmann,0,0,0,0,0
Reaction,canvas.Screen,2_20_0_2,2022-07-14T16:07:07.878Z,,,0,V,140.54399999970337,response,stim_detected,mousedown,277707.5,277706.1999999997,277548978,277551.1000000001,277565656,277715672,,grey,NG02KI18,35,m,1,2,Immobilienkaufmann,0,0,0,0,0
Trial,flow.Sequence,2_20_0,2022-07-14T16:07:07.878Z,,,0,V,2208.633999999729,completion,,,277708,277706.1999999997,275480889,275489.6000000001,275497566,277715672,,grey,NG02KI18,35,m,1,2,Immobilienkaufmann,0,0,0,0,0
Frame,canvas.Frame,2_20,2022-07-14T16:07:07.879Z,,,0,V,2210.5340000001015,,,,277708.2999999998,277708.1000000001,275480889,275488.6999999997,275497566,277715672,,grey,NG02KI18,35,m,1,2,Immobilienkaufmann,0,0,0,0,0
Fixation,canvas.Screen,2_21_0_0,2022-07-14T16:07:10.339Z,,,1,A,2469.1300000000047,timeout,,,280168.8999999999,280168119,277698995,277709.2999999998,277715672,280184802,,black,NG02KI18,35,m,1,2,Immobilienkaufmann,0,0,0,0,0
Stimulus,canvas.Screen,2_21_0_1,2022-07-14T16:07:10.439Z,,,1,A,99.26299999997718,timeout,,,280268.8999999999,280267337,280168119,280169.1999999997,280184802,280284065,,black,NG02KI18,35,m,1,2,Immobilienkaufmann,0,0,0,0,0
Reaction,canvas.Screen,2_21_0_2,2022-07-14T16:07:10.566Z,,,1,A,110.13499999971827,response,stim_detected,mousedown,280395.6000000001,280394.1999999997,280267337,280269.1000000001,280284065,280400804,,black,NG02KI18,35,m,1,2,Immobilienkaufmann,0,0,0,0,0
Trial,flow.Sequence,2_21_0,2022-07-14T16:07:10.567Z,,,1,A,2678.5279999997,completion,,,280396,280394.1999999997,277698995,277709.2999999998,277715672,280400804,,black,NG02KI18,35,m,1,2,Immobilienkaufmann,0,0,0,0,0
Frame,canvas.Frame,2_21,2022-07-14T16:07:10.567Z,,,1,A,2680.5279999997,,,,280396.3999999999,280396.1999999997,277698995,277708.5,277715672,280400804,,black,NG02KI18,35,m,1,2,Immobilienkaufmann,0,0,0,0,0
Fixation,canvas.Screen,2_22_0_0,2022-07-14T16:07:12.640Z,,,0,V,2084.63400000002,timeout,,,282469.8999999999,282468761,280384127,280397.5,280400804,282485438,,grey,NG02KI18,35,m,1,2,Immobilienkaufmann,0,0,0,0,0
Stimulus,canvas.Screen,2_22_0_1,2022-07-14T16:07:12.740Z,,,0,V,99.99099999997998,timeout,,,282569.6000000001,282568753,282468761,282470.1999999997,282485438,282585429,,grey,NG02KI18,35,m,1,2,Immobilienkaufmann,0,0,0,0,0
Reaction,canvas.Screen,2_22_0_2,2022-07-14T16:07:12.877Z,,,0,V,120.37099999981001,response,stim_detected,mousedown,282706.6000000001,282705.7999999998,282568753,282569.6999999997,282585429,282718961,,grey,NG02KI18,35,m,1,2,Immobilienkaufmann,0,0,0,0,0
Trial,flow.Sequence,2_22_0,2022-07-14T16:07:12.877Z,,,0,V,2304.99599999981,completion,,,282706.6999999997,282705.7999999998,280384127,280397.3999999999,280400804,282718961,,grey,NG02KI18,35,m,1,2,Immobilienkaufmann,0,0,0,0,0
Frame,canvas.Frame,2_22,2022-07-14T16:07:12.877Z,,,0,V,2305.99599999981,,,,282706.8999999999,282706.7999999998,280384127,280396.5,280400804,282718961,,grey,NG02KI18,35,m,1,2,Immobilienkaufmann,0,0,0,0,0
Fixation,canvas.Screen,2_23_0_0,2022-07-14T16:07:14.541Z,,,1,AV,1667.7099999999627,timeout,,,284371,284369994,282702284,282707.3999999999,282718961,284386671,,grey,NG02KI18,35,m,1,2,Immobilienkaufmann,0,0,0,0,0
Stimulus,canvas.Screen,2_23_0_1,2022-07-14T16:07:14.642Z,,,1,AV,99.99900000001071,timeout,,,284471.1000000001,284469994,284369994,284371.1999999997,284386671,284486.67,,grey,NG02KI18,35,m,1,2,Immobilienkaufmann,0,0,0,0,0
Reaction,canvas.Screen,2_23_0_2,2022-07-14T16:07:14.822Z,,,1,AV,163.22999999992317,response,stim_detected,mousedown,284651.3999999999,284649.8999999999,284469994,284471.1999999997,284486.67,284670312,,grey,NG02KI18,35,m,1,2,Immobilienkaufmann,0,0,0,0,0
Trial,flow.Sequence,2_23_0,2022-07-14T16:07:14.822Z,,,1,AV,1930.9389999998966,completion,,,284651.8999999999,284649.8999999999,282702284,282707.2999999998,282718961,284670312,,grey,NG02KI18,35,m,1,2,Immobilienkaufmann,0,0,0,0,0
Frame,canvas.Frame,2_23,2022-07-14T16:07:14.823Z,,,1,AV,1933.0389999999898,,,,284652.2999999998,284652,282702284,282706.8999999999,282718961,284670312,,grey,NG02KI18,35,m,1,2,Immobilienkaufmann,0,0,0,0,0
Fixation,canvas.Screen,2_24_0_0,2022-07-14T16:07:16.960Z,,,1,AV,2134.2270000000135,timeout,,,286789.1999999997,286787865,284636956,284653.3999999999,284670312,286804539,,grey,NG02KI18,35,m,1,2,Immobilienkaufmann,0,0,0,0,0
Stimulus,canvas.Screen,2_24_0_1,2022-07-14T16:07:17.060Z,,,1,AV,100.45900000003166,timeout,,,286889.1999999997,286888322,286787865,286789.6000000001,286804539,286904998,,grey,NG02KI18,35,m,1,2,Immobilienkaufmann,0,0,0,0,0
Reaction,canvas.Screen,2_24_0_2,2022-07-14T16:07:17.178Z,,,1,AV,101.00199999997858,response,stim_detected,mousedown,287007.3999999999,287006,286888322,286889.3999999999,286904998,287021809,,grey,NG02KI18,35,m,1,2,Immobilienkaufmann,0,0,0,0,0
Trial,flow.Sequence,2_24_0,2022-07-14T16:07:17.179Z,,,1,AV,2335.6880000000237,completion,,,287007.7999999998,287006,284636956,284653.2999999998,284670312,287021809,,grey,NG02KI18,35,m,1,2,Immobilienkaufmann,0,0,0,0,0
Frame,canvas.Frame,2_24,2022-07-14T16:07:17.179Z,,,1,AV,2337.6880000000237,,,,287008.1000000001,287008,284636956,284652.3999999999,284670312,287021809,,grey,NG02KI18,35,m,1,2,Immobilienkaufmann,0,0,0,0,0
Fixation,canvas.Screen,2_25_0_0,2022-07-14T16:07:19.363Z,,,1,A,2185.7820000000065,timeout,,,289192.2999999998,289190906,287005132,287009.3999999999,287021809,289207591,,black,NG02KI18,35,m,1,2,Immobilienkaufmann,0,0,0,0,0
Stimulus,canvas.Screen,2_25_0_1,2022-07-14T16:07:19.462Z,,,1,A,98.93699999997625,timeout,,,289291.5,289289852,289190906,289192.5,289207591,289306528,,black,NG02KI18,35,m,1,2,Immobilienkaufmann,0,0,0,0,0
Reaction,canvas.Screen,2_25_0_2,2022-07-14T16:07:19.576Z,,,1,A,97.37199999991572,response,stim_detected,mousedown,289405.3999999999,289403.8999999999,289289852,289291.6000000001,289306528,289423433,,black,NG02KI18,35,m,1,2,Immobilienkaufmann,0,0,0,0,0
Trial,flow.Sequence,2_25_0,2022-07-14T16:07:19.577Z,,,1,A,2382.0909999998985,completion,,,289405.6999999997,289403.8999999999,287005132,287009.1999999997,287021809,289423433,,black,NG02KI18,35,m,1,2,Immobilienkaufmann,0,0,0,0,0
Frame,canvas.Frame,2_25,2022-07-14T16:07:19.577Z,,,1,A,2384.0909999998985,,,,289406.1000000001,289405.8999999999,287005132,287008.2999999998,287021809,289423433,,black,NG02KI18,35,m,1,2,Immobilienkaufmann,0,0,0,0,0
Fixation,canvas.Screen,2_26_0_0,2022-07-14T16:07:21.880Z,,,0,V,2301.435999999987,timeout,,,291709.3999999999,291708192,289406756,289407.1000000001,289423433,291724869,,grey,NG02KI18,35,m,1,2,Immobilienkaufmann,0,0,0,0,0
Stimulus,canvas.Screen,2_26_0_1,2022-07-14T16:07:21.980Z,,,0,V,100.23800000001211,timeout,,,291809.3999999999,291808429,291708192,291709.6000000001,291724869,291825107,,grey,NG02KI18,35,m,1,2,Immobilienkaufmann,0,0,0,0,0
Reaction,canvas.Screen,2_26_0_2,2022-07-14T16:07:22.137Z,,,0,V,139.7929999998887,response,stim_detected,mousedown,291966.3999999999,291964.8999999999,291808429,291809.6000000001,291825107,291975103,,grey,NG02KI18,35,m,1,2,Immobilienkaufmann,0,0,0,0,0
Trial,flow.Sequence,2_26_0,2022-07-14T16:07:22.138Z,,,0,V,2541.466999999888,completion,,,291966.8999999999,291964.8999999999,289406756,289407,289423433,291975103,,grey,NG02KI18,35,m,1,2,Immobilienkaufmann,0,0,0,0,0
Frame,canvas.Frame,2_26,2022-07-14T16:07:22.138Z,,,0,V,2543.566999999981,,,,291967.1999999997,291967,289406756,289406.1999999997,289423433,291975103,,grey,NG02KI18,35,m,1,2,Immobilienkaufmann,0,0,0,0,0
Fixation,canvas.Screen,2_27_0_0,2022-07-14T16:07:24.532Z,,,1,A,2401.344999999972,timeout,,,294361.3999999999,294359772,291958426,291968.1999999997,291975103,294376448,,black,NG02KI18,35,m,1,2,Immobilienkaufmann,0,0,0,0,0
Stimulus,canvas.Screen,2_27_0_1,2022-07-14T16:07:24.632Z,,,1,A,100.12800000002608,timeout,,,294461.3999999999,294459.9,294359772,294361.6000000001,294376448,294476576,,black,NG02KI18,35,m,1,2,Immobilienkaufmann,0,0,0,0,0
Reaction,canvas.Screen,2_27_0_2,2022-07-14T16:07:24.766Z,,,1,A,117.0240000000922,response,stim_detected,mousedown,294595.5,294593.6000000001,294459.9,294461.6999999997,294476576,294610173,,black,NG02KI18,35,m,1,2,Immobilienkaufmann,0,0,0,0,0
Trial,flow.Sequence,2_27_0,2022-07-14T16:07:24.767Z,,,1,A,2618.4970000000903,completion,,,294595.8999999999,294593.6000000001,291958426,291968.1000000001,291975103,294610173,,black,NG02KI18,35,m,1,2,Immobilienkaufmann,0,0,0,0,0
Frame,canvas.Frame,2_27,2022-07-14T16:07:24.767Z,,,1,A,2620.896999999997,,,,294596.1999999997,294596,291958426,291967.2999999998,291975103,294610173,,black,NG02KI18,35,m,1,2,Immobilienkaufmann,0,0,0,0,0
Fixation,canvas.Screen,2_28_0_0,2022-07-14T16:07:27.018Z,,,1,A,2252.4199999999837,timeout,,,296847.6000000001,296845909,294593496,294597.1999999997,294610173,296862593,,black,NG02KI18,35,m,1,2,Immobilienkaufmann,0,0,0,0,0
Stimulus,canvas.Screen,2_28_0_1,2022-07-14T16:07:27.117Z,,,1,A,99.0559999999823,timeout,,,296946.6000000001,296944973,296845909,296847.7999999998,296862593,296961649,,black,NG02KI18,35,m,1,2,Immobilienkaufmann,0,0,0,0,0
Reaction,canvas.Screen,2_28_0_2,2022-07-14T16:07:27.234Z,,,1,A,100.15099999983795,response,stim_detected,mousedown,297063.2999999998,297061.7999999998,296944973,296946.7999999998,296961649,297078506,,black,NG02KI18,35,m,1,2,Immobilienkaufmann,0,0,0,0,0
Trial,flow.Sequence,2_28_0,2022-07-14T16:07:27.235Z,,,1,A,2451.626999999804,completion,,,297063.7999999998,297061.7999999998,294593496,294597.1000000001,294610173,297078506,,black,NG02KI18,35,m,1,2,Immobilienkaufmann,0,0,0,0,0
Frame,canvas.Frame,2_28,2022-07-14T16:07:27.235Z,,,1,A,2453.726999999897,,,,297064.1000000001,297063.8999999999,294593496,294596.3999999999,294610173,297078506,,black,NG02KI18,35,m,1,2,Immobilienkaufmann,0,0,0,0,0
Fixation,canvas.Screen,2_29_0_0,2022-07-14T16:07:29.368Z,,,0,V,2133.9689999999828,timeout,,,299197.6000000001,299195803,297061829,297065.3999999999,297078506,299212475,,grey,NG02KI18,35,m,1,2,Immobilienkaufmann,0,0,0,0,0
Stimulus,canvas.Screen,2_29_0_1,2022-07-14T16:07:29.468Z,,,0,V,100.7840000000433,timeout,,,299297.6999999997,299296582,299195803,299197.7999999998,299212475,299313259,,grey,NG02KI18,35,m,1,2,Immobilienkaufmann,0,0,0,0,0
Reaction,canvas.Screen,2_29_0_2,2022-07-14T16:07:29.625Z,,,0,V,139.5409999997937,response,stim_detected,mousedown,299454.2999999998,299452.7999999998,299296582,299297.8999999999,299313259,299463379,,grey,NG02KI18,35,m,1,2,Immobilienkaufmann,0,0,0,0,0
Trial,flow.Sequence,2_29_0,2022-07-14T16:07:29.625Z,,,0,V,2374.29399999982,completion,,,299454.6000000001,299452.7999999998,297061829,297065.2999999998,297078506,299463379,,grey,NG02KI18,35,m,1,2,Immobilienkaufmann,0,0,0,0,0
Frame,canvas.Frame,2_29,2022-07-14T16:07:29.626Z,,,0,V,2376.29399999982,,,,299455.1000000001,299454.7999999998,297061829,297064.3999999999,297078506,299463379,,grey,NG02KI18,35,m,1,2,Immobilienkaufmann,0,0,0,0,0
Fixation,canvas.Screen,2_30_0_0,2022-07-14T16:07:32.004Z,,,0,V,2385.127999999968,timeout,,,301832.6999999997,301831828,299446702,299456.3999999999,299463379,301848507,,grey,NG02KI18,35,m,1,2,Immobilienkaufmann,0,0,0,0,0
Stimulus,canvas.Screen,2_30_0_1,2022-07-14T16:07:32.104Z,,,0,V,99.81400000001304,timeout,,,301932.8999999999,301931644,301831828,301833,301848507,301948321,,grey,NG02KI18,35,m,1,2,Immobilienkaufmann,0,0,0,0,0
Reaction,canvas.Screen,2_30_0_2,2022-07-14T16:07:33.604Z,,,0,V,1500.966000000015,timeout,,,303433.6999999997,303432.61,301931644,301933.1999999997,301948321,303449287,,grey,NG02KI18,35,m,1,2,Immobilienkaufmann,0,0,0,0,0
Trial,flow.Sequence,2_30_0,2022-07-14T16:07:33.605Z,,,0,V,3969.2309999999707,completion,,,303434.1999999997,303432.61,299446702,299456.3999999999,299463379,303449287,,grey,NG02KI18,35,m,1,2,Immobilienkaufmann,0,0,0,0,0
Frame,canvas.Frame,2_30,2022-07-14T16:07:33.605Z,,,0,V,3970.8209999997052,,,,303434.5,303434.1999999997,299446702,299455.2999999998,299463379,303465964,,grey,NG02KI18,35,m,1,2,Immobilienkaufmann,0,0,0,0,0
Fixation,canvas.Screen,2_31_0_0,2022-07-14T16:07:35.873Z,,,1,A,2251.429999999993,timeout,,,305702,305700717,303449287,303435.6000000001,303465964,305717394,,black,NG02KI18,35,m,1,2,Immobilienkaufmann,0,0,0,0,0
Stimulus,canvas.Screen,2_31_0_1,2022-07-14T16:07:35.972Z,,,1,A,98.74300000001676,timeout,,,305801.1000000001,305799.47,305700717,305702.1999999997,305717394,305816137,,black,NG02KI18,35,m,1,2,Immobilienkaufmann,0,0,0,0,0
Reaction,canvas.Screen,2_31_0_2,2022-07-14T16:07:36.122Z,,,1,A,133.5629999997327,response,stim_detected,mousedown,305951.5,305949.6999999997,305799.47,305801.3999999999,305816137,305967678,,black,NG02KI18,35,m,1,2,Immobilienkaufmann,0,0,0,0,0
Trial,flow.Sequence,2_31_0,2022-07-14T16:07:36.123Z,,,1,A,2483.7359999997425,completion,,,305951.8999999999,305949.6999999997,303449287,303435.3999999999,303465964,305967678,,black,NG02KI18,35,m,1,2,Immobilienkaufmann,0,0,0,0,0
Frame,canvas.Frame,2_31,2022-07-14T16:07:36.123Z,,,1,A,2486.136000000115,,,,305952.1999999997,305952.1000000001,303449287,303434.6000000001,303465964,305967678,,black,NG02KI18,35,m,1,2,Immobilienkaufmann,0,0,0,0,0
Fixation,canvas.Screen,2_32_0_0,2022-07-14T16:07:37.774Z,,,1,AV,1651.0270000000019,timeout,,,307603,307602028,305951001,305953.2999999998,305967678,307618705,,grey,NG02KI18,35,m,1,2,Immobilienkaufmann,0,0,0,0,0
Stimulus,canvas.Screen,2_32_0_1,2022-07-14T16:07:37.875Z,,,1,AV,100.19899999996414,timeout,,,307704,307702226,307602028,307603.2999999998,307618705,307718904,,grey,NG02KI18,35,m,1,2,Immobilienkaufmann,0,0,0,0,0
Reaction,canvas.Screen,2_32_0_2,2022-07-14T16:07:38.040Z,,,1,AV,148.6960000001127,response,stim_detected,mousedown,307869.1000000001,307867.6000000001,307702226,307704.2999999998,307718904,307885.62,,grey,NG02KI18,35,m,1,2,Immobilienkaufmann,0,0,0,0,0
Trial,flow.Sequence,2_32_0,2022-07-14T16:07:38.040Z,,,1,AV,1899.9220000000787,completion,,,307869.3999999999,307867.6000000001,305951001,305953.2999999998,305967678,307885.62,,grey,NG02KI18,35,m,1,2,Immobilienkaufmann,0,0,0,0,0
Frame,canvas.Frame,2_32,2022-07-14T16:07:38.040Z,,,1,AV,1901.8219999999856,,,,307869.6999999997,307869.5,305951001,305952.3999999999,305967678,307885.62,,grey,NG02KI18,35,m,1,2,Immobilienkaufmann,0,0,0,0,0
Fixation,canvas.Screen,2_33_0_0,2022-07-14T16:07:40.377Z,,,0,V,2334.4830000000075,timeout,,,310205.7999999998,310203428,307868943,307870.6999999997,307885.62,310220103,,grey,NG02KI18,35,m,1,2,Immobilienkaufmann,0,0,0,0,0
Stimulus,canvas.Screen,2_33_0_1,2022-07-14T16:07:40.476Z,,,0,V,100.50500000000466,timeout,,,310305.3999999999,310303929,310203428,310206.1000000001,310220103,310320608,,grey,NG02KI18,35,m,1,2,Immobilienkaufmann,0,0,0,0,0
Reaction,canvas.Screen,2_33_0_2,2022-07-14T16:07:40.651Z,,,0,V,158.09199999971315,response,stim_detected,mousedown,310480,310478.6999999997,310303929,310305.6999999997,310320608,310487.29,,grey,NG02KI18,35,m,1,2,Immobilienkaufmann,0,0,0,0,0
Trial,flow.Sequence,2_33_0,2022-07-14T16:07:40.651Z,,,0,V,2593.0799999997253,completion,,,310480.3999999999,310478.6999999997,307868943,307870.6999999997,307885.62,310487.29,,grey,NG02KI18,35,m,1,2,Immobilienkaufmann,0,0,0,0,0
Frame,canvas.Frame,2_33,2022-07-14T16:07:40.651Z,,,0,V,2594.8800000000047,,,,310480.6999999997,310480.5,307868943,307869.7999999998,307885.62,310487.29,,grey,NG02KI18,35,m,1,2,Immobilienkaufmann,0,0,0,0,0
Fixation,canvas.Screen,2_34_0_0,2022-07-14T16:07:42.896Z,,,0,V,2253.728000000003,timeout,,,312725.1000000001,312724324,310470614,310481.8999999999,310487.29,312741018,,grey,NG02KI18,35,m,1,2,Immobilienkaufmann,0,0,0,0,0
Stimulus,canvas.Screen,2_34_0_1,2022-07-14T16:07:42.994Z,,,0,V,97.22500000003492,timeout,,,312823.2999999998,312821.57,312724324,312725.3999999999,312741018,312838243,,grey,NG02KI18,35,m,1,2,Immobilienkaufmann,0,0,0,0,0
Reaction,canvas.Screen,2_34_0_2,2022-07-14T16:07:43.137Z,,,0,V,126.35700000007637,response,stim_detected,mousedown,312966.1000000001,312964.6000000001,312821.57,312823.5,312838243,312972304,,grey,NG02KI18,35,m,1,2,Immobilienkaufmann,0,0,0,0,0
Trial,flow.Sequence,2_34_0,2022-07-14T16:07:43.137Z,,,0,V,2477.310000000114,completion,,,312966.6000000001,312964.6000000001,310470614,310481.7999999998,310487.29,312972304,,grey,NG02KI18,35,m,1,2,Immobilienkaufmann,0,0,0,0,0
Frame,canvas.Frame,2_34,2022-07-14T16:07:43.138Z,,,0,V,2479.5099999998347,,,,312967,312966.7999999998,310470614,310481,310487.29,312972304,,grey,NG02KI18,35,m,1,2,Immobilienkaufmann,0,0,0,0,0
Fixation,canvas.Screen,2_35_0_0,2022-07-14T16:07:44.678Z,,,0,V,1550.4490000000224,timeout,,,314507.1999999997,314506081,312955627,312968.1000000001,312972304,314522753,,grey,NG02KI18,35,m,1,2,Immobilienkaufmann,0,0,0,0,0
Stimulus,canvas.Screen,2_35_0_1,2022-07-14T16:07:44.779Z,,,0,V,100.36899999994785,timeout,,,314608.1999999997,314606447,314506081,314507.5,314522753,314623122,,grey,NG02KI18,35,m,1,2,Immobilienkaufmann,0,0,0,0,0
Reaction,canvas.Screen,2_35_0_2,2022-07-14T16:07:44.983Z,,,0,V,187.57799999974668,response,stim_detected,mousedown,314812.1999999997,314810.6999999997,314606447,314608.3999999999,314623122,314823557,,grey,NG02KI18,35,m,1,2,Immobilienkaufmann,0,0,0,0,0
Trial,flow.Sequence,2_35_0,2022-07-14T16:07:44.983Z,,,0,V,1838.3959999997169,completion,,,314812.6000000001,314810.6999999997,312955627,312968,312972304,314823557,,grey,NG02KI18,35,m,1,2,Immobilienkaufmann,0,0,0,0,0
Frame,canvas.Frame,2_35,2022-07-14T16:07:44.984Z,,,0,V,1840.49599999981,,,,314812.8999999999,314812.7999999998,312955627,312967.1999999997,312972304,314823557,,grey,NG02KI18,35,m,1,2,Immobilienkaufmann,0,0,0,0,0
Fixation,canvas.Screen,2_36_0_0,2022-07-14T16:07:46.730Z,,,1,A,1750.835000000021,timeout,,,316559.3999999999,316557717,314806879,314814,314823557,316574392,,black,NG02KI18,35,m,1,2,Immobilienkaufmann,0,0,0,0,0
Stimulus,canvas.Screen,2_36_0_1,2022-07-14T16:07:46.830Z,,,1,A,100.28100000001723,timeout,,,316659.2999999998,316657997,316557717,316559.7999999998,316574392,316674673,,black,NG02KI18,35,m,1,2,Immobilienkaufmann,0,0,0,0,0
Reaction,canvas.Screen,2_36_0_2,2022-07-14T16:07:47.002Z,,,1,A,154.82699999999022,response,stim_detected,mousedown,316831,316829.5,316657997,316659.6000000001,316674673,316841497,,black,NG02KI18,35,m,1,2,Immobilienkaufmann,0,0,0,0,0
Trial,flow.Sequence,2_36_0,2022-07-14T16:07:47.002Z,,,1,A,2005.9430000000284,completion,,,316831.3999999999,316829.5,314806879,314813.8999999999,314823557,316841497,,black,NG02KI18,35,m,1,2,Immobilienkaufmann,0,0,0,0,0
Frame,canvas.Frame,2_36,2022-07-14T16:07:47.003Z,,,1,A,2008.0430000001215,,,,316831.7999999998,316831.6000000001,314806879,314813.1000000001,314823557,316841497,,black,NG02KI18,35,m,1,2,Immobilienkaufmann,0,0,0,0,0
Fixation,canvas.Screen,2_37_0_0,2022-07-14T16:07:49.467Z,,,0,V,2470.2630000000354,timeout,,,319296.5,319295069,316824.82,316833,316841497,319311.76,,grey,NG02KI18,35,m,1,2,Immobilienkaufmann,0,0,0,0,0
Stimulus,canvas.Screen,2_37_0_1,2022-07-14T16:07:49.565Z,,,0,V,98.03999999997905,timeout,,,319394.7999999998,319393124,319295069,319296.7999999998,319311.76,319409.8,,grey,NG02KI18,35,m,1,2,Immobilienkaufmann,0,0,0,0,0
Reaction,canvas.Screen,2_37_0_2,2022-07-14T16:07:49.750Z,,,0,V,167.70000000001164,response,stim_detected,mousedown,319579,319577.5,319393124,319395.1000000001,319409.8,319593339,,grey,NG02KI18,35,m,1,2,Immobilienkaufmann,0,0,0,0,0
Trial,flow.Sequence,2_37_0,2022-07-14T16:07:49.750Z,,,0,V,2736.003000000026,completion,,,319579.3999999999,319577.5,316824.82,316832.8999999999,316841497,319593339,,grey,NG02KI18,35,m,1,2,Immobilienkaufmann,0,0,0,0,0
Frame,canvas.Frame,2_37,2022-07-14T16:07:49.750Z,,,0,V,2738.003000000026,,,,319579.6999999997,319579.5,316824.82,316832.1000000001,316841497,319593339,,grey,NG02KI18,35,m,1,2,Immobilienkaufmann,0,0,0,0,0
Fixation,canvas.Screen,2_38_0_0,2022-07-14T16:07:51.701Z,,,0,V,1952.5280000000494,timeout,,,321530.3999999999,321529179,319576662,319580.7999999998,319593339,321545867,,grey,NG02KI18,35,m,1,2,Immobilienkaufmann,0,0,0,0,0
Stimulus,canvas.Screen,2_38_0_1,2022-07-14T16:07:51.799Z,,,0,V,98.82499999995343,timeout,,,321628.3999999999,321627636,321529179,321530.6999999997,321545867,321644692,,grey,NG02KI18,35,m,1,2,Immobilienkaufmann,0,0,0,0,0
Reaction,canvas.Screen,2_38_0_2,2022-07-14T16:07:51.943Z,,,0,V,125.70799999992596,response,stim_detected,mousedown,321771.8999999999,321770.3999999999,321627636,321628.6999999997,321644692,321778108,,grey,NG02KI18,35,m,1,2,Immobilienkaufmann,0,0,0,0,0
Trial,flow.Sequence,2_38_0,2022-07-14T16:07:51.943Z,,,0,V,2177.0609999999288,completion,,,321772.1999999997,321770.3999999999,319576662,319580.6999999997,319593339,321778108,,grey,NG02KI18,35,m,1,2,Immobilienkaufmann,0,0,0,0,0
Frame,canvas.Frame,2_38,2022-07-14T16:07:51.943Z,,,0,V,2179.0609999999288,,,,321772.5,321772.3999999999,319576662,319579.7999999998,319593339,321778108,,grey,NG02KI18,35,m,1,2,Immobilienkaufmann,0,0,0,0,0
Fixation,canvas.Screen,2_39_0_0,2022-07-14T16:07:54.152Z,,,1,AV,2218.7550000000047,timeout,,,323981.6999999997,323980181,321761431,321773.6000000001,321778108,323996863,,grey,NG02KI18,35,m,1,2,Immobilienkaufmann,0,0,0,0,0
Stimulus,canvas.Screen,2_39_0_1,2022-07-14T16:07:54.251Z,,,1,AV,99.30300000001444,timeout,,,324080.5,324079.49,323980181,323981.8999999999,323996863,324096166,,grey,NG02KI18,35,m,1,2,Immobilienkaufmann,0,0,0,0,0
Reaction,canvas.Screen,2_39_0_2,2022-07-14T16:07:54.402Z,,,1,AV,133.23399999988033,response,stim_detected,mousedown,324230.7999999998,324229.3999999999,324079.49,324080.7999999998,324096166,324246428,,grey,NG02KI18,35,m,1,2,Immobilienkaufmann,0,0,0,0,0
Trial,flow.Sequence,2_39_0,2022-07-14T16:07:54.402Z,,,1,AV,2451.2919999998994,completion,,,324231.1999999997,324229.3999999999,321761431,321773.5,321778108,324246428,,grey,NG02KI18,35,m,1,2,Immobilienkaufmann,0,0,0,0,0
Frame,canvas.Frame,2_39,2022-07-14T16:07:54.402Z,,,1,AV,2453.1919999998063,,,,324231.5,324231.2999999998,321761431,321772.6999999997,321778108,324246428,,grey,NG02KI18,35,m,1,2,Immobilienkaufmann,0,0,0,0,0
Fixation,canvas.Screen,2_40_0_0,2022-07-14T16:07:56.870Z,,,1,A,2468.048999999999,timeout,,,326698.8999999999,326697801,324229751,324232.6000000001,324246428,326714477,,black,NG02KI18,35,m,1,2,Immobilienkaufmann,0,0,0,0,0
Stimulus,canvas.Screen,2_40_0_1,2022-07-14T16:07:56.970Z,,,1,A,100.19899999996414,timeout,,,326799.6999999997,326798,326697801,326699.1000000001,326714477,326814676,,black,NG02KI18,35,m,1,2,Immobilienkaufmann,0,0,0,0,0
Reaction,canvas.Screen,2_40_0_2,2022-07-14T16:07:57.105Z,,,1,A,117.62399999983609,response,stim_detected,mousedown,326933.8999999999,326932.2999999998,326798,326799.8999999999,326814676,326948204,,black,NG02KI18,35,m,1,2,Immobilienkaufmann,0,0,0,0,0
Trial,flow.Sequence,2_40_0,2022-07-14T16:07:57.105Z,,,1,A,2685.8719999997993,completion,,,326934.3999999999,326932.2999999998,324229751,324232.3999999999,324246428,326948204,,black,NG02KI18,35,m,1,2,Immobilienkaufmann,0,0,0,0,0
Frame,canvas.Frame,2_40,2022-07-14T16:07:57.106Z,,,1,A,2688.0719999999856,,,,326934.7999999998,326934.5,324229751,324231.6999999997,324246428,326948204,,black,NG02KI18,35,m,1,2,Immobilienkaufmann,0,0,0,0,0
Fixation,canvas.Screen,2_41_0_0,2022-07-14T16:07:58.839Z,,,1,A,1735.0439999999944,timeout,,,328667.7999999998,328666565,326931527,326935.8999999999,326948204,328683248,,black,NG02KI18,35,m,1,2,Immobilienkaufmann,0,0,0,0,0
Stimulus,canvas.Screen,2_41_0_1,2022-07-14T16:07:58.938Z,,,1,A,99.0909999999567,timeout,,,328766.7999999998,328765666,328666565,328668.1000000001,328683248,328782339,,black,NG02KI18,35,m,1,2,Immobilienkaufmann,0,0,0,0,0
Reaction,canvas.Screen,2_41_0_2,2022-07-14T16:07:59.105Z,,,1,A,149.8609999997425,response,stim_detected,mousedown,328933.7999999998,328932.1999999997,328765666,328767.1999999997,328782339,328949522,,black,NG02KI18,35,m,1,2,Immobilienkaufmann,0,0,0,0,0
Trial,flow.Sequence,2_41_0,2022-07-14T16:07:59.105Z,,,1,A,1983.9959999996936,completion,,,328934.2999999998,328932.1999999997,326931527,326935.6999999997,326948204,328949522,,black,NG02KI18,35,m,1,2,Immobilienkaufmann,0,0,0,0,0
Frame,canvas.Frame,2_41,2022-07-14T16:07:59.105Z,,,1,A,1986.0959999997867,,,,328934.5,328934.2999999998,326931527,326935,326948204,328949522,,black,NG02KI18,35,m,1,2,Immobilienkaufmann,0,0,0,0,0
Fixation,canvas.Screen,2_42_0_0,2022-07-14T16:08:01.240Z,,,0,V,2135.0869999999995,timeout,,,331068.8999999999,331067929,328932845,328935.6000000001,328949522,331084609,,grey,NG02KI18,35,m,1,2,Immobilienkaufmann,0,0,0,0,0
Stimulus,canvas.Screen,2_42_0_1,2022-07-14T16:08:01.340Z,,,0,V,99.6940000000177,timeout,,,331168.7999999998,331167626,331067929,331069.1000000001,331084609,331184303,,grey,NG02KI18,35,m,1,2,Immobilienkaufmann,0,0,0,0,0
Reaction,canvas.Screen,2_42_0_2,2022-07-14T16:08:01.535Z,,,0,V,178.89699999970617,response,stim_detected,mousedown,331364.6999999997,331363.1999999997,331167626,331169.1000000001,331184303,331367774,,grey,NG02KI18,35,m,1,2,Immobilienkaufmann,0,0,0,0,0
Trial,flow.Sequence,2_42_0,2022-07-14T16:08:01.536Z,,,0,V,2413.6779999997234,completion,,,331365.1000000001,331363.1999999997,328932845,328935.5,328949522,331367774,,grey,NG02KI18,35,m,1,2,Immobilienkaufmann,0,0,0,0,0
Frame,canvas.Frame,2_42,2022-07-14T16:08:01.536Z,,,0,V,2415.6779999997234,,,,331365.3999999999,331365.1999999997,328932845,328934.6999999997,328949522,331367774,,grey,NG02KI18,35,m,1,2,Immobilienkaufmann,0,0,0,0,0
Fixation,canvas.Screen,2_43_0_0,2022-07-14T16:08:03.276Z,,,1,AV,1752375,timeout,,,333105,333103.46,331351097,331366.3999999999,331367774,333120149,,grey,NG02KI18,35,m,1,2,Immobilienkaufmann,0,0,0,0,0
Stimulus,canvas.Screen,2_43_0_1,2022-07-14T16:08:03.374Z,,,1,AV,98.60800000000745,timeout,,,333202.8999999999,333202082,333103.46,333105.1999999997,333120149,333218757,,grey,NG02KI18,35,m,1,2,Immobilienkaufmann,0,0,0,0,0
Reaction,canvas.Screen,2_43_0_2,2022-07-14T16:08:03.530Z,,,1,AV,139.44299999973737,response,stim_detected,mousedown,333359.6000000001,333358.1999999997,333202082,333203.1999999997,333218757,333369.13,,grey,NG02KI18,35,m,1,2,Immobilienkaufmann,0,0,0,0,0
Trial,flow.Sequence,2_43_0,2022-07-14T16:08:03.531Z,,,1,AV,1990.4259999997448,completion,,,333360,333358.1999999997,331351097,331366.3999999999,331367774,333369.13,,grey,NG02KI18,35,m,1,2,Immobilienkaufmann,0,0,0,0,0
Frame,canvas.Frame,2_43,2022-07-14T16:08:03.531Z,,,1,AV,1992.3260000001173,,,,333360.3999999999,333360.1000000001,331351097,331365.6000000001,331367774,333369.13,,grey,NG02KI18,35,m,1,2,Immobilienkaufmann,0,0,0,0,0
Fixation,canvas.Screen,2_44_0_0,2022-07-14T16:08:05.126Z,,,0,V,1600.7829999999958,timeout,,,334955.2999999998,334953238,333352453,333361.3999999999,333369.13,334969913,,grey,NG02KI18,35,m,1,2,Immobilienkaufmann,0,0,0,0,0
Stimulus,canvas.Screen,2_44_0_1,2022-07-14T16:08:05.226Z,,,0,V,100.25799999997253,timeout,,,335055.2999999998,335053495,334953238,334955.5,334969913,335070171,,grey,NG02KI18,35,m,1,2,Immobilienkaufmann,0,0,0,0,0
Reaction,canvas.Screen,2_44_0_2,2022-07-14T16:08:05.465Z,,,0,V,223.0289999997476,response,stim_detected,mousedown,335294.6000000001,335293.1999999997,335053495,335055.5,335070171,335303733,,grey,NG02KI18,35,m,1,2,Immobilienkaufmann,0,0,0,0,0
Trial,flow.Sequence,2_44_0,2022-07-14T16:08:05.466Z,,,0,V,1924.069999999716,completion,,,335295,335293.1999999997,333352453,333361.2999999998,333369.13,335303733,,grey,NG02KI18,35,m,1,2,Immobilienkaufmann,0,0,0,0,0
Frame,canvas.Frame,2_44,2022-07-14T16:08:05.466Z,,,0,V,1926.069999999716,,,,335295.3999999999,335295.1999999997,333352453,333360.5,333369.13,335303733,,grey,NG02KI18,35,m,1,2,Immobilienkaufmann,0,0,0,0,0
Fixation,canvas.Screen,2_45_0_0,2022-07-14T16:08:07.661Z,,,1,A,2201.662000000011,timeout,,,337490.1999999997,337488716,335287056,335296.3999999999,335303733,337505395,,black,NG02KI18,35,m,1,2,Immobilienkaufmann,0,0,0,0,0
Stimulus,canvas.Screen,2_45_0_1,2022-07-14T16:08:07.761Z,,,1,A,99.84799999999814,timeout,,,337590.1999999997,337588356,337488716,337490.6000000001,337505395,337605243,,black,NG02KI18,35,m,1,2,Immobilienkaufmann,0,0,0,0,0
Reaction,canvas.Screen,2_45_0_2,2022-07-14T16:08:09.262Z,,,1,A,1500.929999999993,timeout,,,339091.1000000001,339089496,337588356,337590.3999999999,337605243,339106173,,black,NG02KI18,35,m,1,2,Immobilienkaufmann,0,0,0,0,0
Trial,flow.Sequence,2_45_0,2022-07-14T16:08:09.262Z,,,1,A,3785.762999999977,completion,,,339091.6000000001,339089496,335287056,335296.2999999998,335303733,339106173,,black,NG02KI18,35,m,1,2,Immobilienkaufmann,0,0,0,0,0
Frame,canvas.Frame,2_45,2022-07-14T16:08:09.263Z,,,1,A,3787.966999999713,,,,339091.8999999999,339091.6999999997,335287056,335295.6000000001,335303733,339122.85,,black,NG02KI18,35,m,1,2,Immobilienkaufmann,0,0,0,0,0
Fixation,canvas.Screen,2_46_0_0,2022-07-14T16:08:11.229Z,,,0,V,1951.4170000000158,timeout,,,341058.5,341057449,339106173,339092.8999999999,339122.85,341074267,,grey,NG02KI18,35,m,1,2,Immobilienkaufmann,0,0,0,0,0
Stimulus,canvas.Screen,2_46_0_1,2022-07-14T16:08:11.330Z,,,0,V,100.11599999997998,timeout,,,341159.1000000001,341157697,341057449,341058.6999999997,341074267,341174383,,grey,NG02KI18,35,m,1,2,Immobilienkaufmann,0,0,0,0,0
Reaction,canvas.Screen,2_46_0_2,2022-07-14T16:08:11.473Z,,,0,V,126.61700000002747,response,stim_detected,mousedown,341302.6000000001,341301,341157697,341159.3999999999,341174383,341307.69,,grey,NG02KI18,35,m,1,2,Immobilienkaufmann,0,0,0,0,0
Trial,flow.Sequence,2_46_0,2022-07-14T16:08:11.474Z,,,0,V,2178.1500000000233,completion,,,341303,341301,339106173,339092.7999999998,339122.85,341307.69,,grey,NG02KI18,35,m,1,2,Immobilienkaufmann,0,0,0,0,0
Frame,canvas.Frame,2_46,2022-07-14T16:08:11.474Z,,,0,V,2180.1500000000233,,,,341303.1999999997,341303,339106173,339092,339122.85,341307.69,,grey,NG02KI18,35,m,1,2,Immobilienkaufmann,0,0,0,0,0
Fixation,canvas.Screen,2_47_0_0,2022-07-14T16:08:13.898Z,,,0,V,2435.0109999999986,timeout,,,343727.2999999998,343726023,341291013,341304.1999999997,341307.69,343742701,,grey,NG02KI18,35,m,1,2,Immobilienkaufmann,0,0,0,0,0
Stimulus,canvas.Screen,2_47_0_1,2022-07-14T16:08:13.998Z,,,0,V,99.82400000002235,timeout,,,343827.3999999999,343825849,343726023,343727.6000000001,343742701,343842525,,grey,NG02KI18,35,m,1,2,Immobilienkaufmann,0,0,0,0,0
Reaction,canvas.Screen,2_47_0_2,2022-07-14T16:08:14.173Z,,,0,V,158.47499999997672,response,stim_detected,mousedown,344002.3999999999,344001,343825849,343827.6999999997,343842525,344009437,,grey,NG02KI18,35,m,1,2,Immobilienkaufmann,0,0,0,0,0
Trial,flow.Sequence,2_47_0,2022-07-14T16:08:14.174Z,,,0,V,2693.3099999999977,completion,,,344002.7999999998,344001,341291013,341304.1999999997,341307.69,344009437,,grey,NG02KI18,35,m,1,2,Immobilienkaufmann,0,0,0,0,0
Frame,canvas.Frame,2_47,2022-07-14T16:08:14.174Z,,,0,V,2695.2099999999045,,,,344003.1000000001,344002.8999999999,341291013,341303.3999999999,341307.69,344009437,,grey,NG02KI18,35,m,1,2,Immobilienkaufmann,0,0,0,0,0
Fixation,canvas.Screen,2_48_0_0,2022-07-14T16:08:16.034Z,,,1,A,1869.088000000047,timeout,,,345863.3999999999,345861837,343992.76,344004.1000000001,344009437,345878525,,black,NG02KI18,35,m,1,2,Immobilienkaufmann,0,0,0,0,0
Stimulus,canvas.Screen,2_48_0_1,2022-07-14T16:08:16.132Z,,,1,A,98.39899999997579,timeout,,,345961.3999999999,345960251,345861837,345863.6999999997,345878525,345976924,,black,NG02KI18,35,m,1,2,Immobilienkaufmann,0,0,0,0,0
Reaction,canvas.Screen,2_48_0_2,2022-07-14T16:08:16.336Z,,,1,A,187.07600000000093,response,stim_detected,mousedown,346165.3999999999,346164,345960251,345961.6999999997,345976924,346177.55,,black,NG02KI18,35,m,1,2,Immobilienkaufmann,0,0,0,0,0
Trial,flow.Sequence,2_48_0,2022-07-14T16:08:16.337Z,,,1,A,2154.5630000000237,completion,,,346165.7999999998,346164,343992.76,344004,344009437,346177.55,,black,NG02KI18,35,m,1,2,Immobilienkaufmann,0,0,0,0,0
Frame,canvas.Frame,2_48,2022-07-14T16:08:16.337Z,,,1,A,2156.4629999999306,,,,346166.1000000001,346165.8999999999,343992.76,344003.1999999997,344009437,346177.55,,black,NG02KI18,35,m,1,2,Immobilienkaufmann,0,0,0,0,0
Fixation,canvas.Screen,2_49_0_0,2022-07-14T16:08:18.753Z,,,0,V,2418.1689999999944,timeout,,,348580.6000000001,348579042,346160873,346167.1000000001,346177.55,348595719,,grey,NG02KI18,35,m,1,2,Immobilienkaufmann,0,0,0,0,0
Stimulus,canvas.Screen,2_49_0_1,2022-07-14T16:08:18.853Z,,,0,V,100.22899999999208,timeout,,,348680.6999999997,348679268,348579042,348580.7999999998,348595719,348695948,,grey,NG02KI18,35,m,1,2,Immobilienkaufmann,0,0,0,0,0
Reaction,canvas.Screen,2_49_0_2,2022-07-14T16:08:19.046Z,,,0,V,176.951999999932,response,stim_detected,mousedown,348874.2999999998,348872.8999999999,348679268,348681,348695948,348896.03,,grey,NG02KI18,35,m,1,2,Immobilienkaufmann,0,0,0,0,0
Trial,flow.Sequence,2_49_0,2022-07-14T16:08:19.047Z,,,0,V,2695.3499999999185,completion,,,348874.7999999998,348872.8999999999,346160873,346167,346177.55,348896.03,,grey,NG02KI18,35,m,1,2,Immobilienkaufmann,0,0,0,0,0
Frame,canvas.Frame,2_49,2022-07-14T16:08:19.047Z,,,0,V,2697.3499999999185,,,,348875.1999999997,348874.8999999999,346160873,346166.1999999997,346177.55,348896.03,,grey,NG02KI18,35,m,1,2,Immobilienkaufmann,0,0,0,0,0
Fixation,canvas.Screen,2_50_0_0,2022-07-14T16:08:20.587Z,,,1,AV,1534.7309999999707,timeout,,,350415.6000000001,350414079,348862676,348876.3999999999,348896.03,350430761,,grey,NG02KI18,35,m,1,2,Immobilienkaufmann,0,0,0,0,0
Stimulus,canvas.Screen,2_50_0_1,2022-07-14T16:08:20.687Z,,,1,AV,99.21399999997811,timeout,,,350514.8999999999,350513302,350414079,350416,350430761,350529975,,grey,NG02KI18,35,m,1,2,Immobilienkaufmann,0,0,0,0,0
Reaction,canvas.Screen,2_50_0_2,2022-07-14T16:08:21.021Z,,,1,AV,317.824999999837,response,stim_detected,mousedown,350849.6000000001,350847.7999999998,350513302,350515.1000000001,350529975,350864,,grey,NG02KI18,35,m,1,2,Immobilienkaufmann,0,0,0,0,0
Trial,flow.Sequence,2_50_0,2022-07-14T16:08:21.022Z,,,1,AV,1951.7699999997858,completion,,,350849.8999999999,350847.7999999998,348862676,348876.1999999997,348896.03,350864,,grey,NG02KI18,35,m,1,2,Immobilienkaufmann,0,0,0,0,0
Frame,canvas.Frame,2_50,2022-07-14T16:08:21.022Z,,,1,AV,1953.969999999972,,,,350850.1999999997,350850,348862676,348875.3999999999,348896.03,350864,,grey,NG02KI18,35,m,1,2,Immobilienkaufmann,0,0,0,0,0
Fixation,canvas.Screen,2_51_0_0,2022-07-14T16:08:23.155Z,,,1,AV,2133.917000000016,timeout,,,352983.1000000001,352981245,350847323,350851.5,350864,352997917,,grey,NG02KI18,35,m,1,2,Immobilienkaufmann,0,0,0,0,0
Stimulus,canvas.Screen,2_51_0_1,2022-07-14T16:08:23.256Z,,,1,AV,100.70899999997346,timeout,,,353083.7999999998,353081.95,352981245,352983.3999999999,352997917,353098626,,grey,NG02KI18,35,m,1,2,Immobilienkaufmann,0,0,0,0,0
Reaction,canvas.Screen,2_51_0_2,2022-07-14T16:08:23.396Z,,,1,AV,124.17399999982445,response,stim_detected,mousedown,353224.1999999997,353222.7999999998,353081.95,353084,353098626,353232226,,grey,NG02KI18,35,m,1,2,Immobilienkaufmann,0,0,0,0,0
Trial,flow.Sequence,2_51_0,2022-07-14T16:08:23.397Z,,,1,AV,2358.7999999998137,completion,,,353224.6000000001,353222.7999999998,350847323,350851.3999999999,350864,353232226,,grey,NG02KI18,35,m,1,2,Immobilienkaufmann,0,0,0,0,0
Frame,canvas.Frame,2_51,2022-07-14T16:08:23.397Z,,,1,AV,2360.6999999997206,,,,353224.8999999999,353224.6999999997,350847323,350850.3999999999,350864,353232226,,grey,NG02KI18,35,m,1,2,Immobilienkaufmann,0,0,0,0,0
Fixation,canvas.Screen,2_52_0_0,2022-07-14T16:08:25.808Z,,,1,AV,2418.7709999999497,timeout,,,355635.8999999999,355634316,353215549,353226,353232226,355650997,,grey,NG02KI18,35,m,1,2,Immobilienkaufmann,0,0,0,0,0
Stimulus,canvas.Screen,2_52_0_1,2022-07-14T16:08:25.907Z,,,1,AV,99.58100000000559,timeout,,,355735,355733901,355634316,355636.3999999999,355650997,355750578,,grey,NG02KI18,35,m,1,2,Immobilienkaufmann,0,0,0,0,0
Reaction,canvas.Screen,2_52_0_2,2022-07-14T16:08:26.035Z,,,1,AV,111.22199999983422,response,stim_detected,mousedown,355863.2999999998,355861.7999999998,355733901,355735.1999999997,355750578,355867304,,grey,NG02KI18,35,m,1,2,Immobilienkaufmann,0,0,0,0,0
Trial,flow.Sequence,2_52_0,2022-07-14T16:08:26.035Z,,,1,AV,2629.5739999997895,completion,,,355863.6000000001,355861.7999999998,353215549,353225.8999999999,353232226,355867304,,grey,NG02KI18,35,m,1,2,Immobilienkaufmann,0,0,0,0,0
Frame,canvas.Frame,2_52,2022-07-14T16:08:26.036Z,,,1,AV,2631.4739999996964,,,,355863.8999999999,355863.6999999997,353215549,353225.1000000001,353232226,355867304,,grey,NG02KI18,35,m,1,2,Immobilienkaufmann,0,0,0,0,0
Fixation,canvas.Screen,2_53_0_0,2022-07-14T16:08:28.459Z,,,0,V,2434.9899999999907,timeout,,,358287,358285616,355850627,355864.8999999999,355867304,358302294,,grey,NG02KI18,35,m,1,2,Immobilienkaufmann,0,0,0,0,0
Stimulus,canvas.Screen,2_53_0_1,2022-07-14T16:08:28.558Z,,,0,V,99.16700000001583,timeout,,,358385.8999999999,358384789,358285616,358287.3999999999,358302294,358401461,,grey,NG02KI18,35,m,1,2,Immobilienkaufmann,0,0,0,0,0
Reaction,canvas.Screen,2_53_0_2,2022-07-14T16:08:28.702Z,,,0,V,127.23899999971036,response,stim_detected,mousedown,358530.1999999997,358528.6999999997,358384789,358386.1999999997,358401461,358535699,,grey,NG02KI18,35,m,1,2,Immobilienkaufmann,0,0,0,0,0
Trial,flow.Sequence,2_53_0,2022-07-14T16:08:28.702Z,,,0,V,2661.395999999717,completion,,,358530.5,358528.6999999997,355850627,355864.7999999998,355867304,358535699,,grey,NG02KI18,35,m,1,2,Immobilienkaufmann,0,0,0,0,0
Frame,canvas.Frame,2_53,2022-07-14T16:08:28.703Z,,,0,V,2663.2960000000894,,,,358530.7999999998,358530.6000000001,355850627,355864.1000000001,355867304,358535699,,grey,NG02KI18,35,m,1,2,Immobilienkaufmann,0,0,0,0,0
Fixation,canvas.Screen,2_54_0_0,2022-07-14T16:08:30.928Z,,,1,A,2235.2919999999576,timeout,,,360756,360754.31,358519022,358531.7999999998,358535699,360770991,,black,NG02KI18,35,m,1,2,Immobilienkaufmann,0,0,0,0,0
Stimulus,canvas.Screen,2_54_0_1,2022-07-14T16:08:31.027Z,,,1,A,99.17999999999302,timeout,,,360855.1000000001,360853497,360754.31,360756.1999999997,360770991,360870171,,black,NG02KI18,35,m,1,2,Immobilienkaufmann,0,0,0,0,0
Reaction,canvas.Screen,2_54_0_2,2022-07-14T16:08:31.196Z,,,1,A,152.42900000012014,response,stim_detected,mousedown,361024.3999999999,361022.6000000001,360853497,360855.3999999999,360870171,361037329,,black,NG02KI18,35,m,1,2,Immobilienkaufmann,0,0,0,0,0
Trial,flow.Sequence,2_54_0,2022-07-14T16:08:31.197Z,,,1,A,2486.901000000071,completion,,,361024.7999999998,361022.6000000001,358519022,358531.7999999998,358535699,361037329,,black,NG02KI18,35,m,1,2,Immobilienkaufmann,0,0,0,0,0
Frame,canvas.Frame,2_54,2022-07-14T16:08:31.197Z,,,1,A,2489.3009999999776,,,,361025.1999999997,361025,358519022,358531,358535699,361037329,,black,NG02KI18,35,m,1,2,Immobilienkaufmann,0,0,0,0,0
Fixation,canvas.Screen,2_55_0_0,2022-07-14T16:08:32.880Z,,,1,AV,1686.0209999999497,timeout,,,362708.1999999997,362706657,361020652,361026.2999999998,361037329,362723.35,,grey,NG02KI18,35,m,1,2,Immobilienkaufmann,0,0,0,0,0
Stimulus,canvas.Screen,2_55_0_1,2022-07-14T16:08:32.978Z,,,1,AV,98.01800000004005,timeout,,,362806.1000000001,362804695,362706657,362708.5,362723.35,362821368,,grey,NG02KI18,35,m,1,2,Immobilienkaufmann,0,0,0,0,0
Reaction,canvas.Screen,2_55_0_2,2022-07-14T16:08:33.119Z,,,1,AV,124.23200000007637,response,stim_detected,mousedown,362947.1000000001,362945.6000000001,362804695,362806.3999999999,362821368,362955328,,grey,NG02KI18,35,m,1,2,Immobilienkaufmann,0,0,0,0,0
Trial,flow.Sequence,2_55_0,2022-07-14T16:08:33.120Z,,,1,AV,1908.2710000000661,completion,,,362947.6999999997,362945.6000000001,361020652,361026.1999999997,361037329,362955328,,grey,NG02KI18,35,m,1,2,Immobilienkaufmann,0,0,0,0,0
Frame,canvas.Frame,2_55,2022-07-14T16:08:33.120Z,,,1,AV,1910.4709999997867,,,,362948,362947.7999999998,361020652,361025.5,361037329,362955328,,grey,NG02KI18,35,m,1,2,Immobilienkaufmann,0,0,0,0,0
Fixation,canvas.Screen,2_56_0_0,2022-07-14T16:08:34.912Z,,,1,AV,1800.6359999999986,timeout,,,364740.1999999997,364739291,362938.65,362949.1000000001,362955328,364755964,,grey,NG02KI18,35,m,1,2,Immobilienkaufmann,0,0,0,0,0
Stimulus,canvas.Screen,2_56_0_1,2022-07-14T16:08:35.013Z,,,1,AV,100.30600000004051,timeout,,,364841.1000000001,364839595,364739291,364740.5,364755964,364856.27,,grey,NG02KI18,35,m,1,2,Immobilienkaufmann,0,0,0,0,0
Reaction,canvas.Screen,2_56_0_2,2022-07-14T16:08:35.157Z,,,1,AV,127.3300000000745,response,stim_detected,mousedown,364985.1999999997,364983.6000000001,364839595,364841.3999999999,364856.27,364989961,,grey,NG02KI18,35,m,1,2,Immobilienkaufmann,0,0,0,0,0
Trial,flow.Sequence,2_56_0,2022-07-14T16:08:35.158Z,,,1,AV,2028.2720000001136,completion,,,364985.6999999997,364983.6000000001,362938.65,362949,362955328,364989961,,grey,NG02KI18,35,m,1,2,Immobilienkaufmann,0,0,0,0,0
Frame,canvas.Frame,2_56,2022-07-14T16:08:35.158Z,,,1,AV,2030.371999999741,,,,364985.8999999999,364985.6999999997,362938.65,362948.1000000001,362955328,364989961,,grey,NG02KI18,35,m,1,2,Immobilienkaufmann,0,0,0,0,0
Fixation,canvas.Screen,2_57_0_0,2022-07-14T16:08:37.116Z,,,1,A,1969.3099999999977,timeout,,,366944.2999999998,366942582,364973284,364987,364989961,366959271,,black,NG02KI18,35,m,1,2,Immobilienkaufmann,0,0,0,0,0
Stimulus,canvas.Screen,2_57_0_1,2022-07-14T16:08:37.214Z,,,1,A,98.00699999998324,timeout,,,367042.2999999998,367040607,366942582,366944.5,366959271,367057278,,black,NG02KI18,35,m,1,2,Immobilienkaufmann,0,0,0,0,0
Reaction,canvas.Screen,2_57_0_2,2022-07-14T16:08:37.344Z,,,1,A,113.32200000010198,response,stim_detected,mousedown,367172.1000000001,367170.6000000001,367040607,367042.6000000001,367057278,367174768,,black,NG02KI18,35,m,1,2,Immobilienkaufmann,0,0,0,0,0
Trial,flow.Sequence,2_57_0,2022-07-14T16:08:37.344Z,,,1,A,2180.639000000083,completion,,,367172.3999999999,367170.6000000001,364973284,364986.8999999999,364989961,367174768,,black,NG02KI18,35,m,1,2,Immobilienkaufmann,0,0,0,0,0
Frame,canvas.Frame,2_57,2022-07-14T16:08:37.345Z,,,1,A,2182.639000000083,,,,367172.7999999998,367172.6000000001,364973284,364986.1000000001,364989961,367174768,,black,NG02KI18,35,m,1,2,Immobilienkaufmann,0,0,0,0,0
Fixation,canvas.Screen,2_58_0_0,2022-07-14T16:08:39.082Z,,,1,AV,1750.6359999999986,timeout,,,368910.2999999998,368908731,367158091,367173.7999999998,367174768,368925404,,grey,NG02KI18,35,m,1,2,Immobilienkaufmann,0,0,0,0,0
Stimulus,canvas.Screen,2_58_0_1,2022-07-14T16:08:39.182Z,,,1,AV,100.63900000002468,timeout,,,369010.2999999998,369009365,368908731,368910.6000000001,368925404,369026043,,grey,NG02KI18,35,m,1,2,Immobilienkaufmann,0,0,0,0,0
Reaction,canvas.Screen,2_58_0_2,2022-07-14T16:08:39.306Z,,,1,AV,106.55700000008801,response,stim_detected,mousedown,369134.1999999997,369132.6000000001,369009365,369010.5,369026043,369142704,,grey,NG02KI18,35,m,1,2,Immobilienkaufmann,0,0,0,0,0
Trial,flow.Sequence,2_58_0,2022-07-14T16:08:39.307Z,,,1,AV,1957.8320000001113,completion,,,369134.6999999997,369132.6000000001,367158091,367173.6999999997,367174768,369142704,,grey,NG02KI18,35,m,1,2,Immobilienkaufmann,0,0,0,0,0
Frame,canvas.Frame,2_58,2022-07-14T16:08:39.307Z,,,1,AV,1960.031999999832,,,,369135.1000000001,369134.7999999998,367158091,367172.8999999999,367174768,369142704,,grey,NG02KI18,35,m,1,2,Immobilienkaufmann,0,0,0,0,0
Fixation,canvas.Screen,2_59_0_0,2022-07-14T16:08:41.150Z,,,1,AV,1851.5189999999711,timeout,,,370978.5,370977543,369126027,369136.1999999997,369142704,370994223,,grey,NG02KI18,35,m,1,2,Immobilienkaufmann,0,0,0,0,0
Stimulus,canvas.Screen,2_59_0_1,2022-07-14T16:08:41.250Z,,,1,AV,99.85499999998137,timeout,,,371078.3999999999,371077.4,370977543,370978.6000000001,370994223,371094078,,grey,NG02KI18,35,m,1,2,Immobilienkaufmann,0,0,0,0,0
Reaction,canvas.Screen,2_59_0_2,2022-07-14T16:08:41.385Z,,,1,AV,117.42200000002049,response,stim_detected,mousedown,371213,371211.5,371077.4,371078.6999999997,371094078,371227456,,grey,NG02KI18,35,m,1,2,Immobilienkaufmann,0,0,0,0,0
Trial,flow.Sequence,2_59_0,2022-07-14T16:08:41.385Z,,,1,AV,2068.795999999973,completion,,,371213.2999999998,371211.5,369126027,369136.1999999997,369142704,371227456,,grey,NG02KI18,35,m,1,2,Immobilienkaufmann,0,0,0,0,0
Frame,canvas.Frame,2_59,2022-07-14T16:08:41.386Z,,,1,AV,2070.795999999973,,,,371213.6000000001,371213.5,369126027,369135.2999999998,369142704,371227456,,grey,NG02KI18,35,m,1,2,Immobilienkaufmann,0,0,0,0,0
Fixation,canvas.Screen,2_60_0_0,2022-07-14T16:08:43.451Z,,,1,A,2067.1419999999925,timeout,,,373279.6000000001,373277927,371210779,371214.6999999997,371227456,373294598,,black,NG02KI18,35,m,1,2,Immobilienkaufmann,0,0,0,0,0
Stimulus,canvas.Screen,2_60_0_1,2022-07-14T16:08:43.552Z,,,1,A,101.10800000000745,timeout,,,373380.5,373379027,373277927,373280,373294598,373395706,,black,NG02KI18,35,m,1,2,Immobilienkaufmann,0,0,0,0,0
Reaction,canvas.Screen,2_60_0_2,2022-07-14T16:08:43.675Z,,,1,A,105.69399999990128,response,stim_detected,mousedown,373503.1999999997,373501.3999999999,373379027,373380.7999999998,373395706,373512293,,black,NG02KI18,35,m,1,2,Immobilienkaufmann,0,0,0,0,0
Trial,flow.Sequence,2_60_0,2022-07-14T16:08:43.676Z,,,1,A,2273.9439999999013,completion,,,373503.6999999997,373501.3999999999,371210779,371214.6000000001,371227456,373512293,,black,NG02KI18,35,m,1,2,Immobilienkaufmann,0,0,0,0,0
Frame,canvas.Frame,2_60,2022-07-14T16:08:43.676Z,,,1,A,2276.343999999808,,,,373504,373503.7999999998,371210779,371213.7999999998,371227456,373512293,,black,NG02KI18,35,m,1,2,Immobilienkaufmann,0,0,0,0,0
Fixation,canvas.Screen,2_61_0_0,2022-07-14T16:08:46.171Z,,,1,AV,2501.8759999999893,timeout,,,375998.6999999997,375997.49,373495616,373505.1000000001,373512293,376014169,,grey,NG02KI18,35,m,1,2,Immobilienkaufmann,0,0,0,0,0
Stimulus,canvas.Screen,2_61_0_1,2022-07-14T16:08:46.271Z,,,1,AV,99.59799999999814,timeout,,,376098.6999999997,376097091,375997.49,375999,376014169,376113767,,grey,NG02KI18,35,m,1,2,Immobilienkaufmann,0,0,0,0,0
Reaction,canvas.Screen,2_61_0_2,2022-07-14T16:08:46.387Z,,,1,AV,99.63299999991432,response,stim_detected,mousedown,376214.8999999999,376213.3999999999,376097091,376099,376113767,376230733,,grey,NG02KI18,35,m,1,2,Immobilienkaufmann,0,0,0,0,0
Trial,flow.Sequence,2_61_0,2022-07-14T16:08:46.387Z,,,1,AV,2701.1069999999017,completion,,,376215.2999999998,376213.3999999999,373495616,373505,373512293,376230733,,grey,NG02KI18,35,m,1,2,Immobilienkaufmann,0,0,0,0,0
Frame,canvas.Frame,2_61,2022-07-14T16:08:46.387Z,,,1,AV,2703.1069999999017,,,,376215.6000000001,376215.3999999999,373495616,373504.1999999997,373512293,376230733,,grey,NG02KI18,35,m,1,2,Immobilienkaufmann,0,0,0,0,0
Fixation,canvas.Screen,2_62_0_0,2022-07-14T16:08:47.989Z,,,1,A,1601.801999999967,timeout,,,377816.6999999997,377815.85,376214056,376216.8999999999,376230733,377832535,,black,NG02KI18,35,m,1,2,Immobilienkaufmann,0,0,0,0,0
Stimulus,canvas.Screen,2_62_0_1,2022-07-14T16:08:48.089Z,,,1,A,99.28100000001723,timeout,,,377916.6999999997,377915.14,377815.85,377817,377832535,377931816,,black,NG02KI18,35,m,1,2,Immobilienkaufmann,0,0,0,0,0
Reaction,canvas.Screen,2_62_0_2,2022-07-14T16:08:48.281Z,,,1,A,175.58399999991525,response,stim_detected,mousedown,378108.7999999998,378107.3999999999,377915.14,377917,377931816,378115338,,black,NG02KI18,35,m,1,2,Immobilienkaufmann,0,0,0,0,0
Trial,flow.Sequence,2_62_0,2022-07-14T16:08:48.281Z,,,1,A,1876.6669999998994,completion,,,378109.1999999997,378107.3999999999,376214056,376216.8999999999,376230733,378115338,,black,NG02KI18,35,m,1,2,Immobilienkaufmann,0,0,0,0,0
Frame,canvas.Frame,2_62,2022-07-14T16:08:48.281Z,,,1,A,1878.5669999998063,,,,378109.3999999999,378109.2999999998,376214056,376215.6999999997,376230733,378115338,,black,NG02KI18,35,m,1,2,Immobilienkaufmann,0,0,0,0,0
Fixation,canvas.Screen,2_63_0_0,2022-07-14T16:08:50.641Z,,,1,AV,2368.7399999999907,timeout,,,380468.8999999999,380467397,378098661,378110.6000000001,378115338,380484078,,grey,NG02KI18,35,m,1,2,Immobilienkaufmann,0,0,0,0,0
Stimulus,canvas.Screen,2_63_0_1,2022-07-14T16:08:50.740Z,,,1,AV,99.2609999999986,timeout,,,380568,380566664,380467397,380469.1000000001,380484078,380583339,,grey,NG02KI18,35,m,1,2,Immobilienkaufmann,0,0,0,0,0
Reaction,canvas.Screen,2_63_0_2,2022-07-14T16:08:50.894Z,,,1,AV,137.3609999997425,response,stim_detected,mousedown,380722.2999999998,380720.6999999997,380566664,380568.1999999997,380583339,380733708,,grey,NG02KI18,35,m,1,2,Immobilienkaufmann,0,0,0,0,0
Trial,flow.Sequence,2_63_0,2022-07-14T16:08:50.895Z,,,1,AV,2605.361999999732,completion,,,380722.6999999997,380720.6999999997,378098661,378110.5,378115338,380733708,,grey,NG02KI18,35,m,1,2,Immobilienkaufmann,0,0,0,0,0
Frame,canvas.Frame,2_63,2022-07-14T16:08:50.895Z,,,1,AV,2607.461999999825,,,,380723,380722.7999999998,378098661,378109.6999999997,378115338,380733708,,grey,NG02KI18,35,m,1,2,Immobilienkaufmann,0,0,0,0,0
Fixation,canvas.Screen,2_64_0_0,2022-07-14T16:08:52.908Z,,,0,V,2017.9270000000251,timeout,,,382735.7999999998,382734958,380717031,380724.1000000001,380733708,382751635,,grey,NG02KI18,35,m,1,2,Immobilienkaufmann,0,0,0,0,0
Stimulus,canvas.Screen,2_64_0_1,2022-07-14T16:08:53.009Z,,,0,V,100.27799999999115,timeout,,,382836.7999999998,382835235,382734958,382736.1000000001,382751635,382851913,,grey,NG02KI18,35,m,1,2,Immobilienkaufmann,0,0,0,0,0
Reaction,canvas.Screen,2_64_0_2,2022-07-14T16:08:53.168Z,,,0,V,142.38699999981327,response,stim_detected,mousedown,382995.6999999997,382994.2999999998,382835235,382837.1999999997,382851913,383018582,,grey,NG02KI18,35,m,1,2,Immobilienkaufmann,0,0,0,0,0
Trial,flow.Sequence,2_64_0,2022-07-14T16:08:53.168Z,,,0,V,2260.5919999998296,completion,,,382996,382994.2999999998,380717031,380724,380733708,383018582,,grey,NG02KI18,35,m,1,2,Immobilienkaufmann,0,0,0,0,0
Frame,canvas.Frame,2_64,2022-07-14T16:08:53.168Z,,,0,V,2262.4919999997364,,,,382996.3999999999,382996.1999999997,380717031,380723.1999999997,380733708,383018582,,grey,NG02KI18,35,m,1,2,Immobilienkaufmann,0,0,0,0,0
Fixation,canvas.Screen,2_65_0_0,2022-07-14T16:08:55.093Z,,,1,AV,1917.7399999999907,timeout,,,384920.8999999999,384919646,382985228,382997.5,383018582,384936322,,grey,NG02KI18,35,m,1,2,Immobilienkaufmann,0,0,0,0,0
Stimulus,canvas.Screen,2_65_0_1,2022-07-14T16:08:55.193Z,,,1,AV,100.00200000003679,timeout,,,385020.8999999999,385019649,384919646,384921.2999999998,384936322,385036324,,grey,NG02KI18,35,m,1,2,Immobilienkaufmann,0,0,0,0,0
Reaction,canvas.Screen,2_65_0_2,2022-07-14T16:08:55.331Z,,,1,AV,120.97599999979138,response,stim_detected,mousedown,385158.6999999997,385157.2999999998,385019649,385021.1999999997,385036324,385169983,,grey,NG02KI18,35,m,1,2,Immobilienkaufmann,0,0,0,0,0
Trial,flow.Sequence,2_65_0,2022-07-14T16:08:55.331Z,,,1,AV,2138.717999999819,completion,,,385159.1999999997,385157.2999999998,382985228,382997.3999999999,383018582,385169983,,grey,NG02KI18,35,m,1,2,Immobilienkaufmann,0,0,0,0,0
Frame,canvas.Frame,2_65,2022-07-14T16:08:55.331Z,,,1,AV,2140.717999999819,,,,385159.5,385159.2999999998,382985228,382996.5,383018582,385169983,,grey,NG02KI18,35,m,1,2,Immobilienkaufmann,0,0,0,0,0
Fixation,canvas.Screen,2_66_0_0,2022-07-14T16:08:56.844Z,,,1,A,1517.8090000000084,timeout,,,386671.8999999999,386671113,385153306,385160.5,385169983,386687792,,black,NG02KI18,35,m,1,2,Immobilienkaufmann,0,0,0,0,0
Stimulus,canvas.Screen,2_66_0_1,2022-07-14T16:08:56.944Z,,,1,A,99.90999999997439,timeout,,,386772,386771025,386671113,386672.2999999998,386687792,386787702,,black,NG02KI18,35,m,1,2,Immobilienkaufmann,0,0,0,0,0
Reaction,canvas.Screen,2_66_0_2,2022-07-14T16:08:57.078Z,,,1,A,116.59799999982351,response,stim_detected,mousedown,386905.6999999997,386904.2999999998,386771025,386772.1999999997,386787702,386921146,,black,NG02KI18,35,m,1,2,Immobilienkaufmann,0,0,0,0,0
Trial,flow.Sequence,2_66_0,2022-07-14T16:08:57.078Z,,,1,A,1734.3169999998063,completion,,,386906,386904.2999999998,385153306,385160.3999999999,385169983,386921146,,black,NG02KI18,35,m,1,2,Immobilienkaufmann,0,0,0,0,0
Frame,canvas.Frame,2_66,2022-07-14T16:08:57.078Z,,,1,A,1736.1170000000857,,,,386906.2999999998,386906.1000000001,385153306,385159.6000000001,385169983,386921146,,black,NG02KI18,35,m,1,2,Immobilienkaufmann,0,0,0,0,0
Fixation,canvas.Screen,2_67_0_0,2022-07-14T16:08:59.562Z,,,1,AV,2484.396999999997,timeout,,,389390.3999999999,389388869,386904469,386907.3999999999,386921146,389405543,,grey,NG02KI18,35,m,1,2,Immobilienkaufmann,0,0,0,0,0
Stimulus,canvas.Screen,2_67_0_1,2022-07-14T16:08:59.663Z,,,1,AV,100.8059999999823,timeout,,,389491.1999999997,389489.67,389388869,389390.6000000001,389405543,389506349,,grey,NG02KI18,35,m,1,2,Immobilienkaufmann,0,0,0,0,0
Reaction,canvas.Screen,2_67_0_2,2022-07-14T16:08:59.784Z,,,1,AV,103.95099999982631,response,stim_detected,mousedown,389611.7999999998,389610.2999999998,389489.67,389491.3999999999,389506349,389622941,,grey,NG02KI18,35,m,1,2,Immobilienkaufmann,0,0,0,0,0
Trial,flow.Sequence,2_67_0,2022-07-14T16:08:59.784Z,,,1,AV,2689.153999999806,completion,,,389612.1999999997,389610.2999999998,386904469,386907.2999999998,386921146,389622941,,grey,NG02KI18,35,m,1,2,Immobilienkaufmann,0,0,0,0,0
Frame,canvas.Frame,2_67,2022-07-14T16:08:59.784Z,,,1,AV,2691.153999999806,,,,389612.5,389612.2999999998,386904469,386906.5,386921146,389622941,,grey,NG02KI18,35,m,1,2,Immobilienkaufmann,0,0,0,0,0
Fixation,canvas.Screen,2_68_0_0,2022-07-14T16:09:01.513Z,,,1,A,1733.5040000000154,timeout,,,391341.1999999997,391339776,389606264,389613.6999999997,389622941,391356445,,black,NG02KI18,35,m,1,2,Immobilienkaufmann,0,0,0,0,0
Stimulus,canvas.Screen,2_68_0_1,2022-07-14T16:09:01.614Z,,,1,A,100.93300000001909,timeout,,,391442.2999999998,391440702,391339776,391341.3999999999,391356445,391457378,,black,NG02KI18,35,m,1,2,Immobilienkaufmann,0,0,0,0,0
Reaction,canvas.Screen,2_68_0_2,2022-07-14T16:09:01.757Z,,,1,A,126.82199999969453,response,stim_detected,mousedown,391585.5,391584.1999999997,391440702,391442.5,391457378,391590883,,black,NG02KI18,35,m,1,2,Immobilienkaufmann,0,0,0,0,0
Trial,flow.Sequence,2_68_0,2022-07-14T16:09:01.758Z,,,1,A,1961.258999999729,completion,,,391586,391584.1999999997,389606264,389613.6000000001,389622941,391590883,,black,NG02KI18,35,m,1,2,Immobilienkaufmann,0,0,0,0,0
Frame,canvas.Frame,2_68,2022-07-14T16:09:01.758Z,,,1,A,1963.1590000001015,,,,391586.2999999998,391586.1000000001,389606264,389612.6999999997,389622941,391590883,,black,NG02KI18,35,m,1,2,Immobilienkaufmann,0,0,0,0,0
Fixation,canvas.Screen,2_69_0_0,2022-07-14T16:09:03.983Z,,,1,A,2235.4430000000284,timeout,,,393811.3999999999,393809644,391574206,391587.2999999998,391590883,393826326,,black,NG02KI18,35,m,1,2,Immobilienkaufmann,0,0,0,0,0
Stimulus,canvas.Screen,2_69_0_1,2022-07-14T16:09:04.082Z,,,1,A,99.48300000000745,timeout,,,393910.2999999998,393909131,393809644,393811.6999999997,393826326,393925809,,black,NG02KI18,35,m,1,2,Immobilienkaufmann,0,0,0,0,0
Reaction,canvas.Screen,2_69_0_2,2022-07-14T16:09:04.217Z,,,1,A,118.29100000008475,response,stim_detected,mousedown,394045.5,394044.1000000001,393909131,393910.6999999997,393925809,394059182,,black,NG02KI18,35,m,1,2,Immobilienkaufmann,0,0,0,0,0
Trial,flow.Sequence,2_69_0,2022-07-14T16:09:04.218Z,,,1,A,2453.2170000001206,completion,,,394045.7999999998,394044.1000000001,391574206,391587.1999999997,391590883,394059182,,black,NG02KI18,35,m,1,2,Immobilienkaufmann,0,0,0,0,0
Frame,canvas.Frame,2_69,2022-07-14T16:09:04.218Z,,,1,A,2455.1170000000275,,,,394046.1999999997,394046,391574206,391586.5,391590883,394059182,,black,NG02KI18,35,m,1,2,Immobilienkaufmann,0,0,0,0,0
Fixation,canvas.Screen,2_70_0_0,2022-07-14T16:09:06.235Z,,,1,A,2019.240000000049,timeout,,,396063.2999999998,396061735,394042505,394047.1999999997,394059182,396078422,,black,NG02KI18,35,m,1,2,Immobilienkaufmann,0,0,0,0,0
Stimulus,canvas.Screen,2_70_0_1,2022-07-14T16:09:06.333Z,,,1,A,98.84599999996135,timeout,,,396161.3999999999,396160293,396061735,396063.6000000001,396078422,396177268,,black,NG02KI18,35,m,1,2,Immobilienkaufmann,0,0,0,0,0
Reaction,canvas.Screen,2_70_0_2,2022-07-14T16:09:06.450Z,,,1,A,99.8320000001113,response,stim_detected,mousedown,396278.6000000001,396277.1000000001,396160293,396161.6999999997,396177268,396294007,,black,NG02KI18,35,m,1,2,Immobilienkaufmann,0,0,0,0,0
Trial,flow.Sequence,2_70_0,2022-07-14T16:09:06.451Z,,,1,A,2217.9180000001215,completion,,,396278.8999999999,396277.1000000001,394042505,394047.1000000001,394059182,396294007,,black,NG02KI18,35,m,1,2,Immobilienkaufmann,0,0,0,0,0
Frame,canvas.Frame,2_70,2022-07-14T16:09:06.451Z,,,1,A,2219.8180000000284,,,,396279.1999999997,396279,394042505,394046.2999999998,394059182,396294007,,black,NG02KI18,35,m,1,2,Immobilienkaufmann,0,0,0,0,0
Fixation,canvas.Screen,2_71_0_0,2022-07-14T16:09:08.785Z,,,1,A,2334.7889999999898,timeout,,,398613.6000000001,398612119,396277.33,396280.1999999997,396294007,398628796,,black,NG02KI18,35,m,1,2,Immobilienkaufmann,0,0,0,0,0
Stimulus,canvas.Screen,2_71_0_1,2022-07-14T16:09:08.886Z,,,1,A,100.11200000002282,timeout,,,398714.2999999998,398712231,398612119,398613.8999999999,398628796,398728908,,black,NG02KI18,35,m,1,2,Immobilienkaufmann,0,0,0,0,0
Reaction,canvas.Screen,2_71_0_2,2022-07-14T16:09:09.015Z,,,1,A,113.09200000000419,response,stim_detected,mousedown,398843.5,398842,398712231,398714.5,398728908,398845672,,black,NG02KI18,35,m,1,2,Immobilienkaufmann,0,0,0,0,0
Trial,flow.Sequence,2_71_0,2022-07-14T16:09:09.016Z,,,1,A,2547.9930000000168,completion,,,398843.8999999999,398842,396277.33,396280.1999999997,396294007,398845672,,black,NG02KI18,35,m,1,2,Immobilienkaufmann,0,0,0,0,0
Frame,canvas.Frame,2_71,2022-07-14T16:09:09.016Z,,,1,A,2549.9930000000168,,,,398844.1999999997,398844,396277.33,396279.3999999999,396294007,398845672,,black,NG02KI18,35,m,1,2,Immobilienkaufmann,0,0,0,0,0
Fixation,canvas.Screen,2_72_0_0,2022-07-14T16:09:10.770Z,,,1,AV,1768.420999999973,timeout,,,400598.5,400597.41,398828995,398845.1999999997,398845672,400614093,,grey,NG02KI18,35,m,1,2,Immobilienkaufmann,0,0,0,0,0
Stimulus,canvas.Screen,2_72_0_1,2022-07-14T16:09:10.870Z,,,1,AV,99.48600000003353,timeout,,,400697.6999999997,400696.64,400597.41,400598.7999999998,400614093,400713579,,grey,NG02KI18,35,m,1,2,Immobilienkaufmann,0,0,0,0,0
Reaction,canvas.Screen,2_72_0_2,2022-07-14T16:09:11.005Z,,,1,AV,118.42099999997299,response,stim_detected,mousedown,400833.5,400832,400696.64,400697.8999999999,400713579,400846995,,grey,NG02KI18,35,m,1,2,Immobilienkaufmann,0,0,0,0,0
Trial,flow.Sequence,2_72_0,2022-07-14T16:09:11.006Z,,,1,AV,1986.3279999999795,completion,,,400833.8999999999,400832,398828995,398845.1000000001,398845672,400846995,,grey,NG02KI18,35,m,1,2,Immobilienkaufmann,0,0,0,0,0
Frame,canvas.Frame,2_72,2022-07-14T16:09:11.006Z,,,1,AV,1988.3279999999795,,,,400834.1999999997,400834,398828995,398844.3999999999,398845672,400846995,,grey,NG02KI18,35,m,1,2,Immobilienkaufmann,0,0,0,0,0
Fixation,canvas.Screen,2_73_0_0,2022-07-14T16:09:12.872Z,,,0,V,1868.5320000000065,timeout,,,402699.6999999997,402698844,400830318,400835.1999999997,400846995,402715527,,grey,NG02KI18,35,m,1,2,Immobilienkaufmann,0,0,0,0,0
Stimulus,canvas.Screen,2_73_0_1,2022-07-14T16:09:12.971Z,,,0,V,98.61900000000605,timeout,,,402798.6000000001,402797476,402698844,402699.8999999999,402715527,402814146,,grey,NG02KI18,35,m,1,2,Immobilienkaufmann,0,0,0,0,0
Reaction,canvas.Screen,2_73_0_2,2022-07-14T16:09:13.198Z,,,0,V,210.85399999999208,response,stim_detected,mousedown,403026.3999999999,403025,402797476,402799,402814146,403031764,,grey,NG02KI18,35,m,1,2,Immobilienkaufmann,0,0,0,0,0
Trial,flow.Sequence,2_73_0,2022-07-14T16:09:13.199Z,,,0,V,2178.0050000000047,completion,,,403026.7999999998,403025,400830318,400835.1000000001,400846995,403031764,,grey,NG02KI18,35,m,1,2,Immobilienkaufmann,0,0,0,0,0
Frame,canvas.Frame,2_73,2022-07-14T16:09:13.199Z,,,0,V,2180.105000000098,,,,403027.2999999998,403027.1000000001,400830318,400834.3999999999,400846995,403031764,,grey,NG02KI18,35,m,1,2,Immobilienkaufmann,0,0,0,0,0
Fixation,canvas.Screen,2_74_0_0,2022-07-14T16:09:14.924Z,,,1,AV,1735.0989999999874,timeout,,,404751.6999999997,404750.18,403015087,403028.3999999999,403031764,404766863,,grey,NG02KI18,35,m,1,2,Immobilienkaufmann,0,0,0,0,0
Stimulus,canvas.Screen,2_74_0_1,2022-07-14T16:09:15.023Z,,,1,AV,99.4429999999702,timeout,,,404850.7999999998,404849629,404750.18,404752,404766863,404866306,,grey,NG02KI18,35,m,1,2,Immobilienkaufmann,0,0,0,0,0
Reaction,canvas.Screen,2_74_0_2,2022-07-14T16:09:15.137Z,,,1,AV,97.59399999992456,response,stim_detected,mousedown,404965.2999999998,404963.8999999999,404849629,404851.1000000001,404866306,404983076,,grey,NG02KI18,35,m,1,2,Immobilienkaufmann,0,0,0,0,0
Trial,flow.Sequence,2_74_0,2022-07-14T16:09:15.138Z,,,1,AV,1932.1359999998822,completion,,,404965.6999999997,404963.8999999999,403015087,403028.2999999998,403031764,404983076,,grey,NG02KI18,35,m,1,2,Immobilienkaufmann,0,0,0,0,0
Frame,canvas.Frame,2_74,2022-07-14T16:09:15.138Z,,,1,AV,1934.035999999789,,,,404966.1000000001,404965.7999999998,403015087,403027.5,403031764,404983076,,grey,NG02KI18,35,m,1,2,Immobilienkaufmann,0,0,0,0,0
Fixation,canvas.Screen,2_75_0_0,2022-07-14T16:09:17.357Z,,,1,A,2217.19299999997,timeout,,,407184.8999999999,407183598,404966399,404967,404983076,407200269,,black,NG02KI18,35,m,1,2,Immobilienkaufmann,0,0,0,0,0
Stimulus,canvas.Screen,2_75_0_1,2022-07-14T16:09:17.458Z,,,1,A,100.8180000000284,timeout,,,407285.8999999999,407284411,407183598,407185.1999999997,407200269,407301087,,black,NG02KI18,35,m,1,2,Immobilienkaufmann,0,0,0,0,0
Reaction,canvas.Screen,2_75_0_2,2022-07-14T16:09:17.600Z,,,1,A,124.7129999998142,response,stim_detected,mousedown,407427.7999999998,407425.7999999998,407284411,407286.1999999997,407301087,407434.69,,black,NG02KI18,35,m,1,2,Immobilienkaufmann,0,0,0,0,0
Trial,flow.Sequence,2_75_0,2022-07-14T16:09:17.600Z,,,1,A,2442.723999999813,completion,,,407428.2999999998,407425.7999999998,404966399,404966.8999999999,404983076,407434.69,,black,NG02KI18,35,m,1,2,Immobilienkaufmann,0,0,0,0,0
Frame,canvas.Frame,2_75,2022-07-14T16:09:17.600Z,,,1,A,2445.323999999906,,,,407428.6000000001,407428.3999999999,404966399,404966.1999999997,404983076,407434.69,,black,NG02KI18,35,m,1,2,Immobilienkaufmann,0,0,0,0,0
Fixation,canvas.Screen,2_76_0_0,2022-07-14T16:09:19.327Z,,,1,AV,1734.755999999994,timeout,,,409154,409152766,407418013,407429.6999999997,407434.69,409169446,,grey,NG02KI18,35,m,1,2,Immobilienkaufmann,0,0,0,0,0
Stimulus,canvas.Screen,2_76_0_1,2022-07-14T16:09:19.427Z,,,1,AV,99.66800000000512,timeout,,,409253.7999999998,409252438,409152766,409154.1999999997,409169446,409269114,,grey,NG02KI18,35,m,1,2,Immobilienkaufmann,0,0,0,0,0
Reaction,canvas.Screen,2_76_0_2,2022-07-14T16:09:19.559Z,,,1,AV,115.78599999990547,response,stim_detected,mousedown,409386.2999999998,409384.8999999999,409252438,409254.1000000001,409269114,409402629,,grey,NG02KI18,35,m,1,2,Immobilienkaufmann,0,0,0,0,0
Trial,flow.Sequence,2_76_0,2022-07-14T16:09:19.560Z,,,1,AV,1950.2099999999045,completion,,,409386.7999999998,409384.8999999999,407418013,407429.5,407434.69,409402629,,grey,NG02KI18,35,m,1,2,Immobilienkaufmann,0,0,0,0,0
Frame,canvas.Frame,2_76,2022-07-14T16:09:19.560Z,,,1,AV,1952.2099999999045,,,,409387.1000000001,409386.8999999999,407418013,407428.6999999997,407434.69,409402629,,grey,NG02KI18,35,m,1,2,Immobilienkaufmann,0,0,0,0,0
Fixation,canvas.Screen,2_77_0_0,2022-07-14T16:09:21.479Z,,,1,A,1919.274999999965,timeout,,,411306,411305215,409385952,409388.2999999998,409402629,411321904,,black,NG02KI18,35,m,1,2,Immobilienkaufmann,0,0,0,0,0
Stimulus,canvas.Screen,2_77_0_1,2022-07-14T16:09:21.578Z,,,1,A,98.63000000000466,timeout,,,411404.8999999999,411403858,411305215,411306.2999999998,411321904,411420534,,black,NG02KI18,35,m,1,2,Immobilienkaufmann,0,0,0,0,0
Reaction,canvas.Screen,2_77_0_2,2022-07-14T16:09:21.725Z,,,1,A,130.26599999982864,response,stim_detected,mousedown,411552.2999999998,411550.7999999998,411403858,411405.1999999997,411420534,411554079,,black,NG02KI18,35,m,1,2,Immobilienkaufmann,0,0,0,0,0
Trial,flow.Sequence,2_77_0,2022-07-14T16:09:21.726Z,,,1,A,2148.1709999997984,completion,,,411552.6999999997,411550.7999999998,409385952,409388.1000000001,409402629,411554079,,black,NG02KI18,35,m,1,2,Immobilienkaufmann,0,0,0,0,0
Frame,canvas.Frame,2_77,2022-07-14T16:09:21.726Z,,,1,A,2150.1709999997984,,,,411553,411552.7999999998,409385952,409387.1999999997,409402629,411554079,,black,NG02KI18,35,m,1,2,Immobilienkaufmann,0,0,0,0,0
Fixation,canvas.Screen,2_78_0_0,2022-07-14T16:09:23.564Z,,,1,AV,1851.9469999999856,timeout,,,413391,413389342,411537402,411554.1999999997,411554079,413406026,,grey,NG02KI18,35,m,1,2,Immobilienkaufmann,0,0,0,0,0
Stimulus,canvas.Screen,2_78_0_1,2022-07-14T16:09:23.663Z,,,1,AV,98.9649999999674,timeout,,,413490,413488317,413389342,413391.2999999998,413406026,413504991,,grey,NG02KI18,35,m,1,2,Immobilienkaufmann,0,0,0,0,0
Reaction,canvas.Screen,2_78_0_2,2022-07-14T16:09:23.775Z,,,1,AV,95.70899999974063,response,stim_detected,mousedown,413602.1999999997,413600.6999999997,413488317,413490.1999999997,413504991,413605407,,grey,NG02KI18,35,m,1,2,Immobilienkaufmann,0,0,0,0,0
Trial,flow.Sequence,2_78_0,2022-07-14T16:09:23.776Z,,,1,AV,2046.6209999996936,completion,,,413602.6000000001,413600.6999999997,411537402,411554.1000000001,411554079,413605407,,grey,NG02KI18,35,m,1,2,Immobilienkaufmann,0,0,0,0,0
Frame,canvas.Frame,2_78,2022-07-14T16:09:23.776Z,,,1,AV,2048.6209999996936,,,,413602.8999999999,413602.6999999997,411537402,411553.1999999997,411554079,413605407,,grey,NG02KI18,35,m,1,2,Immobilienkaufmann,0,0,0,0,0
Fixation,canvas.Screen,2_79_0_0,2022-07-14T16:09:25.849Z,,,0,V,2085.838999999978,timeout,,,415676.1000000001,415674.56,413588.73,413603.7999999998,413605407,415691246,,grey,NG02KI18,35,m,1,2,Immobilienkaufmann,0,0,0,0,0
Stimulus,canvas.Screen,2_79_0_1,2022-07-14T16:09:25.948Z,,,0,V,98.87700000003679,timeout,,,415775.1999999997,415773447,415674.56,415676.3999999999,415691246,415790123,,grey,NG02KI18,35,m,1,2,Immobilienkaufmann,0,0,0,0,0
Reaction,canvas.Screen,2_79_0_2,2022-07-14T16:09:26.113Z,,,0,V,148.67699999979232,response,stim_detected,mousedown,415940.2999999998,415938.7999999998,415773447,415775.3999999999,415790123,415956993,,grey,NG02KI18,35,m,1,2,Immobilienkaufmann,0,0,0,0,0
Trial,flow.Sequence,2_79_0,2022-07-14T16:09:26.114Z,,,0,V,2333.392999999807,completion,,,415940.7999999998,415938.7999999998,413588.73,413603.7999999998,413605407,415956993,,grey,NG02KI18,35,m,1,2,Immobilienkaufmann,0,0,0,0,0
Frame,canvas.Frame,2_79,2022-07-14T16:09:26.114Z,,,0,V,2335.5929999999935,,,,415941.1999999997,415941,413588.73,413603,413605407,415956993,,grey,NG02KI18,35,m,1,2,Immobilienkaufmann,0,0,0,0,0
Fixation,canvas.Screen,2_80_0_0,2022-07-14T16:09:28.081Z,,,1,AV,1966.1900000000023,timeout,,,417908.2999999998,417906519,415940316,415942.1999999997,415956993,417923183,,grey,NG02KI18,35,m,1,2,Immobilienkaufmann,0,0,0,0,0
Stimulus,canvas.Screen,2_80_0_1,2022-07-14T16:09:28.182Z,,,1,AV,101.89899999997579,timeout,,,418009.1000000001,418008399,417906519,417908.5,417923183,418025082,,grey,NG02KI18,35,m,1,2,Immobilienkaufmann,0,0,0,0,0
Reaction,canvas.Screen,2_80_0_2,2022-07-14T16:09:28.319Z,,,1,AV,119.61799999972573,response,stim_detected,mousedown,418146.1000000001,418144.6999999997,418008399,418009.3999999999,418025082,418158446,,grey,NG02KI18,35,m,1,2,Immobilienkaufmann,0,0,0,0,0
Trial,flow.Sequence,2_80_0,2022-07-14T16:09:28.320Z,,,1,AV,2187.706999999704,completion,,,418146.5,418144.6999999997,415940316,415942,415956993,418158446,,grey,NG02KI18,35,m,1,2,Immobilienkaufmann,0,0,0,0,0
Frame,canvas.Frame,2_80,2022-07-14T16:09:28.320Z,,,1,AV,2189.6070000000764,,,,418146.6999999997,418146.6000000001,415940316,415941.2999999998,415956993,418158446,,grey,NG02KI18,35,m,1,2,Immobilienkaufmann,0,0,0,0,0
Fixation,canvas.Screen,2_81_0_0,2022-07-14T16:09:30.434Z,,,0,V,2117.9830000000075,timeout,,,420261.2999999998,420259752,418141769,418148,418158446,420276429,,grey,NG02KI18,35,m,1,2,Immobilienkaufmann,0,0,0,0,0
Stimulus,canvas.Screen,2_81_0_1,2022-07-14T16:09:30.533Z,,,0,V,99.45100000000093,timeout,,,420360.2999999998,420359208,420259752,420261.6000000001,420276429,420375.88,,grey,NG02KI18,35,m,1,2,Immobilienkaufmann,0,0,0,0,0
Reaction,canvas.Screen,2_81_0_2,2022-07-14T16:09:30.687Z,,,0,V,136.81999999971595,response,stim_detected,mousedown,420514.2999999998,420512.6999999997,420359208,420360.5,420375.88,420526683,,grey,NG02KI18,35,m,1,2,Immobilienkaufmann,0,0,0,0,0
Trial,flow.Sequence,2_81_0,2022-07-14T16:09:30.688Z,,,0,V,2354.2539999997243,completion,,,420514.6999999997,420512.6999999997,418141769,418147.7999999998,418158446,420526683,,grey,NG02KI18,35,m,1,2,Immobilienkaufmann,0,0,0,0,0
Frame,canvas.Frame,2_81,2022-07-14T16:09:30.688Z,,,0,V,2356.3539999998175,,,,420515,420514.7999999998,418141769,418147,418158446,420526683,,grey,NG02KI18,35,m,1,2,Immobilienkaufmann,0,0,0,0,0
Fixation,canvas.Screen,2_82_0_0,2022-07-14T16:09:32.802Z,,,0,V,2116.7369999999646,timeout,,,422628.5,422626752,420510006,420516,420526683,422643.42,,grey,NG02KI18,35,m,1,2,Immobilienkaufmann,0,0,0,0,0
Stimulus,canvas.Screen,2_82_0_1,2022-07-14T16:09:32.902Z,,,0,V,100.8980000000447,timeout,,,422728.3999999999,422727644,422626752,422628.6999999997,422643.42,422744318,,grey,NG02KI18,35,m,1,2,Immobilienkaufmann,0,0,0,0,0
Reaction,canvas.Screen,2_82_0_2,2022-07-14T16:09:33.044Z,,,0,V,125.28200000006473,response,stim_detected,mousedown,422871.1999999997,422869.6000000001,422727644,422728.6999999997,422744318,422878199,,grey,NG02KI18,35,m,1,2,Immobilienkaufmann,0,0,0,0,0
Trial,flow.Sequence,2_82_0,2022-07-14T16:09:33.045Z,,,0,V,2342.917000000074,completion,,,422871.6000000001,422869.6000000001,420510006,420515.8999999999,420526683,422878199,,grey,NG02KI18,35,m,1,2,Immobilienkaufmann,0,0,0,0,0
Frame,canvas.Frame,2_82,2022-07-14T16:09:33.045Z,,,0,V,2345.1169999997946,,,,422871.8999999999,422871.7999999998,420510006,420515.1000000001,420526683,422878199,,grey,NG02KI18,35,m,1,2,Immobilienkaufmann,0,0,0,0,0
Fixation,canvas.Screen,2_83_0_0,2022-07-14T16:09:34.989Z,,,0,V,1952.441999999981,timeout,,,424815.5,424813954,422861522,422873.1000000001,422878199,424830641,,grey,NG02KI18,35,m,1,2,Immobilienkaufmann,0,0,0,0,0
Stimulus,canvas.Screen,2_83_0_1,2022-07-14T16:09:35.087Z,,,0,V,98.91499999997905,timeout,,,424913.6999999997,424912663,424813954,424815.7999999998,424830641,424929556,,grey,NG02KI18,35,m,1,2,Immobilienkaufmann,0,0,0,0,0
Reaction,canvas.Screen,2_83_0_2,2022-07-14T16:09:35.215Z,,,0,V,110.9440000000177,response,stim_detected,mousedown,425042,425040.5,424912663,424914.1000000001,424929556,425046295,,grey,NG02KI18,35,m,1,2,Immobilienkaufmann,0,0,0,0,0
Trial,flow.Sequence,2_83_0,2022-07-14T16:09:35.215Z,,,0,V,2162.3009999999776,completion,,,425042.2999999998,425040.5,422861522,422873,422878199,425046295,,grey,NG02KI18,35,m,1,2,Immobilienkaufmann,0,0,0,0,0
Frame,canvas.Frame,2_83,2022-07-14T16:09:35.216Z,,,0,V,2164.3009999999776,,,,425042.6999999997,425042.5,422861522,422872.1000000001,422878199,425046295,,grey,NG02KI18,35,m,1,2,Immobilienkaufmann,0,0,0,0,0
Fixation,canvas.Screen,2_84_0_0,2022-07-14T16:09:36.940Z,,,0,V,1735.3820000000414,timeout,,,426766.6000000001,426764991,425029618,425043.8999999999,425046295,426781677,,grey,NG02KI18,35,m,1,2,Immobilienkaufmann,0,0,0,0,0
Stimulus,canvas.Screen,2_84_0_1,2022-07-14T16:09:37.039Z,,,0,V,98.86999999999534,timeout,,,426865.5,426863873,426764991,426766.7999999998,426781677,426880547,,grey,NG02KI18,35,m,1,2,Immobilienkaufmann,0,0,0,0,0
Reaction,canvas.Screen,2_84_0_2,2022-07-14T16:09:37.181Z,,,0,V,125.95299999997951,response,stim_detected,mousedown,427008,427006.5,426863873,426865.7999999998,426880547,427014259,,grey,NG02KI18,35,m,1,2,Immobilienkaufmann,0,0,0,0,0
Trial,flow.Sequence,2_84_0,2022-07-14T16:09:37.181Z,,,0,V,1960.2050000000163,completion,,,427008.3999999999,427006.5,425029618,425043.6999999997,425046295,427014259,,grey,NG02KI18,35,m,1,2,Immobilienkaufmann,0,0,0,0,0
Frame,canvas.Frame,2_84,2022-07-14T16:09:37.182Z,,,0,V,1962.2050000000163,,,,427008.6999999997,427008.5,425029618,425042.8999999999,425046295,427014259,,grey,NG02KI18,35,m,1,2,Immobilienkaufmann,0,0,0,0,0
Fixation,canvas.Screen,2_85_0_0,2022-07-14T16:09:39.125Z,,,1,A,1952.6630000000005,timeout,,,428951.6999999997,428950233,426997582,427009.6999999997,427014259,428966922,,black,NG02KI18,35,m,1,2,Immobilienkaufmann,0,0,0,0,0
Stimulus,canvas.Screen,2_85_0_1,2022-07-14T16:09:39.223Z,,,1,A,98.54099999996834,timeout,,,429049.6999999997,429048787,428950233,428951.8999999999,428966922,429065463,,black,NG02KI18,35,m,1,2,Immobilienkaufmann,0,0,0,0,0
Reaction,canvas.Screen,2_85_0_2,2022-07-14T16:09:39.312Z,,,1,A,72.13700000010431,response,stim_detected,mousedown,429139,429137.6000000001,429048787,429049.8999999999,429065463,429149041,,black,NG02KI18,35,m,1,2,Immobilienkaufmann,0,0,0,0,0
Trial,flow.Sequence,2_85_0,2022-07-14T16:09:39.312Z,,,1,A,2123.341000000073,completion,,,429139.3999999999,429137.6000000001,426997582,427009.6999999997,427014259,429149041,,black,NG02KI18,35,m,1,2,Immobilienkaufmann,0,0,0,0,0
Frame,canvas.Frame,2_85,2022-07-14T16:09:39.313Z,,,1,A,2125.24099999998,,,,429139.6999999997,429139.5,426997582,427008.8999999999,427014259,429149041,,black,NG02KI18,35,m,1,2,Immobilienkaufmann,0,0,0,0,0
Fixation,canvas.Screen,2_86_0_0,2022-07-14T16:09:41.508Z,,,0,V,2200.6659999999683,timeout,,,431334.6999999997,431333035,429132364,429140.6000000001,429149041,431349707,,grey,NG02KI18,35,m,1,2,Immobilienkaufmann,0,0,0,0,0
Stimulus,canvas.Screen,2_86_0_1,2022-07-14T16:09:41.609Z,,,0,V,101.03800000000047,timeout,,,431435.7999999998,431434066,431333035,431334.8999999999,431349707,431450745,,grey,NG02KI18,35,m,1,2,Immobilienkaufmann,0,0,0,0,0
Reaction,canvas.Screen,2_86_0_2,2022-07-14T16:09:43.109Z,,,0,V,1500.753000000026,timeout,,,432935.7999999998,432934821,431434066,431436,431450745,432951498,,grey,NG02KI18,35,m,1,2,Immobilienkaufmann,0,0,0,0,0
Trial,flow.Sequence,2_86_0,2022-07-14T16:09:43.109Z,,,0,V,3785.7799999999697,completion,,,432936.2999999998,432934821,429132364,429140.5,429149041,432951498,,grey,NG02KI18,35,m,1,2,Immobilienkaufmann,0,0,0,0,0
Frame,canvas.Frame,2_86,2022-07-14T16:09:43.110Z,,,0,V,3787.3589999998803,,,,432936.5,432936.3999999999,429132364,429139.8999999999,429149041,432968175,,grey,NG02KI18,35,m,1,2,Immobilienkaufmann,0,0,0,0,0
Fixation,canvas.Screen,2_87_0_0,2022-07-14T16:09:45.461Z,,,1,AV,2334.657999999996,timeout,,,435287.8999999999,435286157,432951498,432937.6000000001,432968175,435302833,,grey,NG02KI18,35,m,1,2,Immobilienkaufmann,0,0,0,0,0
Stimulus,canvas.Screen,2_87_0_1,2022-07-14T16:09:45.558Z,,,1,AV,97.91200000001118,timeout,,,435384.8999999999,435384084,435286157,435288.1999999997,435302833,435400745,,grey,NG02KI18,35,m,1,2,Immobilienkaufmann,0,0,0,0,0
Reaction,canvas.Screen,2_87_0_2,2022-07-14T16:09:45.684Z,,,1,AV,108.75500000000466,response,stim_detected,mousedown,435510.7999999998,435509.5,435384084,435385.1000000001,435400745,435536596,,grey,NG02KI18,35,m,1,2,Immobilienkaufmann,0,0,0,0,0
Trial,flow.Sequence,2_87_0,2022-07-14T16:09:45.684Z,,,1,AV,2541.3250000000116,completion,,,435511.2999999998,435509.5,432951498,432937.5,432968175,435536596,,grey,NG02KI18,35,m,1,2,Immobilienkaufmann,0,0,0,0,0
Frame,canvas.Frame,2_87,2022-07-14T16:09:45.685Z,,,1,AV,2543.1249999998254,,,,435511.5,435511.2999999998,432951498,432936.7999999998,432968175,435536596,,grey,NG02KI18,35,m,1,2,Immobilienkaufmann,0,0,0,0,0
Fixation,canvas.Screen,2_88_0_0,2022-07-14T16:09:47.379Z,,,1,A,1684.460999999952,timeout,,,437206,437204379,435503242,435512.6000000001,435536596,437221057,,black,NG02KI18,35,m,1,2,Immobilienkaufmann,0,0,0,0,0
Stimulus,canvas.Screen,2_88_0_1,2022-07-14T16:09:47.478Z,,,1,A,100.04900000005728,timeout,,,437305.1000000001,437303734,437204379,437206.2999999998,437221057,437321106,,black,NG02KI18,35,m,1,2,Immobilienkaufmann,0,0,0,0,0
Reaction,canvas.Screen,2_88_0_2,2022-07-14T16:09:47.932Z,,,1,A,436.293999999878,response,stim_detected,mousedown,437758.8999999999,437757.3999999999,437303734,437305.3999999999,437321106,437771385,,black,NG02KI18,35,m,1,2,Immobilienkaufmann,0,0,0,0,0
Trial,flow.Sequence,2_88_0,2022-07-14T16:09:47.932Z,,,1,A,2220.8039999998873,completion,,,437759.2999999998,437757.3999999999,435503242,435512.5,435536596,437771385,,black,NG02KI18,35,m,1,2,Immobilienkaufmann,0,0,0,0,0
Frame,canvas.Frame,2_88,2022-07-14T16:09:47.933Z,,,1,A,2222.8039999998873,,,,437759.6000000001,437759.3999999999,435503242,435511.7999999998,435536596,437771385,,black,NG02KI18,35,m,1,2,Immobilienkaufmann,0,0,0,0,0
