sender,sender_type,sender_id,timestamp,meta,,aud,condition,duration,ended_on,response,response_action,time_commit,time_end,time_render,time_run,time_show,time_switch,url,vis,id,age,sex,edu,occ,ela,pat,ill,prt,pcr,pab
Instructions,html.Page,0,2022-07-11T15:46:09.345Z,"{""labjs_version"":""20.2.4"",""labjs_build"":{""flavor"":""production"",""commit"":""f5b4a49f956347addd546a832a3327688c2c0fef""},""location"":""file:///C:/Users/Proband%207/Desktop/RTE/index.html"",""userAgent"":""Mozilla/5.0 (Windows NT 6.1; Win64; x64) AppleWebKit/537.36 (KHTML, like Gecko) Chrome/103.0.0.0 Safari/537.36"",""platform"":""Win32"",""language"":""de-DE"",""locale"":""de"",""timeZone"":""Europe/Berlin"",""timezoneOffset"":-120,""screen_width"":1366,""screen_height"":768,""scroll_width"":1366,""scroll_height"":609,""window_innerWidth"":1366,""window_innerHeight"":657,""devicePixelRatio"":1}",,,,1068292127,form submission,,,1069918.9,1069917.5,1608698,1614.1000000000931,1625373,1069924044,{},,RT21GR26,36,f,5,2,Verkaeuferin,0,0,0,0,0
Change Background,canvas.Screen,1,2022-07-11T15:46:12.340Z,,,,,3004.841999999946,timeout,,,1072913.5,1072912204,1069907371,1069919.6,1069924044,1072928886,,,RT21GR26,36,f,5,2,Verkaeuferin,0,0,0,0,0
Fixation,canvas.Screen,2_0_0_0,2022-07-11T15:46:14.512Z,,,1,AV,2171.7350000001024,timeout,,,1075085.7000000002,1075083993,1072912204,1072914.7000000002,1072928886,1075100621,,grey,RT21GR26,36,f,5,2,Verkaeuferin,0,0,0,0,0
Stimulus,canvas.Screen,2_0_0_1,2022-07-11T15:46:14.607Z,,,1,AV,95.77600000007078,timeout,,,1075181.1,1075179.72,1075083993,1075086.2000000002,1075100621,1075196397,,grey,RT21GR26,36,f,5,2,Verkaeuferin,0,0,0,0,0
Reaction,canvas.Screen,2_0_0_2,2022-07-11T15:46:14.821Z,,,1,AV,196.00299999979325,response,stim_detected,mousedown,1075394.7000000002,1075392.4,1075179.72,1075181.2000000002,1075196397,1075396575,,grey,RT21GR26,36,f,5,2,Verkaeuferin,0,0,0,0,0
Trial,flow.Sequence,2_0_0,2022-07-11T15:46:14.821Z,,,1,AV,2463.5139999999665,completion,,,1075395.2000000002,1075392.4,1072912204,1072914.6,1072928886,1075396575,,grey,RT21GR26,36,f,5,2,Verkaeuferin,0,0,0,0,0
Frame,canvas.Frame,2_0,2022-07-11T15:46:14.822Z,,,1,AV,2466.5139999999665,,,,1075395.7000000002,1075395.4,1072912204,1072913.9,1072928886,1075396575,,grey,RT21GR26,36,f,5,2,Verkaeuferin,0,0,0,0,0
Fixation,canvas.Screen,2_1_0_0,2022-07-11T15:46:16.659Z,,,1,AV,1851.035000000149,timeout,,,1077232.6,1077230934,1075379898,1075399.2000000002,1075396575,1077247.61,,grey,RT21GR26,36,f,5,2,Verkaeuferin,0,0,0,0,0
Stimulus,canvas.Screen,2_1_0_1,2022-07-11T15:46:16.759Z,,,1,AV,100.1569999998901,timeout,,,1077332.9,1077331091,1077230934,1077232.9,1077247.61,1077347767,,grey,RT21GR26,36,f,5,2,Verkaeuferin,0,0,0,0,0
Reaction,canvas.Screen,2_1_0_2,2022-07-11T15:46:16.964Z,,,1,AV,188.73300000000745,response,stim_detected,mousedown,1077538.1,1077536.5,1077331091,1077333.2999999998,1077347767,1077548027,,grey,RT21GR26,36,f,5,2,Verkaeuferin,0,0,0,0,0
Trial,flow.Sequence,2_1_0,2022-07-11T15:46:16.965Z,,,1,AV,2139.9250000000466,completion,,,1077538.9,1077536.5,1075379898,1075399.1,1075396575,1077548027,,grey,RT21GR26,36,f,5,2,Verkaeuferin,0,0,0,0,0
Frame,canvas.Frame,2_1,2022-07-11T15:46:16.966Z,,,1,AV,2142.5250000001397,,,,1077539.4,1077539.1,1075379898,1075396.1,1075396575,1077548027,,grey,RT21GR26,36,f,5,2,Verkaeuferin,0,0,0,0,0
Fixation,canvas.Screen,2_2_0_0,2022-07-11T15:46:19.161Z,,,0,V,2201.6729999999516,timeout,,,1079734.9,1079733021,1077531.35,1077540.7000000002,1077548027,1079749.7,,grey,RT21GR26,36,f,5,2,Verkaeuferin,0,0,0,0,0
Stimulus,canvas.Screen,2_2_0_1,2022-07-11T15:46:19.261Z,,,0,V,99.83900000015274,timeout,,,1079834.6,1079832707,1079733021,1079735.2000000002,1079749.7,1079849539,,grey,RT21GR26,36,f,5,2,Verkaeuferin,0,0,0,0,0
Reaction,canvas.Screen,2_2_0_2,2022-07-11T15:46:19.414Z,,,0,V,136.8609999998007,response,stim_detected,mousedown,1079988,1079986.4,1079832707,1079834.7999999998,1079849539,1079999632,,grey,RT21GR26,36,f,5,2,Verkaeuferin,0,0,0,0,0
Trial,flow.Sequence,2_2_0,2022-07-11T15:46:19.415Z,,,0,V,2438.372999999905,completion,,,1079988.4,1079986.4,1077531.35,1077540.6,1077548027,1079999632,,grey,RT21GR26,36,f,5,2,Verkaeuferin,0,0,0,0,0
Frame,canvas.Frame,2_2,2022-07-11T15:46:19.415Z,,,0,V,2440.472999999998,,,,1079988.7999999998,1079988.5,1077531.35,1077539.7000000002,1077548027,1079999632,,grey,RT21GR26,36,f,5,2,Verkaeuferin,0,0,0,0,0
Fixation,canvas.Screen,2_3_0_0,2022-07-11T15:46:21.712Z,,,1,AV,2301.715000000084,timeout,,,1082285.9,1082284668,1079982955,1079989.9,1079999632,1082301347,,grey,RT21GR26,36,f,5,2,Verkaeuferin,0,0,0,0,0
Stimulus,canvas.Screen,2_3_0_1,2022-07-11T15:46:21.812Z,,,1,AV,99.83599999989383,timeout,,,1082385.7000000002,1082384506,1082284668,1082286.2000000002,1082301347,1082401183,,grey,RT21GR26,36,f,5,2,Verkaeuferin,0,0,0,0,0
Reaction,canvas.Screen,2_3_0_2,2022-07-11T15:46:21.945Z,,,1,AV,116.11699999985285,response,stim_detected,mousedown,1082518.9,1082517.2999999998,1082384506,1082385.9,1082401183,1082534644,,grey,RT21GR26,36,f,5,2,Verkaeuferin,0,0,0,0,0
Trial,flow.Sequence,2_3_0,2022-07-11T15:46:21.946Z,,,1,AV,2517.6679999998305,completion,,,1082519.4,1082517.2999999998,1079982955,1079989.7999999998,1079999632,1082534644,,grey,RT21GR26,36,f,5,2,Verkaeuferin,0,0,0,0,0
Frame,canvas.Frame,2_3,2022-07-11T15:46:21.946Z,,,1,AV,2519.96800000011,,,,1082519.7999999998,1082519.6,1079982955,1079989,1079999632,1082534644,,grey,RT21GR26,36,f,5,2,Verkaeuferin,0,0,0,0,0
Fixation,canvas.Screen,2_4_0_0,2022-07-11T15:46:23.895Z,,,1,AV,1949.9249999998137,timeout,,,1084468.7999999998,1084467902,1082517967,1082521.2000000002,1082534644,1084484569,,grey,RT21GR26,36,f,5,2,Verkaeuferin,0,0,0,0,0
Stimulus,canvas.Screen,2_4_0_1,2022-07-11T15:46:23.997Z,,,1,AV,101.4890000000596,timeout,,,1084570.7999999998,1084569374,1084467902,1084469.1,1084484569,1084586058,,grey,RT21GR26,36,f,5,2,Verkaeuferin,0,0,0,0,0
Reaction,canvas.Screen,2_4_0_2,2022-07-11T15:46:24.128Z,,,1,AV,114.24199999985285,response,stim_detected,mousedown,1084702.1,1084700.2999999998,1084569374,1084571.2000000002,1084586058,1084719404,,grey,RT21GR26,36,f,5,2,Verkaeuferin,0,0,0,0,0
Trial,flow.Sequence,2_4_0,2022-07-11T15:46:24.129Z,,,1,AV,2165.655999999726,completion,,,1084702.5,1084700.2999999998,1082517967,1082521.1,1082534644,1084719404,,grey,RT21GR26,36,f,5,2,Verkaeuferin,0,0,0,0,0
Frame,canvas.Frame,2_4,2022-07-11T15:46:24.129Z,,,1,AV,2167.9560000000056,,,,1084702.7999999998,1084702.6,1082517967,1082520.2000000002,1082534644,1084719404,,grey,RT21GR26,36,f,5,2,Verkaeuferin,0,0,0,0,0
Fixation,canvas.Screen,2_5_0_0,2022-07-11T15:46:25.815Z,,,0,V,1684.3809999998193,timeout,,,1086388.9,1086387108,1084702727,1084704.6,1084719404,1086403785,,grey,RT21GR26,36,f,5,2,Verkaeuferin,0,0,0,0,0
Stimulus,canvas.Screen,2_5_0_1,2022-07-11T15:46:25.914Z,,,0,V,99.80300000007264,timeout,,,1086487.9,1086486914,1086387108,1086389.1,1086403785,1086503588,,grey,RT21GR26,36,f,5,2,Verkaeuferin,0,0,0,0,0
Reaction,canvas.Screen,2_5_0_2,2022-07-11T15:46:26.112Z,,,0,V,180.7119999998249,response,stim_detected,mousedown,1086685.7999999998,1086684.2999999998,1086486914,1086488.1,1086503588,1086687346,,grey,RT21GR26,36,f,5,2,Verkaeuferin,0,0,0,0,0
Trial,flow.Sequence,2_5_0,2022-07-11T15:46:26.112Z,,,0,V,1964.8959999997169,completion,,,1086686.2000000002,1086684.2999999998,1084702727,1084704.4,1084719404,1086687346,,grey,RT21GR26,36,f,5,2,Verkaeuferin,0,0,0,0,0
Frame,canvas.Frame,2_5,2022-07-11T15:46:26.113Z,,,0,V,1966.8959999997169,,,,1086686.4,1086686.2999999998,1084702727,1084703,1084719404,1086687346,,grey,RT21GR26,36,f,5,2,Verkaeuferin,0,0,0,0,0
Fixation,canvas.Screen,2_6_0_0,2022-07-11T15:46:27.916Z,,,1,AV,1818.3710000000428,timeout,,,1088489.9,1088489035,1086670669,1086687.6,1086687346,1088505717,,grey,RT21GR26,36,f,5,2,Verkaeuferin,0,0,0,0,0
Stimulus,canvas.Screen,2_6_0_1,2022-07-11T15:46:28.016Z,,,1,AV,99.39000000013039,timeout,,,1088589.9,1088588431,1088489035,1088490.4,1088505717,1088605107,,grey,RT21GR26,36,f,5,2,Verkaeuferin,0,0,0,0,0
Reaction,canvas.Screen,2_6_0_2,2022-07-11T15:46:28.145Z,,,1,AV,112.0930000001099,response,stim_detected,mousedown,1088718.7999999998,1088717.2000000002,1088588431,1088590.2000000002,1088605107,1088722035,,grey,RT21GR26,36,f,5,2,Verkaeuferin,0,0,0,0,0
Trial,flow.Sequence,2_6_0,2022-07-11T15:46:28.145Z,,,1,AV,2029.8540000002831,completion,,,1088719.2000000002,1088717.2000000002,1086670669,1086687.5,1086687346,1088722035,,grey,RT21GR26,36,f,5,2,Verkaeuferin,0,0,0,0,0
Frame,canvas.Frame,2_6,2022-07-11T15:46:28.146Z,,,1,AV,2032.0540000000037,,,,1088719.6,1088719.4,1086670669,1086686.7000000002,1086687346,1088722035,,grey,RT21GR26,36,f,5,2,Verkaeuferin,0,0,0,0,0
Fixation,canvas.Screen,2_7_0_0,2022-07-11T15:46:29.717Z,,,1,A,1584.4240000001155,timeout,,,1090291,1090289781,1088705358,1088720.7000000002,1088722035,1090306459,,black,RT21GR26,36,f,5,2,Verkaeuferin,0,0,0,0,0
Stimulus,canvas.Screen,2_7_0_1,2022-07-11T15:46:29.817Z,,,1,A,99.85899999993853,timeout,,,1090391,1090389642,1090289781,1090291.2999999998,1090306459,1090406318,,black,RT21GR26,36,f,5,2,Verkaeuferin,0,0,0,0,0
Reaction,canvas.Screen,2_7_0_2,2022-07-11T15:46:30.031Z,,,1,A,196.88200000021607,response,stim_detected,mousedown,1090604.6,1090603.2000000002,1090389642,1090391.2999999998,1090406318,1090606594,,black,RT21GR26,36,f,5,2,Verkaeuferin,0,0,0,0,0
Trial,flow.Sequence,2_7_0,2022-07-11T15:46:30.031Z,,,1,A,1881.16500000027,completion,,,1090605,1090603.2000000002,1088705358,1088720.7000000002,1088722035,1090606594,,black,RT21GR26,36,f,5,2,Verkaeuferin,0,0,0,0,0
Frame,canvas.Frame,2_7,2022-07-11T15:46:30.032Z,,,1,A,1883.065000000177,,,,1090605.5,1090605.1,1088705358,1088719.7999999998,1088722035,1090606594,,black,RT21GR26,36,f,5,2,Verkaeuferin,0,0,0,0,0
Fixation,canvas.Screen,2_8_0_0,2022-07-11T15:46:31.635Z,,,1,A,1617.3329999998678,timeout,,,1092209.2000000002,1092207253,1090589917,1090606.6,1090606594,1092223927,,black,RT21GR26,36,f,5,2,Verkaeuferin,0,0,0,0,0
Stimulus,canvas.Screen,2_8_0_1,2022-07-11T15:46:31.735Z,,,1,A,100.51800000015646,timeout,,,1092309.2000000002,1092307767,1092207253,1092209.4,1092223927,1092324445,,black,RT21GR26,36,f,5,2,Verkaeuferin,0,0,0,0,0
Reaction,canvas.Screen,2_8_0_2,2022-07-11T15:46:31.937Z,,,1,A,184.65500000002794,response,stim_detected,mousedown,1092510.6,1092509.1,1092307767,1092309.4,1092324445,1092524.53,,black,RT21GR26,36,f,5,2,Verkaeuferin,0,0,0,0,0
Trial,flow.Sequence,2_8_0,2022-07-11T15:46:31.937Z,,,1,A,1902.5060000000522,completion,,,1092511,1092509.1,1090589917,1090606.6,1090606594,1092524.53,,black,RT21GR26,36,f,5,2,Verkaeuferin,0,0,0,0,0
Frame,canvas.Frame,2_8,2022-07-11T15:46:31.937Z,,,1,A,1904.5060000000522,,,,1092511.2999999998,1092511.1,1090589917,1090605.6,1090606594,1092524.53,,black,RT21GR26,36,f,5,2,Verkaeuferin,0,0,0,0,0
Fixation,canvas.Screen,2_9_0_0,2022-07-11T15:46:34.053Z,,,0,V,2118.273999999976,timeout,,,1094627.2000000002,1094626125,1092507853,1092512.6,1092524.53,1094642804,,grey,RT21GR26,36,f,5,2,Verkaeuferin,0,0,0,0,0
Stimulus,canvas.Screen,2_9_0_1,2022-07-11T15:46:34.153Z,,,0,V,99.51499999989755,timeout,,,1094727.2000000002,1094725644,1094626125,1094627.5,1094642804,1094742319,,grey,RT21GR26,36,f,5,2,Verkaeuferin,0,0,0,0,0
Reaction,canvas.Screen,2_9_0_2,2022-07-11T15:46:34.324Z,,,0,V,153.78100000019185,response,stim_detected,mousedown,1094897.7999999998,1094896.1,1094725644,1094727.4,1094742319,1094909419,,grey,RT21GR26,36,f,5,2,Verkaeuferin,0,0,0,0,0
Trial,flow.Sequence,2_9_0,2022-07-11T15:46:34.324Z,,,0,V,2371.570000000065,completion,,,1094898.2000000002,1094896.1,1092507853,1092512.5,1092524.53,1094909419,,grey,RT21GR26,36,f,5,2,Verkaeuferin,0,0,0,0,0
Frame,canvas.Frame,2_9,2022-07-11T15:46:34.325Z,,,0,V,2373.869999999879,,,,1094898.6,1094898.4,1092507853,1092511.6,1092524.53,1094909419,,grey,RT21GR26,36,f,5,2,Verkaeuferin,0,0,0,0,0
Fixation,canvas.Screen,2_10_0_0,2022-07-11T15:46:36.321Z,,,1,A,2001.4760000000242,timeout,,,1096894.9,1096894216,1094892742,1094899.6,1094909419,1096910895,,black,RT21GR26,36,f,5,2,Verkaeuferin,0,0,0,0,0
Stimulus,canvas.Screen,2_10_0_1,2022-07-11T15:46:36.421Z,,,1,A,99.57700000004843,timeout,,,1096994.7000000002,1096993797,1096894216,1096895,1096910895,1097010472,,black,RT21GR26,36,f,5,2,Verkaeuferin,0,0,0,0,0
Reaction,canvas.Screen,2_10_0_2,2022-07-11T15:46:36.586Z,,,1,A,147.52799999993294,response,stim_detected,mousedown,1097159.9,1097158,1096993797,1096994.7000000002,1097010472,1097177508,,black,RT21GR26,36,f,5,2,Verkaeuferin,0,0,0,0,0
Trial,flow.Sequence,2_10_0,2022-07-11T15:46:36.586Z,,,1,A,2248.5810000000056,completion,,,1097160.2000000002,1097158,1094892742,1094899.6,1094909419,1097177508,,black,RT21GR26,36,f,5,2,Verkaeuferin,0,0,0,0,0
Frame,canvas.Frame,2_10,2022-07-11T15:46:36.587Z,,,1,A,2250.8809999998193,,,,1097160.5,1097160.2999999998,1094892742,1094898.7000000002,1094909419,1097177508,,black,RT21GR26,36,f,5,2,Verkaeuferin,0,0,0,0,0
Fixation,canvas.Screen,2_11_0_0,2022-07-11T15:46:39.042Z,,,1,A,2453.1419999999925,timeout,,,1099615.5,1099613963,1097160832,1097161.6,1097177508,1099630.65,,black,RT21GR26,36,f,5,2,Verkaeuferin,0,0,0,0,0
Stimulus,canvas.Screen,2_11_0_1,2022-07-11T15:46:39.140Z,,,1,A,98.64700000011362,timeout,,,1099714.4,1099712618,1099613963,1099615.7999999998,1099630.65,1099729297,,black,RT21GR26,36,f,5,2,Verkaeuferin,0,0,0,0,0
Reaction,canvas.Screen,2_11_0_2,2022-07-11T15:46:39.455Z,,,1,A,298.7029999999795,response,stim_detected,mousedown,1100029.2999999998,1100028,1099712618,1099714.7000000002,1099729297,1100046092,,black,RT21GR26,36,f,5,2,Verkaeuferin,0,0,0,0,0
Trial,flow.Sequence,2_11_0,2022-07-11T15:46:39.456Z,,,1,A,2850.4920000000857,completion,,,1100029.6,1100028,1097160832,1097161.6,1097177508,1100046092,,black,RT21GR26,36,f,5,2,Verkaeuferin,0,0,0,0,0
Frame,canvas.Frame,2_11,2022-07-11T15:46:39.456Z,,,1,A,2852.192000000272,,,,1100029.9,1100029.7000000002,1097160832,1097160.7000000002,1097177508,1100046092,,black,RT21GR26,36,f,5,2,Verkaeuferin,0,0,0,0,0
Fixation,canvas.Screen,2_12_0_0,2022-07-11T15:46:41.610Z,,,1,A,2152.1480000000447,timeout,,,1102184.2000000002,1102181557,1100029415,1100030.9,1100046092,1102198.24,,black,RT21GR26,36,f,5,2,Verkaeuferin,0,0,0,0,0
Stimulus,canvas.Screen,2_12_0_1,2022-07-11T15:46:41.709Z,,,1,A,99.39299999992363,timeout,,,1102283.4,1102280956,1102181557,1102184.5,1102198.24,1102297633,,black,RT21GR26,36,f,5,2,Verkaeuferin,0,0,0,0,0
Reaction,canvas.Screen,2_12_0_2,2022-07-11T15:46:41.856Z,,,1,A,130.86700000008568,response,stim_detected,mousedown,1102429.9,1102428.5,1102280956,1102283.6,1102297633,1102447701,,black,RT21GR26,36,f,5,2,Verkaeuferin,0,0,0,0,0
Trial,flow.Sequence,2_12_0,2022-07-11T15:46:41.856Z,,,1,A,2382.408000000054,completion,,,1102430.4,1102428.5,1100029415,1100030.7000000002,1100046092,1102447701,,black,RT21GR26,36,f,5,2,Verkaeuferin,0,0,0,0,0
Frame,canvas.Frame,2_12,2022-07-11T15:46:41.857Z,,,1,A,2384.408000000054,,,,1102430.6,1102430.5,1100029415,1100030,1100046092,1102447701,,black,RT21GR26,36,f,5,2,Verkaeuferin,0,0,0,0,0
Fixation,canvas.Screen,2_13_0_0,2022-07-11T15:46:43.660Z,,,0,V,1801.0080000001471,timeout,,,1104233.7000000002,1104232033,1102431024,1102431.7000000002,1102447701,1104248709,,grey,RT21GR26,36,f,5,2,Verkaeuferin,0,0,0,0,0
Stimulus,canvas.Screen,2_13_0_1,2022-07-11T15:46:43.760Z,,,0,V,100.05099999997765,timeout,,,1104333.7999999998,1104332084,1104232033,1104234,1104248709,1104348.76,,grey,RT21GR26,36,f,5,2,Verkaeuferin,0,0,0,0,0
Reaction,canvas.Screen,2_13_0_2,2022-07-11T15:46:43.937Z,,,0,V,161.03999999980442,response,stim_detected,mousedown,1104511.4,1104509.7999999998,1104332084,1104334,1104348.76,1104515725,,grey,RT21GR26,36,f,5,2,Verkaeuferin,0,0,0,0,0
Trial,flow.Sequence,2_13_0,2022-07-11T15:46:43.938Z,,,0,V,2062.098999999929,completion,,,1104511.7999999998,1104509.7999999998,1102431024,1102431.6,1102447701,1104515725,,grey,RT21GR26,36,f,5,2,Verkaeuferin,0,0,0,0,0
Frame,canvas.Frame,2_13,2022-07-11T15:46:43.938Z,,,0,V,2064.1990000000224,,,,1104512.2000000002,1104511.9,1102431024,1102430.7999999998,1102447701,1104515725,,grey,RT21GR26,36,f,5,2,Verkaeuferin,0,0,0,0,0
Fixation,canvas.Screen,2_14_0_0,2022-07-11T15:46:46.212Z,,,1,AV,2285.5049999998882,timeout,,,1106785.7000000002,1106784548,1104499048,1104513.1,1104515725,1106801.23,,grey,RT21GR26,36,f,5,2,Verkaeuferin,0,0,0,0,0
Stimulus,canvas.Screen,2_14_0_1,2022-07-11T15:46:46.311Z,,,1,AV,99.1840000001248,timeout,,,1106884.6,1106883738,1106784548,1106785.7999999998,1106801.23,1106900414,,grey,RT21GR26,36,f,5,2,Verkaeuferin,0,0,0,0,0
Reaction,canvas.Screen,2_14_0_2,2022-07-11T15:46:46.458Z,,,1,AV,130.2860000000801,response,stim_detected,mousedown,1107032.4,1107030.7000000002,1106883738,1106884.7999999998,1106900414,1107033999,,grey,RT21GR26,36,f,5,2,Verkaeuferin,0,0,0,0,0
Trial,flow.Sequence,2_14_0,2022-07-11T15:46:46.459Z,,,1,AV,2514.975000000093,completion,,,1107032.7999999998,1107030.7000000002,1104499048,1104513.1,1104515725,1107033999,,grey,RT21GR26,36,f,5,2,Verkaeuferin,0,0,0,0,0
Frame,canvas.Frame,2_14,2022-07-11T15:46:46.459Z,,,1,AV,2517.274999999907,,,,1107033.2000000002,1107033,1104499048,1104512.2999999998,1104515725,1107033999,,grey,RT21GR26,36,f,5,2,Verkaeuferin,0,0,0,0,0
Fixation,canvas.Screen,2_15_0_0,2022-07-11T15:46:48.447Z,,,1,A,2002.2700000000186,timeout,,,1109020.7000000002,1109019584,1107017323,1107034.2000000002,1107033999,1109036269,,black,RT21GR26,36,f,5,2,Verkaeuferin,0,0,0,0,0
Stimulus,canvas.Screen,2_15_0_1,2022-07-11T15:46:48.546Z,,,1,A,98.95799999986775,timeout,,,1109119.7000000002,1109118551,1109019584,1109021.2000000002,1109036269,1109135227,,black,RT21GR26,36,f,5,2,Verkaeuferin,0,0,0,0,0
Reaction,canvas.Screen,2_15_0_2,2022-07-11T15:46:48.954Z,,,1,A,391.57299999985844,response,stim_detected,mousedown,1109528.2000000002,1109526.7999999998,1109118551,1109119.9,1109135227,1109535673,,black,RT21GR26,36,f,5,2,Verkaeuferin,0,0,0,0,0
Trial,flow.Sequence,2_15_0,2022-07-11T15:46:48.955Z,,,1,A,2492.800999999745,completion,,,1109528.7000000002,1109526.7999999998,1107017323,1107034.1,1107033999,1109535673,,black,RT21GR26,36,f,5,2,Verkaeuferin,0,0,0,0,0
Frame,canvas.Frame,2_15,2022-07-11T15:46:48.955Z,,,1,A,2494.800999999745,,,,1109529,1109528.7999999998,1107017323,1107033.4,1107033999,1109535673,,black,RT21GR26,36,f,5,2,Verkaeuferin,0,0,0,0,0
Fixation,canvas.Screen,2_16_0_0,2022-07-11T15:46:50.613Z,,,1,A,1667.7080000001006,timeout,,,1111187.2999999998,1111186704,1109518996,1109530,1109535673,1111203381,,black,RT21GR26,36,f,5,2,Verkaeuferin,0,0,0,0,0
Stimulus,canvas.Screen,2_16_0_1,2022-07-11T15:46:50.714Z,,,1,A,100.09799999999814,timeout,,,1111287.7999999998,1111286802,1111186704,1111187.2999999998,1111203381,1111303479,,black,RT21GR26,36,f,5,2,Verkaeuferin,0,0,0,0,0
Reaction,canvas.Screen,2_16_0_2,2022-07-11T15:46:50.850Z,,,1,A,119.22100000013597,response,stim_detected,mousedown,1111424.1,1111422.7000000002,1111286802,1111288,1111303479,1111436.86,,black,RT21GR26,36,f,5,2,Verkaeuferin,0,0,0,0,0
Trial,flow.Sequence,2_16_0,2022-07-11T15:46:50.851Z,,,1,A,1887.0270000002347,completion,,,1111424.6,1111422.7000000002,1109518996,1109529.9,1109535673,1111436.86,,black,RT21GR26,36,f,5,2,Verkaeuferin,0,0,0,0,0
Frame,canvas.Frame,2_16,2022-07-11T15:46:50.851Z,,,1,A,1889.1269999998622,,,,1111424.9,1111424.7999999998,1109518996,1109529.2000000002,1109535673,1111436.86,,black,RT21GR26,36,f,5,2,Verkaeuferin,0,0,0,0,0
Fixation,canvas.Screen,2_17_0_0,2022-07-11T15:46:53.284Z,,,1,A,2436.6729999999516,timeout,,,1113858,1113856844,1111420184,1111426,1111436.86,1113873533,,black,RT21GR26,36,f,5,2,Verkaeuferin,0,0,0,0,0
Stimulus,canvas.Screen,2_17_0_1,2022-07-11T15:46:53.382Z,,,1,A,97.88999999989755,timeout,,,1113956.1,1113954749,1113856844,1113858.2999999998,1113873533,1113971423,,black,RT21GR26,36,f,5,2,Verkaeuferin,0,0,0,0,0
Reaction,canvas.Screen,2_17_0_2,2022-07-11T15:46:53.595Z,,,1,A,196.2770000002347,response,stim_detected,mousedown,1114169.4,1114167.7000000002,1113954749,1113956.4,1113971423,1114172.02,,black,RT21GR26,36,f,5,2,Verkaeuferin,0,0,0,0,0
Trial,flow.Sequence,2_17_0,2022-07-11T15:46:53.596Z,,,1,A,2730.840000000084,completion,,,1114169.7000000002,1114167.7000000002,1111420184,1111425.7999999998,1111436.86,1114172.02,,black,RT21GR26,36,f,5,2,Verkaeuferin,0,0,0,0,0
Frame,canvas.Frame,2_17,2022-07-11T15:46:53.596Z,,,1,A,2733.0399999998044,,,,1114170.1,1114169.9,1111420184,1111425.1,1111436.86,1114172.02,,black,RT21GR26,36,f,5,2,Verkaeuferin,0,0,0,0,0
Fixation,canvas.Screen,2_18_0_0,2022-07-11T15:46:55.835Z,,,1,A,2252.680999999866,timeout,,,1116409.1,1116408015,1114155343,1114171,1114172.02,1116424701,,black,RT21GR26,36,f,5,2,Verkaeuferin,0,0,0,0,0
Stimulus,canvas.Screen,2_18_0_1,2022-07-11T15:46:55.934Z,,,1,A,98.68500000005588,timeout,,,1116508.2000000002,1116506.71,1116408015,1116409.2999999998,1116424701,1116523386,,black,RT21GR26,36,f,5,2,Verkaeuferin,0,0,0,0,0
Reaction,canvas.Screen,2_18_0_2,2022-07-11T15:46:56.127Z,,,1,A,175.71400000015274,response,stim_detected,mousedown,1116700.5,1116699.1,1116506.71,1116508.5,1116523386,1116723737,,black,RT21GR26,36,f,5,2,Verkaeuferin,0,0,0,0,0
Trial,flow.Sequence,2_18_0,2022-07-11T15:46:56.127Z,,,1,A,2527.0800000000745,completion,,,1116700.9,1116699.1,1114155343,1114170.9,1114172.02,1116723737,,black,RT21GR26,36,f,5,2,Verkaeuferin,0,0,0,0,0
Frame,canvas.Frame,2_18,2022-07-11T15:46:56.127Z,,,1,A,2529.1800000001676,,,,1116701.2999999998,1116701.2000000002,1114155343,1114170.2000000002,1114172.02,1116723737,,black,RT21GR26,36,f,5,2,Verkaeuferin,0,0,0,0,0
Fixation,canvas.Screen,2_19_0_0,2022-07-11T15:46:57.868Z,,,0,V,1733.935999999987,timeout,,,1118442,1118441,1116690383,1116702.6,1116723737,1118457673,,grey,RT21GR26,36,f,5,2,Verkaeuferin,0,0,0,0,0
Stimulus,canvas.Screen,2_19_0_1,2022-07-11T15:46:57.969Z,,,0,V,100.34199999994598,timeout,,,1118543.2000000002,1118541.34,1118441,1118442.2999999998,1118457673,1118558015,,grey,RT21GR26,36,f,5,2,Verkaeuferin,0,0,0,0,0
Reaction,canvas.Screen,2_19_0_2,2022-07-11T15:46:58.173Z,,,0,V,187.58500000019558,response,stim_detected,mousedown,1118747.1,1118745.6,1118541.34,1118543.5,1118558015,1118758352,,grey,RT21GR26,36,f,5,2,Verkaeuferin,0,0,0,0,0
Trial,flow.Sequence,2_19_0,2022-07-11T15:46:58.174Z,,,0,V,2021.8630000001285,completion,,,1118747.6,1118745.6,1116690383,1116702.5,1116723737,1118758352,,grey,RT21GR26,36,f,5,2,Verkaeuferin,0,0,0,0,0
Frame,canvas.Frame,2_19,2022-07-11T15:46:58.174Z,,,0,V,2023.9630000002217,,,,1118748,1118747.7000000002,1116690383,1116701.5,1116723737,1118758352,,grey,RT21GR26,36,f,5,2,Verkaeuferin,0,0,0,0,0
Fixation,canvas.Screen,2_20_0_0,2022-07-11T15:46:59.871Z,,,0,V,1702.3249999999534,timeout,,,1120445,1120443988,1118741675,1118749.1,1118758352,1120460677,,grey,RT21GR26,36,f,5,2,Verkaeuferin,0,0,0,0,0
Stimulus,canvas.Screen,2_20_0_1,2022-07-11T15:46:59.970Z,,,0,V,98.83500000019558,timeout,,,1120544.1,1120542836,1120443988,1120445.2999999998,1120460677,1120559512,,grey,RT21GR26,36,f,5,2,Verkaeuferin,0,0,0,0,0
Reaction,canvas.Screen,2_20_0_2,2022-07-11T15:47:00.171Z,,,0,V,183.9879999998957,response,stim_detected,mousedown,1120744.9,1120743.5,1120542836,1120544.4,1120559512,1120759691,,grey,RT21GR26,36,f,5,2,Verkaeuferin,0,0,0,0,0
Trial,flow.Sequence,2_20_0,2022-07-11T15:47:00.171Z,,,0,V,1985.1480000000447,completion,,,1120745.2999999998,1120743.5,1118741675,1118749,1118758352,1120759691,,grey,RT21GR26,36,f,5,2,Verkaeuferin,0,0,0,0,0
Frame,canvas.Frame,2_20,2022-07-11T15:47:00.172Z,,,0,V,1987.0479999999516,,,,1120745.6,1120745.4,1118741675,1118748.1,1118758352,1120759691,,grey,RT21GR26,36,f,5,2,Verkaeuferin,0,0,0,0,0
Fixation,canvas.Screen,2_21_0_0,2022-07-11T15:47:02.255Z,,,1,A,2084.774999999907,timeout,,,1122829.2000000002,1122827788,1120743014,1120746.7000000002,1120759691,1122844466,,black,RT21GR26,36,f,5,2,Verkaeuferin,0,0,0,0,0
Stimulus,canvas.Screen,2_21_0_1,2022-07-11T15:47:02.355Z,,,1,A,99.98799999989569,timeout,,,1122929.2000000002,1122927777,1122827788,1122829.4,1122844466,1122944454,,black,RT21GR26,36,f,5,2,Verkaeuferin,0,0,0,0,0
Reaction,canvas.Screen,2_21_0_2,2022-07-11T15:47:02.558Z,,,1,A,186.0460000000894,response,stim_detected,mousedown,1123131.9,1123130.5,1122927777,1122929.5,1122944454,1123144608,,black,RT21GR26,36,f,5,2,Verkaeuferin,0,0,0,0,0
Trial,flow.Sequence,2_21_0,2022-07-11T15:47:02.558Z,,,1,A,2370.808999999892,completion,,,1123132.2999999998,1123130.5,1120743014,1120746.6,1120759691,1123144608,,black,RT21GR26,36,f,5,2,Verkaeuferin,0,0,0,0,0
Frame,canvas.Frame,2_21,2022-07-11T15:47:02.559Z,,,1,A,2372.808999999892,,,,1123132.7000000002,1123132.5,1120743014,1120745.7000000002,1120759691,1123144608,,black,RT21GR26,36,f,5,2,Verkaeuferin,0,0,0,0,0
Fixation,canvas.Screen,2_22_0_0,2022-07-11T15:47:04.073Z,,,1,AV,1517.933999999892,timeout,,,1124647.2000000002,1124645862,1123127931,1123133.6,1123144608,1124662542,,grey,RT21GR26,36,f,5,2,Verkaeuferin,0,0,0,0,0
Stimulus,canvas.Screen,2_22_0_1,2022-07-11T15:47:04.173Z,,,1,AV,99.69400000013411,timeout,,,1124747.2000000002,1124745.56,1124645862,1124647.4,1124662542,1124762236,,grey,RT21GR26,36,f,5,2,Verkaeuferin,0,0,0,0,0
Reaction,canvas.Screen,2_22_0_2,2022-07-11T15:47:04.313Z,,,1,AV,123.16399999987334,response,stim_detected,mousedown,1124886.9,1124885.4,1124745.56,1124747.7999999998,1124762236,1124895764,,grey,RT21GR26,36,f,5,2,Verkaeuferin,0,0,0,0,0
Trial,flow.Sequence,2_22_0,2022-07-11T15:47:04.313Z,,,1,AV,1740.7919999998994,completion,,,1124887.2000000002,1124885.4,1123127931,1123133.6,1123144608,1124895764,,grey,RT21GR26,36,f,5,2,Verkaeuferin,0,0,0,0,0
Frame,canvas.Frame,2_22,2022-07-11T15:47:04.314Z,,,1,AV,1742.7919999998994,,,,1124887.6,1124887.4,1123127931,1123132.7999999998,1123144608,1124895764,,grey,RT21GR26,36,f,5,2,Verkaeuferin,0,0,0,0,0
Fixation,canvas.Screen,2_23_0_0,2022-07-11T15:47:06.208Z,,,1,A,1900.1729999999516,timeout,,,1126780.4,1126779268,1124879087,1124888.5,1124895764,1126795937,,black,RT21GR26,36,f,5,2,Verkaeuferin,0,0,0,0,0
Stimulus,canvas.Screen,2_23_0_1,2022-07-11T15:47:06.310Z,,,1,A,101.2180000001099,timeout,,,1126882.2999999998,1126880474,1126779268,1126780.6,1126795937,1126897155,,black,RT21GR26,36,f,5,2,Verkaeuferin,0,0,0,0,0
Reaction,canvas.Screen,2_23_0_2,2022-07-11T15:47:06.472Z,,,1,A,146.24499999987893,response,stim_detected,mousedown,1127044.7999999998,1127043.4,1126880474,1126882.7999999998,1126897155,1127063863,,black,RT21GR26,36,f,5,2,Verkaeuferin,0,0,0,0,0
Trial,flow.Sequence,2_23_0,2022-07-11T15:47:06.472Z,,,1,A,2147.6359999999404,completion,,,1127045.2000000002,1127043.4,1124879087,1124888.5,1124895764,1127063863,,black,RT21GR26,36,f,5,2,Verkaeuferin,0,0,0,0,0
Frame,canvas.Frame,2_23,2022-07-11T15:47:06.473Z,,,1,A,2149.6359999999404,,,,1127045.5,1127045.4,1124879087,1124887.7999999998,1124895764,1127063863,,black,RT21GR26,36,f,5,2,Verkaeuferin,0,0,0,0,0
Fixation,canvas.Screen,2_24_0_0,2022-07-11T15:47:08.961Z,,,1,AV,2484.712999999989,timeout,,,1129533.7000000002,1129531.9,1127030509,1127046.6,1127063863,1129548576,,grey,RT21GR26,36,f,5,2,Verkaeuferin,0,0,0,0,0
Stimulus,canvas.Screen,2_24_0_1,2022-07-11T15:47:09.061Z,,,1,AV,99.8980000000447,timeout,,,1129633.9,1129631799,1129531.9,1129534,1129548576,1129648474,,grey,RT21GR26,36,f,5,2,Verkaeuferin,0,0,0,0,0
Reaction,canvas.Screen,2_24_0_2,2022-07-11T15:47:09.223Z,,,1,AV,145.82599999988452,response,stim_detected,mousedown,1129795.7999999998,1129794.2999999998,1129631799,1129634.2000000002,1129648474,1129798961,,grey,RT21GR26,36,f,5,2,Verkaeuferin,0,0,0,0,0
Trial,flow.Sequence,2_24_0,2022-07-11T15:47:09.223Z,,,1,AV,2730.436999999918,completion,,,1129796.2999999998,1129794.2999999998,1127030509,1127046.5,1127063863,1129798961,,grey,RT21GR26,36,f,5,2,Verkaeuferin,0,0,0,0,0
Frame,canvas.Frame,2_24,2022-07-11T15:47:09.224Z,,,1,AV,2732.537000000011,,,,1129796.6,1129796.4,1127030509,1127045.7000000002,1127063863,1129798961,,grey,RT21GR26,36,f,5,2,Verkaeuferin,0,0,0,0,0
Fixation,canvas.Screen,2_25_0_0,2022-07-11T15:47:11.196Z,,,1,A,1984.8260000001173,timeout,,,1131768.5,1131767108,1129782284,1129797.7999999998,1129798961,1131783787,,black,RT21GR26,36,f,5,2,Verkaeuferin,0,0,0,0,0
Stimulus,canvas.Screen,2_25_0_1,2022-07-11T15:47:11.296Z,,,1,A,99.93800000008196,timeout,,,1131868.5,1131867047,1131767108,1131768.7999999998,1131783787,1131883725,,black,RT21GR26,36,f,5,2,Verkaeuferin,0,0,0,0,0
Reaction,canvas.Screen,2_25_0_2,2022-07-11T15:47:11.437Z,,,1,A,124.47500000009313,response,stim_detected,mousedown,1132009.7000000002,1132008.2000000002,1131867047,1131868.7000000002,1131883725,1132017097,,black,RT21GR26,36,f,5,2,Verkaeuferin,0,0,0,0,0
Trial,flow.Sequence,2_25_0,2022-07-11T15:47:11.437Z,,,1,A,2209.2390000002924,completion,,,1132010.1,1132008.2000000002,1129782284,1129797.6,1129798961,1132017097,,black,RT21GR26,36,f,5,2,Verkaeuferin,0,0,0,0,0
Frame,canvas.Frame,2_25,2022-07-11T15:47:11.438Z,,,1,A,2211.2390000002924,,,,1132010.4,1132010.2000000002,1129782284,1129796.7999999998,1129798961,1132017097,,black,RT21GR26,36,f,5,2,Verkaeuferin,0,0,0,0,0
Fixation,canvas.Screen,2_26_0_0,2022-07-11T15:47:12.947Z,,,0,V,1518.0200000000186,timeout,,,1133519.5,1133518436,1132000.42,1132011.5,1132017097,1133535117,,grey,RT21GR26,36,f,5,2,Verkaeuferin,0,0,0,0,0
Stimulus,canvas.Screen,2_26_0_1,2022-07-11T15:47:13.047Z,,,0,V,99.52199999988079,timeout,,,1133619.5,1133617964,1133518436,1133519.7999999998,1133535117,1133634639,,grey,RT21GR26,36,f,5,2,Verkaeuferin,0,0,0,0,0
Reaction,canvas.Screen,2_26_0_2,2022-07-11T15:47:13.231Z,,,0,V,167.5610000002198,response,stim_detected,mousedown,1133803.7000000002,1133802.2000000002,1133617964,1133619.7999999998,1133634639,1133818285,,grey,RT21GR26,36,f,5,2,Verkaeuferin,0,0,0,0,0
Trial,flow.Sequence,2_26_0,2022-07-11T15:47:13.231Z,,,0,V,1785.1030000001192,completion,,,1133804.2000000002,1133802.2000000002,1132000.42,1132011.2999999998,1132017097,1133818285,,grey,RT21GR26,36,f,5,2,Verkaeuferin,0,0,0,0,0
Frame,canvas.Frame,2_26,2022-07-11T15:47:13.232Z,,,0,V,1787.2029999997467,,,,1133804.4,1133804.2999999998,1132000.42,1132010.6,1132017097,1133818285,,grey,RT21GR26,36,f,5,2,Verkaeuferin,0,0,0,0,0
Fixation,canvas.Screen,2_27_0_0,2022-07-11T15:47:14.780Z,,,0,V,1550.9670000001788,timeout,,,1135353.2999999998,1135352575,1133801608,1133805.5,1133818285,1135369252,,grey,RT21GR26,36,f,5,2,Verkaeuferin,0,0,0,0,0
Stimulus,canvas.Screen,2_27_0_1,2022-07-11T15:47:14.882Z,,,0,V,100.15399999986403,timeout,,,1135454.6,1135452728,1135352575,1135353.4,1135369252,1135469406,,grey,RT21GR26,36,f,5,2,Verkaeuferin,0,0,0,0,0
Reaction,canvas.Screen,2_27_0_2,2022-07-11T15:47:15.058Z,,,0,V,159.79400000022724,response,stim_detected,mousedown,1135630.6,1135629.2000000002,1135452728,1135454.9,1135469406,1135636106,,grey,RT21GR26,36,f,5,2,Verkaeuferin,0,0,0,0,0
Trial,flow.Sequence,2_27_0,2022-07-11T15:47:15.058Z,,,0,V,1810.91500000027,completion,,,1135630.9,1135629.2000000002,1133801608,1133805.4,1133818285,1135636106,,grey,RT21GR26,36,f,5,2,Verkaeuferin,0,0,0,0,0
Frame,canvas.Frame,2_27,2022-07-11T15:47:15.058Z,,,0,V,1812.91500000027,,,,1135631.2999999998,1135631.2000000002,1133801608,1133804.6,1133818285,1135636106,,grey,RT21GR26,36,f,5,2,Verkaeuferin,0,0,0,0,0
Fixation,canvas.Screen,2_28_0_0,2022-07-11T15:47:17.367Z,,,1,AV,2319.136000000173,timeout,,,1137939.6,1137938558,1135619.43,1135632.7999999998,1135636106,1137955242,,grey,RT21GR26,36,f,5,2,Verkaeuferin,0,0,0,0,0
Stimulus,canvas.Screen,2_28_0_1,2022-07-11T15:47:17.466Z,,,1,AV,98.77399999997579,timeout,,,1138038.7000000002,1138037341,1137938558,1137939.9,1137955242,1138054016,,grey,RT21GR26,36,f,5,2,Verkaeuferin,0,0,0,0,0
Reaction,canvas.Screen,2_28_0_2,2022-07-11T15:47:17.603Z,,,1,AV,120.1840000001248,response,stim_detected,mousedown,1138175.7000000002,1138174.2000000002,1138037341,1138038.9,1138054016,1138187829,,grey,RT21GR26,36,f,5,2,Verkaeuferin,0,0,0,0,0
Trial,flow.Sequence,2_28_0,2022-07-11T15:47:17.603Z,,,1,AV,2538.094000000274,completion,,,1138176.2000000002,1138174.2000000002,1135619.43,1135632.7000000002,1135636106,1138187829,,grey,RT21GR26,36,f,5,2,Verkaeuferin,0,0,0,0,0
Frame,canvas.Frame,2_28,2022-07-11T15:47:17.604Z,,,1,AV,2540.1939999999013,,,,1138176.5,1138176.2999999998,1135619.43,1135631.4,1135636106,1138187829,,grey,RT21GR26,36,f,5,2,Verkaeuferin,0,0,0,0,0
Fixation,canvas.Screen,2_29_0_0,2022-07-11T15:47:20.067Z,,,1,A,2467.0810000000056,timeout,,,1140639.9,1140638.24,1138171152,1138177.6,1138187829,1140654.91,,black,RT21GR26,36,f,5,2,Verkaeuferin,0,0,0,0,0
Stimulus,canvas.Screen,2_29_0_1,2022-07-11T15:47:20.168Z,,,1,A,101.30500000016764,timeout,,,1140740.9,1140739537,1140638.24,1140640.1,1140654.91,1140756215,,black,RT21GR26,36,f,5,2,Verkaeuferin,0,0,0,0,0
Reaction,canvas.Screen,2_29_0_2,2022-07-11T15:47:20.335Z,,,1,A,149.8850000000093,response,stim_detected,mousedown,1140907.6,1140906.1,1140739537,1140741.2000000002,1140756215,1140922911,,black,RT21GR26,36,f,5,2,Verkaeuferin,0,0,0,0,0
Trial,flow.Sequence,2_29_0,2022-07-11T15:47:20.336Z,,,1,A,2718.2710000001825,completion,,,1140908.5,1140906.1,1138171152,1138177.5,1138187829,1140922911,,black,RT21GR26,36,f,5,2,Verkaeuferin,0,0,0,0,0
Frame,canvas.Frame,2_29,2022-07-11T15:47:20.336Z,,,1,A,2720.8710000002757,,,,1140908.9,1140908.7000000002,1138171152,1138176.7999999998,1138187829,1140922911,,black,RT21GR26,36,f,5,2,Verkaeuferin,0,0,0,0,0
Fixation,canvas.Screen,2_30_0_0,2022-07-11T15:47:22.504Z,,,0,V,2169.6309999998193,timeout,,,1143076.9,1143075853,1140906234,1140910,1140922911,1143092542,,grey,RT21GR26,36,f,5,2,Verkaeuferin,0,0,0,0,0
Stimulus,canvas.Screen,2_30_0_1,2022-07-11T15:47:22.602Z,,,0,V,97.92900000000373,timeout,,,1143175,1143173798,1143075853,1143077.1,1143092542,1143190471,,grey,RT21GR26,36,f,5,2,Verkaeuferin,0,0,0,0,0
Reaction,canvas.Screen,2_30_0_2,2022-07-11T15:47:22.743Z,,,0,V,123.62900000018999,response,stim_detected,mousedown,1143315.4,1143314.1,1143173798,1143175.2000000002,1143190471,1143324517,,grey,RT21GR26,36,f,5,2,Verkaeuferin,0,0,0,0,0
Trial,flow.Sequence,2_30_0,2022-07-11T15:47:22.743Z,,,0,V,2391.189000000013,completion,,,1143315.9,1143314.1,1140906234,1140909.9,1140922911,1143324517,,grey,RT21GR26,36,f,5,2,Verkaeuferin,0,0,0,0,0
Frame,canvas.Frame,2_30,2022-07-11T15:47:22.743Z,,,0,V,2393.08899999992,,,,1143316.1,1143316,1140906234,1140909.1,1140922911,1143324517,,grey,RT21GR26,36,f,5,2,Verkaeuferin,0,0,0,0,0
Fixation,canvas.Screen,2_31_0_0,2022-07-11T15:47:24.655Z,,,1,AV,1918.3570000000764,timeout,,,1145227.9,1145226193,1143307.84,1143317.2000000002,1143324517,1145242874,,grey,RT21GR26,36,f,5,2,Verkaeuferin,0,0,0,0,0
Stimulus,canvas.Screen,2_31_0_1,2022-07-11T15:47:24.754Z,,,1,AV,99.33299999986775,timeout,,,1145327.2000000002,1145325532,1145226193,1145228.2000000002,1145242874,1145342207,,grey,RT21GR26,36,f,5,2,Verkaeuferin,0,0,0,0,0
Reaction,canvas.Screen,2_31_0_2,2022-07-11T15:47:24.815Z,,,1,AV,43.79300000006333,response,stim_detected,mousedown,1145387.4,1145386,1145325532,1145327.5,1145342207,1145409237,,grey,RT21GR26,36,f,5,2,Verkaeuferin,0,0,0,0,0
Trial,flow.Sequence,2_31_0,2022-07-11T15:47:24.815Z,,,1,AV,2061.4830000000075,completion,,,1145387.7999999998,1145386,1143307.84,1143317.1,1143324517,1145409237,,grey,RT21GR26,36,f,5,2,Verkaeuferin,0,0,0,0,0
Frame,canvas.Frame,2_31,2022-07-11T15:47:24.815Z,,,1,AV,2063.3829999999143,,,,1145388.1,1145387.9,1143307.84,1143316.2999999998,1143324517,1145409237,,grey,RT21GR26,36,f,5,2,Verkaeuferin,0,0,0,0,0
Fixation,canvas.Screen,2_32_0_0,2022-07-11T15:47:27.290Z,,,1,A,2467.7290000000503,timeout,,,1147862.7000000002,1147860292,1145392.56,1145389,1145409237,1147876966,,black,RT21GR26,36,f,5,2,Verkaeuferin,0,0,0,0,0
Stimulus,canvas.Screen,2_32_0_1,2022-07-11T15:47:27.390Z,,,1,A,100.48999999999069,timeout,,,1147962.7999999998,1147960.78,1147860292,1147863,1147876966,1147977456,,black,RT21GR26,36,f,5,2,Verkaeuferin,0,0,0,0,0
Reaction,canvas.Screen,2_32_0_2,2022-07-11T15:47:27.547Z,,,1,A,140.44399999990128,response,stim_detected,mousedown,1148119.2999999998,1148117.9,1147960.78,1147963.1,1147977456,1148127677,,black,RT21GR26,36,f,5,2,Verkaeuferin,0,0,0,0,0
Trial,flow.Sequence,2_32_0,2022-07-11T15:47:27.547Z,,,1,A,2708.6629999999423,completion,,,1148119.7999999998,1148117.9,1145392.56,1145389,1145409237,1148127677,,black,RT21GR26,36,f,5,2,Verkaeuferin,0,0,0,0,0
Frame,canvas.Frame,2_32,2022-07-11T15:47:27.547Z,,,1,A,2710.6629999999423,,,,1148120,1148119.9,1145392.56,1145388.2999999998,1145409237,1148127677,,black,RT21GR26,36,f,5,2,Verkaeuferin,0,0,0,0,0
Fixation,canvas.Screen,2_33_0_0,2022-07-11T15:47:29.190Z,,,1,A,1650.6980000000913,timeout,,,1149763.1,1149761701,1148111,1148121.1,1148127677,1149778375,,black,RT21GR26,36,f,5,2,Verkaeuferin,0,0,0,0,0
Stimulus,canvas.Screen,2_33_0_1,2022-07-11T15:47:29.290Z,,,1,A,100.41299999994226,timeout,,,1149863.2999999998,1149862111,1149761701,1149763.2999999998,1149778375,1149878788,,black,RT21GR26,36,f,5,2,Verkaeuferin,0,0,0,0,0
Reaction,canvas.Screen,2_33_0_2,2022-07-11T15:47:29.689Z,,,1,A,381.0119999998715,response,stim_detected,mousedown,1150261.4,1150259.7999999998,1149862111,1149863.6,1149878788,1150279.01,,black,RT21GR26,36,f,5,2,Verkaeuferin,0,0,0,0,0
Trial,flow.Sequence,2_33_0,2022-07-11T15:47:29.689Z,,,1,A,2132.122999999905,completion,,,1150261.7999999998,1150259.7999999998,1148111,1148121,1148127677,1150279.01,,black,RT21GR26,36,f,5,2,Verkaeuferin,0,0,0,0,0
Frame,canvas.Frame,2_33,2022-07-11T15:47:29.689Z,,,1,A,2134.222999999998,,,,1150262.1,1150261.9,1148111,1148120.2999999998,1148127677,1150279.01,,black,RT21GR26,36,f,5,2,Verkaeuferin,0,0,0,0,0
Fixation,canvas.Screen,2_34_0_0,2022-07-11T15:47:31.593Z,,,1,AV,1902.5959999999031,timeout,,,1152166.2000000002,1152164917,1150262334,1150263.4,1150279.01,1152181606,,grey,RT21GR26,36,f,5,2,Verkaeuferin,0,0,0,0,0
Stimulus,canvas.Screen,2_34_0_1,2022-07-11T15:47:31.693Z,,,1,AV,98.76500000013039,timeout,,,1152265.4,1152263694,1152164917,1152166.5,1152181606,1152280371,,grey,RT21GR26,36,f,5,2,Verkaeuferin,0,0,0,0,0
Reaction,canvas.Screen,2_34_0_2,2022-07-11T15:47:31.831Z,,,1,AV,122.4289999997709,response,stim_detected,mousedown,1152404.2000000002,1152402.7999999998,1152263694,1152265.5,1152280371,1152413831,,grey,RT21GR26,36,f,5,2,Verkaeuferin,0,0,0,0,0
Trial,flow.Sequence,2_34_0,2022-07-11T15:47:31.832Z,,,1,AV,2123.7899999998044,completion,,,1152404.6,1152402.7999999998,1150262334,1150263.2000000002,1150279.01,1152413831,,grey,RT21GR26,36,f,5,2,Verkaeuferin,0,0,0,0,0
Frame,canvas.Frame,2_34,2022-07-11T15:47:31.832Z,,,1,AV,2125.7899999998044,,,,1152404.9,1152404.7999999998,1150262334,1150262.5,1150279.01,1152413831,,grey,RT21GR26,36,f,5,2,Verkaeuferin,0,0,0,0,0
Fixation,canvas.Screen,2_35_0_0,2022-07-11T15:47:33.910Z,,,0,V,2084.628000000026,timeout,,,1154483.2000000002,1154481782,1152397154,1152406,1152413831,1154498459,,grey,RT21GR26,36,f,5,2,Verkaeuferin,0,0,0,0,0
Stimulus,canvas.Screen,2_35_0_1,2022-07-11T15:47:34.010Z,,,0,V,99.92599999997765,timeout,,,1154583.2000000002,1154581709,1154481782,1154483.5,1154498459,1154598385,,grey,RT21GR26,36,f,5,2,Verkaeuferin,0,0,0,0,0
Reaction,canvas.Screen,2_35_0_2,2022-07-11T15:47:34.192Z,,,0,V,165.21500000008382,response,stim_detected,mousedown,1154765.1,1154763.6,1154581709,1154583.4,1154598385,1154782021,,grey,RT21GR26,36,f,5,2,Verkaeuferin,0,0,0,0,0
Trial,flow.Sequence,2_35_0,2022-07-11T15:47:34.193Z,,,0,V,2349.7690000000875,completion,,,1154765.5,1154763.6,1152397154,1152405.7999999998,1152413831,1154782021,,grey,RT21GR26,36,f,5,2,Verkaeuferin,0,0,0,0,0
Frame,canvas.Frame,2_35,2022-07-11T15:47:34.193Z,,,0,V,2351.6689999999944,,,,1154765.7000000002,1154765.5,1152397154,1152405.1,1152413831,1154782021,,grey,RT21GR26,36,f,5,2,Verkaeuferin,0,0,0,0,0
Fixation,canvas.Screen,2_36_0_0,2022-07-11T15:47:36.347Z,,,1,AV,2152.1729999999516,timeout,,,1156919.2999999998,1156917511,1154765344,1154766.7999999998,1154782021,1156934194,,grey,RT21GR26,36,f,5,2,Verkaeuferin,0,0,0,0,0
Stimulus,canvas.Screen,2_36_0_1,2022-07-11T15:47:36.445Z,,,1,AV,99.38400000007823,timeout,,,1157018.2999999998,1157016.9,1156917511,1156919.6,1156934194,1157033578,,grey,RT21GR26,36,f,5,2,Verkaeuferin,0,0,0,0,0
Reaction,canvas.Screen,2_36_0_2,2022-07-11T15:47:36.576Z,,,1,AV,114.22199999983422,response,stim_detected,mousedown,1157149.2000000002,1157147.7999999998,1157016.9,1157018.6,1157033578,1157166932,,grey,RT21GR26,36,f,5,2,Verkaeuferin,0,0,0,0,0
Trial,flow.Sequence,2_36_0,2022-07-11T15:47:36.577Z,,,1,AV,2365.778999999864,completion,,,1157149.6,1157147.7999999998,1154765344,1154766.7000000002,1154782021,1157166932,,grey,RT21GR26,36,f,5,2,Verkaeuferin,0,0,0,0,0
Frame,canvas.Frame,2_36,2022-07-11T15:47:36.577Z,,,1,AV,2367.6790000002366,,,,1157149.9,1157149.7000000002,1154765344,1154765.9,1154782021,1157166932,,grey,RT21GR26,36,f,5,2,Verkaeuferin,0,0,0,0,0
Fixation,canvas.Screen,2_37_0_0,2022-07-11T15:47:38.081Z,,,1,AV,1501.40699999989,timeout,,,1158653.4,1158651657,1157150255,1157151.5,1157166932,1158668339,,grey,RT21GR26,36,f,5,2,Verkaeuferin,0,0,0,0,0
Stimulus,canvas.Screen,2_37_0_1,2022-07-11T15:47:38.180Z,,,1,AV,99.4089999999851,timeout,,,1158752.4,1158751073,1158651657,1158653.7000000002,1158668339,1158767748,,grey,RT21GR26,36,f,5,2,Verkaeuferin,0,0,0,0,0
Reaction,canvas.Screen,2_37_0_2,2022-07-11T15:47:38.316Z,,,1,AV,119.95200000028126,response,stim_detected,mousedown,1158889.2000000002,1158887.7000000002,1158751073,1158752.7000000002,1158767748,1158901363,,grey,RT21GR26,36,f,5,2,Verkaeuferin,0,0,0,0,0
Trial,flow.Sequence,2_37_0,2022-07-11T15:47:38.317Z,,,1,AV,1720.7680000001565,completion,,,1158889.7000000002,1158887.7000000002,1157150255,1157151.4,1157166932,1158901363,,grey,RT21GR26,36,f,5,2,Verkaeuferin,0,0,0,0,0
Frame,canvas.Frame,2_37,2022-07-11T15:47:38.317Z,,,1,AV,1722.867999999784,,,,1158890.1,1158889.7999999998,1157150255,1157150,1157166932,1158901363,,grey,RT21GR26,36,f,5,2,Verkaeuferin,0,0,0,0,0
Fixation,canvas.Screen,2_38_0_0,2022-07-11T15:47:40.449Z,,,0,V,2135.377000000095,timeout,,,1161021.5,1161020058,1158884687,1158891.1,1158901363,1161036.74,,grey,RT21GR26,36,f,5,2,Verkaeuferin,0,0,0,0,0
Stimulus,canvas.Screen,2_38_0_1,2022-07-11T15:47:40.548Z,,,0,V,99.49200000008568,timeout,,,1161120.5,1161119553,1161020058,1161021.9,1161036.74,1161136232,,grey,RT21GR26,36,f,5,2,Verkaeuferin,0,0,0,0,0
Reaction,canvas.Screen,2_38_0_2,2022-07-11T15:47:40.681Z,,,0,V,116.4680000001099,response,stim_detected,mousedown,1161254.1,1161252.7000000002,1161119553,1161120.7999999998,1161136232,1161269.63,,grey,RT21GR26,36,f,5,2,Verkaeuferin,0,0,0,0,0
Trial,flow.Sequence,2_38_0,2022-07-11T15:47:40.682Z,,,0,V,2351.3370000002906,completion,,,1161254.6,1161252.7000000002,1158884687,1158891,1158901363,1161269.63,,grey,RT21GR26,36,f,5,2,Verkaeuferin,0,0,0,0,0
Frame,canvas.Frame,2_38,2022-07-11T15:47:40.682Z,,,0,V,2353.3370000002906,,,,1161255,1161254.7000000002,1158884687,1158890.2999999998,1158901363,1161269.63,,grey,RT21GR26,36,f,5,2,Verkaeuferin,0,0,0,0,0
Fixation,canvas.Screen,2_39_0_0,2022-07-11T15:47:43.166Z,,,0,V,2484.717000000179,timeout,,,1163738.6,1163737671,1161252953,1161256.1,1161269.63,1163754347,,grey,RT21GR26,36,f,5,2,Verkaeuferin,0,0,0,0,0
Stimulus,canvas.Screen,2_39_0_1,2022-07-11T15:47:43.266Z,,,0,V,99.98399999993853,timeout,,,1163838.6,1163837656,1163737671,1163739.1,1163754347,1163854331,,grey,RT21GR26,36,f,5,2,Verkaeuferin,0,0,0,0,0
Reaction,canvas.Screen,2_39_0_2,2022-07-11T15:47:43.432Z,,,0,V,149.26900000008754,response,stim_detected,mousedown,1164005.1,1164003.6,1163837656,1163838.9,1163854331,1164021.4,,grey,RT21GR26,36,f,5,2,Verkaeuferin,0,0,0,0,0
Trial,flow.Sequence,2_39_0,2022-07-11T15:47:43.433Z,,,0,V,2733.970000000205,completion,,,1164005.5,1164003.6,1161252953,1161256,1161269.63,1164021.4,,grey,RT21GR26,36,f,5,2,Verkaeuferin,0,0,0,0,0
Frame,canvas.Frame,2_39,2022-07-11T15:47:43.433Z,,,0,V,2736.070000000298,,,,1164005.9,1164005.7000000002,1161252953,1161255.2000000002,1161269.63,1164021.4,,grey,RT21GR26,36,f,5,2,Verkaeuferin,0,0,0,0,0
Fixation,canvas.Screen,2_40_0_0,2022-07-11T15:47:44.935Z,,,1,A,1501.2470000002068,timeout,,,1165507.7000000002,1165505967,1164004723,1164007.1,1164021.4,1165522647,,black,RT21GR26,36,f,5,2,Verkaeuferin,0,0,0,0,0
Stimulus,canvas.Screen,2_40_0_1,2022-07-11T15:47:45.035Z,,,1,A,99.89699999988079,timeout,,,1165607.7999999998,1165605864,1165505967,1165507.9,1165522647,1165622544,,black,RT21GR26,36,f,5,2,Verkaeuferin,0,0,0,0,0
Reaction,canvas.Screen,2_40_0_2,2022-07-11T15:47:45.262Z,,,1,A,210.9560000000056,response,stim_detected,mousedown,1165834.9,1165833.5,1165605864,1165608.1,1165622544,1165839309,,black,RT21GR26,36,f,5,2,Verkaeuferin,0,0,0,0,0
Trial,flow.Sequence,2_40_0,2022-07-11T15:47:45.263Z,,,1,A,1812.1000000000931,completion,,,1165835.4,1165833.5,1164004723,1164006.9,1164021.4,1165839309,,black,RT21GR26,36,f,5,2,Verkaeuferin,0,0,0,0,0
Frame,canvas.Frame,2_40,2022-07-11T15:47:45.263Z,,,1,A,1814.1000000000931,,,,1165835.7999999998,1165835.5,1164004723,1164006.1,1164021.4,1165839309,,black,RT21GR26,36,f,5,2,Verkaeuferin,0,0,0,0,0
Fixation,canvas.Screen,2_41_0_0,2022-07-11T15:47:46.935Z,,,0,V,1683.4450000000652,timeout,,,1167507.7999999998,1167506085,1165822632,1165836.9,1165839309,1167522754,,grey,RT21GR26,36,f,5,2,Verkaeuferin,0,0,0,0,0
Stimulus,canvas.Screen,2_41_0_1,2022-07-11T15:47:47.036Z,,,0,V,101.09899999992922,timeout,,,1167608.7999999998,1167607175,1167506085,1167508.1,1167522754,1167623853,,grey,RT21GR26,36,f,5,2,Verkaeuferin,0,0,0,0,0
Reaction,canvas.Screen,2_41_0_2,2022-07-11T15:47:47.158Z,,,0,V,105.64700000011362,response,stim_detected,mousedown,1167731,1167729.5,1167607175,1167609.2000000002,1167623853,1167740518,,grey,RT21GR26,36,f,5,2,Verkaeuferin,0,0,0,0,0
Trial,flow.Sequence,2_41_0,2022-07-11T15:47:47.159Z,,,0,V,1890.191000000108,completion,,,1167731.4,1167729.5,1165822632,1165836.9,1165839309,1167740518,,grey,RT21GR26,36,f,5,2,Verkaeuferin,0,0,0,0,0
Frame,canvas.Frame,2_41,2022-07-11T15:47:47.159Z,,,0,V,1892.191000000108,,,,1167731.7000000002,1167731.5,1165822632,1165836,1165839309,1167740518,,grey,RT21GR26,36,f,5,2,Verkaeuferin,0,0,0,0,0
Fixation,canvas.Screen,2_42_0_0,2022-07-11T15:47:49.355Z,,,1,AV,2202.346000000136,timeout,,,1169927.7999999998,1169926.18,1167723841,1167732.7000000002,1167740518,1169942864,,grey,RT21GR26,36,f,5,2,Verkaeuferin,0,0,0,0,0
Stimulus,canvas.Screen,2_42_0_1,2022-07-11T15:47:49.454Z,,,1,AV,99.23699999996461,timeout,,,1170026.9,1170025423,1169926.18,1169928.1,1169942864,1170042101,,grey,RT21GR26,36,f,5,2,Verkaeuferin,0,0,0,0,0
Reaction,canvas.Screen,2_42_0_2,2022-07-11T15:47:49.592Z,,,1,AV,121.29899999988265,response,stim_detected,mousedown,1170165,1170163.4,1170025423,1170027.2000000002,1170042101,1170175472,,grey,RT21GR26,36,f,5,2,Verkaeuferin,0,0,0,0,0
Trial,flow.Sequence,2_42_0,2022-07-11T15:47:49.593Z,,,1,AV,2422.8819999999832,completion,,,1170165.2999999998,1170163.4,1167723841,1167732.6,1167740518,1170175472,,grey,RT21GR26,36,f,5,2,Verkaeuferin,0,0,0,0,0
Frame,canvas.Frame,2_42,2022-07-11T15:47:49.593Z,,,1,AV,2424.9820000000764,,,,1170165.7000000002,1170165.5,1167723841,1167731.9,1167740518,1170175472,,grey,RT21GR26,36,f,5,2,Verkaeuferin,0,0,0,0,0
Fixation,canvas.Screen,2_43_0_0,2022-07-11T15:47:52.040Z,,,0,V,2451.835999999894,timeout,,,1172612.5,1172610629,1170158795,1170166.7999999998,1170175472,1172627308,,grey,RT21GR26,36,f,5,2,Verkaeuferin,0,0,0,0,0
Stimulus,canvas.Screen,2_43_0_1,2022-07-11T15:47:52.140Z,,,0,V,99.73300000000745,timeout,,,1172712.6,1172710365,1172610629,1172612.7000000002,1172627308,1172727041,,grey,RT21GR26,36,f,5,2,Verkaeuferin,0,0,0,0,0
Reaction,canvas.Screen,2_43_0_2,2022-07-11T15:47:52.290Z,,,0,V,133.2589999998454,response,stim_detected,mousedown,1172862.7000000002,1172860.2999999998,1172710365,1172712.7999999998,1172727041,1172877228,,grey,RT21GR26,36,f,5,2,Verkaeuferin,0,0,0,0,0
Trial,flow.Sequence,2_43_0,2022-07-11T15:47:52.290Z,,,0,V,2684.8279999997467,completion,,,1172863.1,1172860.2999999998,1170158795,1170166.7000000002,1170175472,1172877228,,grey,RT21GR26,36,f,5,2,Verkaeuferin,0,0,0,0,0
Frame,canvas.Frame,2_43,2022-07-11T15:47:52.291Z,,,0,V,2687.728000000119,,,,1172863.4,1172863.2000000002,1170158795,1170165.9,1170175472,1172877228,,grey,RT21GR26,36,f,5,2,Verkaeuferin,0,0,0,0,0
Fixation,canvas.Screen,2_44_0_0,2022-07-11T15:47:54.475Z,,,0,V,2185.720000000205,timeout,,,1175048,1175046263,1172860551,1172864.4,1172877228,1175062948,,grey,RT21GR26,36,f,5,2,Verkaeuferin,0,0,0,0,0
Stimulus,canvas.Screen,2_44_0_1,2022-07-11T15:47:54.573Z,,,0,V,97.92200000002049,timeout,,,1175145.9,1175144201,1175046263,1175048.4,1175062948,1175160.87,,grey,RT21GR26,36,f,5,2,Verkaeuferin,0,0,0,0,0
Reaction,canvas.Screen,2_44_0_2,2022-07-11T15:47:54.726Z,,,0,V,136.42999999970198,response,stim_detected,mousedown,1175298.7999999998,1175297.2999999998,1175144201,1175146.2999999998,1175160.87,1175312165,,grey,RT21GR26,36,f,5,2,Verkaeuferin,0,0,0,0,0
Trial,flow.Sequence,2_44_0,2022-07-11T15:47:54.726Z,,,0,V,2420.0719999999274,completion,,,1175299.2000000002,1175297.2999999998,1172860551,1172864.2999999998,1172877228,1175312165,,grey,RT21GR26,36,f,5,2,Verkaeuferin,0,0,0,0,0
Frame,canvas.Frame,2_44,2022-07-11T15:47:54.727Z,,,0,V,2422.1720000000205,,,,1175299.5,1175299.4,1172860551,1172863.6,1172877228,1175312165,,grey,RT21GR26,36,f,5,2,Verkaeuferin,0,0,0,0,0
Fixation,canvas.Screen,2_45_0_0,2022-07-11T15:47:57.076Z,,,0,V,2351.776000000071,timeout,,,1177649,1177647262,1175295488,1175300.6,1175312165,1177663941,,grey,RT21GR26,36,f,5,2,Verkaeuferin,0,0,0,0,0
Stimulus,canvas.Screen,2_45_0_1,2022-07-11T15:47:57.175Z,,,0,V,99.29699999978766,timeout,,,1177748,1177746564,1177647262,1177649.2999999998,1177663941,1177763238,,grey,RT21GR26,36,f,5,2,Verkaeuferin,0,0,0,0,0
Reaction,canvas.Screen,2_45_0_2,2022-07-11T15:47:57.343Z,,,0,V,151.06199999991804,response,stim_detected,mousedown,1177915.7000000002,1177914.2999999998,1177746564,1177748.2000000002,1177763238,1177930567,,grey,RT21GR26,36,f,5,2,Verkaeuferin,0,0,0,0,0
Trial,flow.Sequence,2_45_0,2022-07-11T15:47:57.343Z,,,0,V,2602.1349999997765,completion,,,1177916.1,1177914.2999999998,1175295488,1175300.5,1175312165,1177930567,,grey,RT21GR26,36,f,5,2,Verkaeuferin,0,0,0,0,0
Frame,canvas.Frame,2_45,2022-07-11T15:47:57.344Z,,,0,V,2604.035000000149,,,,1177916.4,1177916.2000000002,1175295488,1175299.7000000002,1175312165,1177930567,,grey,RT21GR26,36,f,5,2,Verkaeuferin,0,0,0,0,0
Fixation,canvas.Screen,2_46_0_0,2022-07-11T15:47:58.926Z,,,1,AV,1583.7689999998547,timeout,,,1179499.1,1179497664,1177913.89,1177917.5,1177930567,1179514336,,grey,RT21GR26,36,f,5,2,Verkaeuferin,0,0,0,0,0
Stimulus,canvas.Screen,2_46_0_1,2022-07-11T15:47:59.027Z,,,1,AV,100.68100000009872,timeout,,,1179600.1,1179598339,1179497664,1179499.2999999998,1179514336,1179615017,,grey,RT21GR26,36,f,5,2,Verkaeuferin,0,0,0,0,0
Reaction,canvas.Screen,2_46_0_2,2022-07-11T15:47:59.170Z,,,1,AV,126.38299999991432,response,stim_detected,mousedown,1179742.7999999998,1179741.4,1179598339,1179600.4,1179615017,1179748395,,grey,RT21GR26,36,f,5,2,Verkaeuferin,0,0,0,0,0
Trial,flow.Sequence,2_46_0,2022-07-11T15:47:59.170Z,,,1,AV,1810.8329999998678,completion,,,1179743.2999999998,1179741.4,1177913.89,1177917.4,1177930567,1179748395,,grey,RT21GR26,36,f,5,2,Verkaeuferin,0,0,0,0,0
Frame,canvas.Frame,2_46,2022-07-11T15:47:59.171Z,,,1,AV,1812.8329999998678,,,,1179743.6,1179743.4,1177913.89,1177916.6,1177930567,1179748395,,grey,RT21GR26,36,f,5,2,Verkaeuferin,0,0,0,0,0
Fixation,canvas.Screen,2_47_0_0,2022-07-11T15:48:01.596Z,,,1,A,2435.904000000097,timeout,,,1182169.2999999998,1182167615,1179731718,1179744.6,1179748395,1182184299,,black,RT21GR26,36,f,5,2,Verkaeuferin,0,0,0,0,0
Stimulus,canvas.Screen,2_47_0_1,2022-07-11T15:48:01.695Z,,,1,A,99.15299999993294,timeout,,,1182268.2000000002,1182266775,1182167615,1182169.6,1182184299,1182283452,,black,RT21GR26,36,f,5,2,Verkaeuferin,0,0,0,0,0
Reaction,canvas.Screen,2_47_0_2,2022-07-11T15:48:01.839Z,,,1,A,126.8479999997653,response,stim_detected,mousedown,1182411.7000000002,1182410.2999999998,1182266775,1182268.5,1182283452,1182416.82,,black,RT21GR26,36,f,5,2,Verkaeuferin,0,0,0,0,0
Trial,flow.Sequence,2_47_0,2022-07-11T15:48:01.839Z,,,1,A,2661.904999999795,completion,,,1182412,1182410.2999999998,1179731718,1179744.5,1179748395,1182416.82,,black,RT21GR26,36,f,5,2,Verkaeuferin,0,0,0,0,0
Frame,canvas.Frame,2_47,2022-07-11T15:48:01.840Z,,,1,A,2663.8050000001676,,,,1182412.4,1182412.2000000002,1179731718,1179743.7000000002,1179748395,1182416.82,,black,RT21GR26,36,f,5,2,Verkaeuferin,0,0,0,0,0
Fixation,canvas.Screen,2_48_0_0,2022-07-11T15:48:03.930Z,,,0,V,2101.3229999998584,timeout,,,1184503.2000000002,1184501466,1182400144,1182413.5,1182416.82,1184518143,,grey,RT21GR26,36,f,5,2,Verkaeuferin,0,0,0,0,0
Stimulus,canvas.Screen,2_48_0_1,2022-07-11T15:48:04.029Z,,,0,V,99.37100000004284,timeout,,,1184602.2999999998,1184600842,1184501466,1184503.5,1184518143,1184617514,,grey,RT21GR26,36,f,5,2,Verkaeuferin,0,0,0,0,0
Reaction,canvas.Screen,2_48_0_2,2022-07-11T15:48:04.175Z,,,0,V,128.58600000012666,response,stim_detected,mousedown,1184747.5,1184746.1,1184600842,1184602.6,1184617514,1184751666,,grey,RT21GR26,36,f,5,2,Verkaeuferin,0,0,0,0,0
Trial,flow.Sequence,2_48_0,2022-07-11T15:48:04.175Z,,,0,V,2329.280000000028,completion,,,1184747.9,1184746.1,1182400144,1182413.4,1182416.82,1184751666,,grey,RT21GR26,36,f,5,2,Verkaeuferin,0,0,0,0,0
Frame,canvas.Frame,2_48,2022-07-11T15:48:04.175Z,,,0,V,2331.280000000028,,,,1184748.2999999998,1184748.1,1182400144,1182412.6,1182416.82,1184751666,,grey,RT21GR26,36,f,5,2,Verkaeuferin,0,0,0,0,0
Fixation,canvas.Screen,2_49_0_0,2022-07-11T15:48:05.681Z,,,1,A,1517.8200000000652,timeout,,,1186254.2999999998,1186252807,1184734989,1184749.4,1184751666,1186269486,,black,RT21GR26,36,f,5,2,Verkaeuferin,0,0,0,0,0
Stimulus,canvas.Screen,2_49_0_1,2022-07-11T15:48:05.781Z,,,1,A,99.93599999998696,timeout,,,1186354.2999999998,1186352573,1186252807,1186254.6,1186269486,1186369422,,black,RT21GR26,36,f,5,2,Verkaeuferin,0,0,0,0,0
Reaction,canvas.Screen,2_49_0_2,2022-07-11T15:48:06.168Z,,,1,A,367.5779999999795,response,stim_detected,mousedown,1186738.6,1186737,1186352573,1186354.6,1186369422,1186752993,,black,RT21GR26,36,f,5,2,Verkaeuferin,0,0,0,0,0
Trial,flow.Sequence,2_49_0,2022-07-11T15:48:06.168Z,,,1,A,1985.3340000000317,completion,,,1186739,1186737,1184734989,1184749.2000000002,1184751666,1186752993,,black,RT21GR26,36,f,5,2,Verkaeuferin,0,0,0,0,0
Frame,canvas.Frame,2_49,2022-07-11T15:48:06.168Z,,,1,A,1987.4340000001248,,,,1186739.2999999998,1186739.1,1184734989,1184748.5,1184751666,1186752993,,black,RT21GR26,36,f,5,2,Verkaeuferin,0,0,0,0,0
Fixation,canvas.Screen,2_50_0_0,2022-07-11T15:48:08.034Z,,,1,AV,1868.1119999999646,timeout,,,1188605.4,1188604426,1186736316,1186740.5,1186752993,1188621105,,grey,RT21GR26,36,f,5,2,Verkaeuferin,0,0,0,0,0
Stimulus,canvas.Screen,2_50_0_1,2022-07-11T15:48:08.134Z,,,1,AV,99.64400000008754,timeout,,,1188705.4,1188704073,1188604426,1188605.7999999998,1188621105,1188720749,,grey,RT21GR26,36,f,5,2,Verkaeuferin,0,0,0,0,0
Reaction,canvas.Screen,2_50_0_2,2022-07-11T15:48:08.282Z,,,1,AV,130.35100000002421,response,stim_detected,mousedown,1188852.6,1188851.1,1188704073,1188705.9,1188720749,1188854409,,grey,RT21GR26,36,f,5,2,Verkaeuferin,0,0,0,0,0
Trial,flow.Sequence,2_50_0,2022-07-11T15:48:08.282Z,,,1,AV,2098.1070000000764,completion,,,1188853.1,1188851.1,1186736316,1186740.4,1186752993,1188854409,,grey,RT21GR26,36,f,5,2,Verkaeuferin,0,0,0,0,0
Frame,canvas.Frame,2_50,2022-07-11T15:48:08.282Z,,,1,AV,2100.1070000000764,,,,1188853.4,1188853.1,1186736316,1186739.5,1186752993,1188854409,,grey,RT21GR26,36,f,5,2,Verkaeuferin,0,0,0,0,0
Fixation,canvas.Screen,2_51_0_0,2022-07-11T15:48:10.418Z,,,1,AV,2150.773999999976,timeout,,,1190989.4,1190988.51,1188837732,1188854.5,1188854409,1191005183,,grey,RT21GR26,36,f,5,2,Verkaeuferin,0,0,0,0,0
Stimulus,canvas.Screen,2_51_0_1,2022-07-11T15:48:10.520Z,,,1,AV,100.73999999999069,timeout,,,1191090.5,1191089244,1190988.51,1190989.7000000002,1191005183,1191105923,,grey,RT21GR26,36,f,5,2,Verkaeuferin,0,0,0,0,0
Reaction,canvas.Screen,2_51_0_2,2022-07-11T15:48:10.665Z,,,1,AV,129.17700000014156,response,stim_detected,mousedown,1191236.5,1191235.1,1191089244,1191090.7999999998,1191105923,1191239277,,grey,RT21GR26,36,f,5,2,Verkaeuferin,0,0,0,0,0
Trial,flow.Sequence,2_51_0,2022-07-11T15:48:10.666Z,,,1,AV,2380.691000000108,completion,,,1191236.9,1191235.1,1188837732,1188854.4,1188854409,1191239277,,grey,RT21GR26,36,f,5,2,Verkaeuferin,0,0,0,0,0
Frame,canvas.Frame,2_51,2022-07-11T15:48:10.666Z,,,1,AV,2382.691000000108,,,,1191237.2000000002,1191237.1,1188837732,1188853.5,1188854409,1191239277,,grey,RT21GR26,36,f,5,2,Verkaeuferin,0,0,0,0,0
Fixation,canvas.Screen,2_52_0_0,2022-07-11T15:48:13.123Z,,,1,AV,2469.317000000039,timeout,,,1193693.7000000002,1193691.91,1191222.6,1191238.2999999998,1191239277,1193708594,,grey,RT21GR26,36,f,5,2,Verkaeuferin,0,0,0,0,0
Stimulus,canvas.Screen,2_52_0_1,2022-07-11T15:48:13.222Z,,,1,AV,98.97900000005029,timeout,,,1193792.7000000002,1193790896,1193691.91,1193694,1193708594,1193807573,,grey,RT21GR26,36,f,5,2,Verkaeuferin,0,0,0,0,0
Reaction,canvas.Screen,2_52_0_2,2022-07-11T15:48:13.378Z,,,1,AV,140.3269999998156,response,stim_detected,mousedown,1193949.2999999998,1193947.9,1193790896,1193793,1193807573,1193957726,,grey,RT21GR26,36,f,5,2,Verkaeuferin,0,0,0,0,0
Trial,flow.Sequence,2_52_0,2022-07-11T15:48:13.379Z,,,1,AV,2708.622999999905,completion,,,1193949.7000000002,1193947.9,1191222.6,1191238.2000000002,1191239277,1193957726,,grey,RT21GR26,36,f,5,2,Verkaeuferin,0,0,0,0,0
Frame,canvas.Frame,2_52,2022-07-11T15:48:13.379Z,,,1,AV,2710.522999999812,,,,1193950.1,1193949.7999999998,1191222.6,1191237.4,1191239277,1193957726,,grey,RT21GR26,36,f,5,2,Verkaeuferin,0,0,0,0,0
Fixation,canvas.Screen,2_53_0_0,2022-07-11T15:48:15.407Z,,,1,AV,2035.405000000028,timeout,,,1195977.6,1195976448,1193941049,1193951.1,1193957726,1195993131,,grey,RT21GR26,36,f,5,2,Verkaeuferin,0,0,0,0,0
Stimulus,canvas.Screen,2_53_0_1,2022-07-11T15:48:15.506Z,,,1,AV,99.31099999998696,timeout,,,1196076.6,1196075719,1195976448,1195977.9,1195993131,1196092442,,grey,RT21GR26,36,f,5,2,Verkaeuferin,0,0,0,0,0
Reaction,canvas.Screen,2_53_0_2,2022-07-11T15:48:15.671Z,,,1,AV,148.35799999977462,response,stim_detected,mousedown,1196242.4,1196240.7999999998,1196075719,1196077,1196092442,1196259202,,grey,RT21GR26,36,f,5,2,Verkaeuferin,0,0,0,0,0
Trial,flow.Sequence,2_53_0,2022-07-11T15:48:15.672Z,,,1,AV,2283.0739999997895,completion,,,1196242.9,1196240.7999999998,1193941049,1193951,1193957726,1196259202,,grey,RT21GR26,36,f,5,2,Verkaeuferin,0,0,0,0,0
Frame,canvas.Frame,2_53,2022-07-11T15:48:15.672Z,,,1,AV,2285.273999999976,,,,1196243.2000000002,1196243,1193941049,1193950.2000000002,1193957726,1196259202,,grey,RT21GR26,36,f,5,2,Verkaeuferin,0,0,0,0,0
Fixation,canvas.Screen,2_54_0_0,2022-07-11T15:48:17.408Z,,,1,AV,1735.2120000000577,timeout,,,1197978.7999999998,1197977.73,1196242526,1196244.4,1196259202,1197994414,,grey,RT21GR26,36,f,5,2,Verkaeuferin,0,0,0,0,0
Stimulus,canvas.Screen,2_54_0_1,2022-07-11T15:48:17.508Z,,,1,AV,99.34799999999814,timeout,,,1198078.7000000002,1198077085,1197977.73,1197979.1,1197994414,1198093762,,grey,RT21GR26,36,f,5,2,Verkaeuferin,0,0,0,0,0
Reaction,canvas.Screen,2_54_0_2,2022-07-11T15:48:17.643Z,,,1,AV,119.03799999970943,response,stim_detected,mousedown,1198214.2999999998,1198212.7999999998,1198077085,1198079,1198093762,1198227168,,grey,RT21GR26,36,f,5,2,Verkaeuferin,0,0,0,0,0
Trial,flow.Sequence,2_54_0,2022-07-11T15:48:17.644Z,,,1,AV,1953.5979999997653,completion,,,1198214.7000000002,1198212.7999999998,1196242526,1196244.2000000002,1196259202,1198227168,,grey,RT21GR26,36,f,5,2,Verkaeuferin,0,0,0,0,0
Frame,canvas.Frame,2_54,2022-07-11T15:48:17.644Z,,,1,AV,1955.5979999997653,,,,1198215,1198214.7999999998,1196242526,1196243.5,1196259202,1198227168,,grey,RT21GR26,36,f,5,2,Verkaeuferin,0,0,0,0,0
Fixation,canvas.Screen,2_55_0_0,2022-07-11T15:48:19.676Z,,,1,A,2034.873999999836,timeout,,,1200246.7999999998,1200245363,1198210492,1198216.4,1198227168,1200262042,,black,RT21GR26,36,f,5,2,Verkaeuferin,0,0,0,0,0
Stimulus,canvas.Screen,2_55_0_1,2022-07-11T15:48:19.776Z,,,1,A,99.99200000008568,timeout,,,1200346.7999999998,1200345354,1200245363,1200247.1,1200262042,1200362034,,black,RT21GR26,36,f,5,2,Verkaeuferin,0,0,0,0,0
Reaction,canvas.Screen,2_55_0_2,2022-07-11T15:48:19.936Z,,,1,A,143.66600000020117,response,stim_detected,mousedown,1200507.2000000002,1200505.7000000002,1200345354,1200347.1,1200362034,1200512047,,black,RT21GR26,36,f,5,2,Verkaeuferin,0,0,0,0,0
Trial,flow.Sequence,2_55_0,2022-07-11T15:48:19.937Z,,,1,A,2278.532000000123,completion,,,1200507.6,1200505.7000000002,1198210492,1198216.2999999998,1198227168,1200512047,,black,RT21GR26,36,f,5,2,Verkaeuferin,0,0,0,0,0
Frame,canvas.Frame,2_55,2022-07-11T15:48:19.937Z,,,1,A,2280.6319999997504,,,,1200508,1200507.7999999998,1198210492,1198215.2999999998,1198227168,1200512047,,black,RT21GR26,36,f,5,2,Verkaeuferin,0,0,0,0,0
Fixation,canvas.Screen,2_56_0_0,2022-07-11T15:48:21.644Z,,,0,V,1717.972000000067,timeout,,,1202214.9,1202213.34,1200495.37,1200509.1,1200512047,1202230019,,grey,RT21GR26,36,f,5,2,Verkaeuferin,0,0,0,0,0
Stimulus,canvas.Screen,2_56_0_1,2022-07-11T15:48:21.743Z,,,0,V,99.26000000000931,timeout,,,1202313.9,1202312607,1202213.34,1202215.2000000002,1202230019,1202329279,,grey,RT21GR26,36,f,5,2,Verkaeuferin,0,0,0,0,0
Reaction,canvas.Screen,2_56_0_2,2022-07-11T15:48:21.978Z,,,0,V,218.4210000000894,response,stim_detected,mousedown,1202549.2000000002,1202547.7000000002,1202312607,1202314.1,1202329279,1202563346,,grey,RT21GR26,36,f,5,2,Verkaeuferin,0,0,0,0,0
Trial,flow.Sequence,2_56_0,2022-07-11T15:48:21.978Z,,,0,V,2035.6530000001658,completion,,,1202549.5,1202547.7000000002,1200495.37,1200508.9,1200512047,1202563346,,grey,RT21GR26,36,f,5,2,Verkaeuferin,0,0,0,0,0
Frame,canvas.Frame,2_56,2022-07-11T15:48:21.979Z,,,0,V,2037.6530000001658,,,,1202549.7999999998,1202549.7000000002,1200495.37,1200508.1,1200512047,1202563346,,grey,RT21GR26,36,f,5,2,Verkaeuferin,0,0,0,0,0
Fixation,canvas.Screen,2_57_0_0,2022-07-11T15:48:24.262Z,,,1,AV,2285.3720000002068,timeout,,,1204833,1204832037,1202546669,1202551.7999999998,1202563346,1204848718,,grey,RT21GR26,36,f,5,2,Verkaeuferin,0,0,0,0,0
Stimulus,canvas.Screen,2_57_0_1,2022-07-11T15:48:24.362Z,,,1,AV,99.63299999991432,timeout,,,1204932.9,1204931672,1204832037,1204833.2000000002,1204848718,1204948351,,grey,RT21GR26,36,f,5,2,Verkaeuferin,0,0,0,0,0
Reaction,canvas.Screen,2_57_0_2,2022-07-11T15:48:24.503Z,,,1,AV,124.34900000016205,response,stim_detected,mousedown,1205074.1,1205072.7000000002,1204931672,1204933.2000000002,1204948351,1205081716,,grey,RT21GR26,36,f,5,2,Verkaeuferin,0,0,0,0,0
Trial,flow.Sequence,2_57_0,2022-07-11T15:48:24.504Z,,,1,AV,2509.354000000283,completion,,,1205074.5,1205072.7000000002,1202546669,1202551.7999999998,1202563346,1205081716,,grey,RT21GR26,36,f,5,2,Verkaeuferin,0,0,0,0,0
Frame,canvas.Frame,2_57,2022-07-11T15:48:24.504Z,,,1,AV,2511.354000000283,,,,1205074.9,1205074.7000000002,1202546669,1202550,1202563346,1205081716,,grey,RT21GR26,36,f,5,2,Verkaeuferin,0,0,0,0,0
Fixation,canvas.Screen,2_58_0_0,2022-07-11T15:48:26.897Z,,,1,AV,2401.960999999894,timeout,,,1207468.2000000002,1207466997,1205065039,1205076.2000000002,1205081716,1207483677,,grey,RT21GR26,36,f,5,2,Verkaeuferin,0,0,0,0,0
Stimulus,canvas.Screen,2_58_0_1,2022-07-11T15:48:26.997Z,,,1,AV,99.52000000001863,timeout,,,1207568.2000000002,1207566521,1207466997,1207468.4,1207483677,1207583197,,grey,RT21GR26,36,f,5,2,Verkaeuferin,0,0,0,0,0
Reaction,canvas.Screen,2_58_0_2,2022-07-11T15:48:27.131Z,,,1,AV,116.50300000025891,response,stim_detected,mousedown,1207701.7999999998,1207699.7000000002,1207566521,1207568.4,1207583197,1207716769,,grey,RT21GR26,36,f,5,2,Verkaeuferin,0,0,0,0,0
Trial,flow.Sequence,2_58_0,2022-07-11T15:48:27.131Z,,,1,AV,2617.9840000001714,completion,,,1207702.2000000002,1207699.7000000002,1205065039,1205076,1205081716,1207716769,,grey,RT21GR26,36,f,5,2,Verkaeuferin,0,0,0,0,0
Frame,canvas.Frame,2_58,2022-07-11T15:48:27.131Z,,,1,AV,2620.583999999799,,,,1207702.4,1207702.2999999998,1205065039,1205075.2000000002,1205081716,1207716769,,grey,RT21GR26,36,f,5,2,Verkaeuferin,0,0,0,0,0
Fixation,canvas.Screen,2_59_0_0,2022-07-11T15:48:29.314Z,,,0,V,2184.1180000000168,timeout,,,1209885.1,1209884214,1207700092,1207703.4,1207716769,1209900887,,grey,RT21GR26,36,f,5,2,Verkaeuferin,0,0,0,0,0
Stimulus,canvas.Screen,2_59_0_1,2022-07-11T15:48:29.416Z,,,0,V,100.70899999979883,timeout,,,1209986.6,1209984917,1209884214,1209885.4,1209900887,1210001596,,grey,RT21GR26,36,f,5,2,Verkaeuferin,0,0,0,0,0
Reaction,canvas.Screen,2_59_0_2,2022-07-11T15:48:29.533Z,,,0,V,101.10400000028312,response,stim_detected,mousedown,1210104.1,1210102.7000000002,1209984917,1209986.9,1210001596,1210118302,,grey,RT21GR26,36,f,5,2,Verkaeuferin,0,0,0,0,0
Trial,flow.Sequence,2_59_0,2022-07-11T15:48:29.533Z,,,0,V,2385.9310000000987,completion,,,1210104.5,1210102.7000000002,1207700092,1207703.4,1207716769,1210118302,,grey,RT21GR26,36,f,5,2,Verkaeuferin,0,0,0,0,0
Frame,canvas.Frame,2_59,2022-07-11T15:48:29.534Z,,,0,V,2387.8310000000056,,,,1210104.9,1210104.6,1207700092,1207702.6,1207716769,1210118302,,grey,RT21GR26,36,f,5,2,Verkaeuferin,0,0,0,0,0
Fixation,canvas.Screen,2_60_0_0,2022-07-11T15:48:31.418Z,,,1,A,1886.033999999985,timeout,,,1211989.2999999998,1211987646,1210101625,1210105.9,1210118302,1212004336,,black,RT21GR26,36,f,5,2,Verkaeuferin,0,0,0,0,0
Stimulus,canvas.Screen,2_60_0_1,2022-07-11T15:48:31.515Z,,,1,A,97.7300000002142,timeout,,,1212086.2999999998,1212085396,1211987646,1211989.5,1212004336,1212102066,,black,RT21GR26,36,f,5,2,Verkaeuferin,0,0,0,0,0
Reaction,canvas.Screen,2_60_0_2,2022-07-11T15:48:31.910Z,,,1,A,377.5339999999851,response,stim_detected,mousedown,1212481.4,1212479.6,1212085396,1212086.5,1212102066,1212486558,,black,RT21GR26,36,f,5,2,Verkaeuferin,0,0,0,0,0
Trial,flow.Sequence,2_60_0,2022-07-11T15:48:31.911Z,,,1,A,2361.2980000001844,completion,,,1212481.7999999998,1212479.6,1210101625,1210105.9,1210118302,1212486558,,black,RT21GR26,36,f,5,2,Verkaeuferin,0,0,0,0,0
Frame,canvas.Frame,2_60,2022-07-11T15:48:31.911Z,,,1,A,2363.597999999998,,,,1212482.1,1212481.9,1210101625,1210105,1210118302,1212486558,,black,RT21GR26,36,f,5,2,Verkaeuferin,0,0,0,0,0
Fixation,canvas.Screen,2_61_0_0,2022-07-11T15:48:33.784Z,,,0,V,1883.8100000000559,timeout,,,1214355.4,1214353696,1212469881,1212483.2000000002,1212486558,1214370368,,grey,RT21GR26,36,f,5,2,Verkaeuferin,0,0,0,0,0
Stimulus,canvas.Screen,2_61_0_1,2022-07-11T15:48:33.885Z,,,0,V,100.86800000001676,timeout,,,1214456.4,1214454558,1214353696,1214355.6,1214370368,1214471236,,grey,RT21GR26,36,f,5,2,Verkaeuferin,0,0,0,0,0
Reaction,canvas.Screen,2_61_0_2,2022-07-11T15:48:34.042Z,,,0,V,140.26399999996647,response,stim_detected,mousedown,1214612.9,1214611.5,1214454558,1214456.7000000002,1214471236,1214621292,,grey,RT21GR26,36,f,5,2,Verkaeuferin,0,0,0,0,0
Trial,flow.Sequence,2_61_0,2022-07-11T15:48:34.042Z,,,0,V,2124.942000000039,completion,,,1214613.2999999998,1214611.5,1212469881,1212483.1,1212486558,1214621292,,grey,RT21GR26,36,f,5,2,Verkaeuferin,0,0,0,0,0
Frame,canvas.Frame,2_61,2022-07-11T15:48:34.043Z,,,0,V,2126.841999999946,,,,1214613.6,1214613.4,1212469881,1212482.2000000002,1212486558,1214621292,,grey,RT21GR26,36,f,5,2,Verkaeuferin,0,0,0,0,0
Fixation,canvas.Screen,2_62_0_0,2022-07-11T15:48:36.470Z,,,1,AV,2435.632000000216,timeout,,,1217041.4,1217040242,1214604615,1214614.6,1214621292,1217056924,,grey,RT21GR26,36,f,5,2,Verkaeuferin,0,0,0,0,0
Stimulus,canvas.Screen,2_62_0_1,2022-07-11T15:48:36.570Z,,,1,AV,99.4069999998901,timeout,,,1217141.4,1217139654,1217040242,1217041.7000000002,1217056924,1217156331,,grey,RT21GR26,36,f,5,2,Verkaeuferin,0,0,0,0,0
Reaction,canvas.Screen,2_62_0_2,2022-07-11T15:48:36.711Z,,,1,AV,124.06899999990128,response,stim_detected,mousedown,1217282,1217280.4,1217139654,1217141.7000000002,1217156331,1217289717,,grey,RT21GR26,36,f,5,2,Verkaeuferin,0,0,0,0,0
Trial,flow.Sequence,2_62_0,2022-07-11T15:48:36.711Z,,,1,AV,2659.1080000000075,completion,,,1217282.5,1217280.4,1214604615,1214614.6,1214621292,1217289717,,grey,RT21GR26,36,f,5,2,Verkaeuferin,0,0,0,0,0
Frame,canvas.Frame,2_62,2022-07-11T15:48:36.712Z,,,1,AV,2661.2080000001006,,,,1217282.7000000002,1217282.5,1214604615,1214613.7999999998,1214621292,1217289717,,grey,RT21GR26,36,f,5,2,Verkaeuferin,0,0,0,0,0
Fixation,canvas.Screen,2_63_0_0,2022-07-11T15:48:38.754Z,,,1,AV,2051.4129999999423,timeout,,,1219325.5,1219324452,1217273.04,1217284.2000000002,1217289717,1219341.13,,grey,RT21GR26,36,f,5,2,Verkaeuferin,0,0,0,0,0
Stimulus,canvas.Screen,2_63_0_1,2022-07-11T15:48:38.855Z,,,1,AV,100.05100000021048,timeout,,,1219425.6,1219424503,1219324452,1219325.7000000002,1219341.13,1219441181,,grey,RT21GR26,36,f,5,2,Verkaeuferin,0,0,0,0,0
Reaction,canvas.Screen,2_63_0_2,2022-07-11T15:48:39.008Z,,,1,AV,136.11899999971502,response,stim_detected,mousedown,1219578.7999999998,1219577.2999999998,1219424503,1219425.9,1219441181,1219591224,,grey,RT21GR26,36,f,5,2,Verkaeuferin,0,0,0,0,0
Trial,flow.Sequence,2_63_0,2022-07-11T15:48:39.008Z,,,1,AV,2287.5829999998678,completion,,,1219579.2000000002,1219577.2999999998,1217273.04,1217284.1,1217289717,1219591224,,grey,RT21GR26,36,f,5,2,Verkaeuferin,0,0,0,0,0
Frame,canvas.Frame,2_63,2022-07-11T15:48:39.009Z,,,1,AV,2289.5829999998678,,,,1219579.6,1219579.2999999998,1217273.04,1217282.9,1217289717,1219591224,,grey,RT21GR26,36,f,5,2,Verkaeuferin,0,0,0,0,0
Fixation,canvas.Screen,2_64_0_0,2022-07-11T15:48:41.223Z,,,1,AV,2218.0450000001583,timeout,,,1221793.5,1221792592,1219574547,1219580.7999999998,1219591224,1221809269,,grey,RT21GR26,36,f,5,2,Verkaeuferin,0,0,0,0,0
Stimulus,canvas.Screen,2_64_0_1,2022-07-11T15:48:41.324Z,,,1,AV,100.23199999984354,timeout,,,1221894.7999999998,1221892823,1221792592,1221793.7999999998,1221809269,1221909501,,grey,RT21GR26,36,f,5,2,Verkaeuferin,0,0,0,0,0
Reaction,canvas.Screen,2_64_0_2,2022-07-11T15:48:41.459Z,,,1,AV,118.69900000025518,response,stim_detected,mousedown,1222029.7999999998,1222028.2000000002,1221892823,1221895,1221909501,1222042837,,grey,RT21GR26,36,f,5,2,Verkaeuferin,0,0,0,0,0
Trial,flow.Sequence,2_64_0,2022-07-11T15:48:41.459Z,,,1,AV,2436.976000000257,completion,,,1222030.4,1222028.2000000002,1219574547,1219580.7999999998,1219591224,1222042837,,grey,RT21GR26,36,f,5,2,Verkaeuferin,0,0,0,0,0
Frame,canvas.Frame,2_64,2022-07-11T15:48:41.460Z,,,1,AV,2439.476000000257,,,,1222031,1222030.7000000002,1219574547,1219579.9,1219591224,1222042837,,grey,RT21GR26,36,f,5,2,Verkaeuferin,0,0,0,0,0
Fixation,canvas.Screen,2_65_0_0,2022-07-11T15:48:43.792Z,,,0,V,2335.0359999998473,timeout,,,1224362.9,1224361194,1222026.16,1222032.4,1222042837,1224377873,,grey,RT21GR26,36,f,5,2,Verkaeuferin,0,0,0,0,0
Stimulus,canvas.Screen,2_65_0_1,2022-07-11T15:48:43.891Z,,,0,V,98.75300000002608,timeout,,,1224461.7999999998,1224459956,1224361194,1224363.1,1224377873,1224476626,,grey,RT21GR26,36,f,5,2,Verkaeuferin,0,0,0,0,0
Reaction,canvas.Screen,2_65_0_2,2022-07-11T15:48:44.037Z,,,0,V,129.67399999988265,response,stim_detected,mousedown,1224607.7999999998,1224606.2999999998,1224459956,1224462,1224476626,1224611186,,grey,RT21GR26,36,f,5,2,Verkaeuferin,0,0,0,0,0
Trial,flow.Sequence,2_65_0,2022-07-11T15:48:44.037Z,,,0,V,2563.462999999756,completion,,,1224608.1,1224606.2999999998,1222026.16,1222032.2999999998,1222042837,1224611186,,grey,RT21GR26,36,f,5,2,Verkaeuferin,0,0,0,0,0
Frame,canvas.Frame,2_65,2022-07-11T15:48:44.037Z,,,0,V,2565.462999999756,,,,1224608.5,1224608.2999999998,1222026.16,1222031.2999999998,1222042837,1224611186,,grey,RT21GR26,36,f,5,2,Verkaeuferin,0,0,0,0,0
Fixation,canvas.Screen,2_66_0_0,2022-07-11T15:48:45.576Z,,,0,V,1550.4420000000391,timeout,,,1226146.7000000002,1226144956,1224594509,1224609.5,1224611186,1226161628,,grey,RT21GR26,36,f,5,2,Verkaeuferin,0,0,0,0,0
Stimulus,canvas.Screen,2_66_0_1,2022-07-11T15:48:45.676Z,,,0,V,100.63899999996647,timeout,,,1226246.7000000002,1226245.59,1226144956,1226147,1226161628,1226262267,,grey,RT21GR26,36,f,5,2,Verkaeuferin,0,0,0,0,0
Reaction,canvas.Screen,2_66_0_2,2022-07-11T15:48:45.832Z,,,0,V,139.0329999998212,response,stim_detected,mousedown,1226402.7000000002,1226401.2999999998,1226245.59,1226247,1226262267,1226412349,,grey,RT21GR26,36,f,5,2,Verkaeuferin,0,0,0,0,0
Trial,flow.Sequence,2_66_0,2022-07-11T15:48:45.832Z,,,0,V,1790.1139999998268,completion,,,1226403,1226401.2999999998,1224594509,1224609.4,1224611186,1226412349,,grey,RT21GR26,36,f,5,2,Verkaeuferin,0,0,0,0,0
Frame,canvas.Frame,2_66,2022-07-11T15:48:45.832Z,,,0,V,1792.0140000001993,,,,1226403.4,1226403.2000000002,1224594509,1224608.7000000002,1224611186,1226412349,,grey,RT21GR26,36,f,5,2,Verkaeuferin,0,0,0,0,0
Fixation,canvas.Screen,2_67_0_0,2022-07-11T15:48:48.211Z,,,0,V,2384.820000000065,timeout,,,1228781.9,1228780492,1226395672,1226404.4,1226412349,1228797169,,grey,RT21GR26,36,f,5,2,Verkaeuferin,0,0,0,0,0
Stimulus,canvas.Screen,2_67_0_1,2022-07-11T15:48:48.311Z,,,0,V,100.20600000000559,timeout,,,1228881.9,1228880697,1228780492,1228782.1,1228797169,1228897375,,grey,RT21GR26,36,f,5,2,Verkaeuferin,0,0,0,0,0
Reaction,canvas.Screen,2_67_0_2,2022-07-11T15:48:49.812Z,,,0,V,1500.9010000000708,timeout,,,1230382.9,1230381599,1228880697,1228882.1,1228897375,1230398276,,grey,RT21GR26,36,f,5,2,Verkaeuferin,0,0,0,0,0
Trial,flow.Sequence,2_67_0,2022-07-11T15:48:49.812Z,,,0,V,3969.25,completion,,,1230383.2999999998,1230381599,1226395672,1226404.2000000002,1226412349,1230398276,,grey,RT21GR26,36,f,5,2,Verkaeuferin,0,0,0,0,0
Frame,canvas.Frame,2_67,2022-07-11T15:48:49.813Z,,,0,V,3971.0509999999776,,,,1230383.6,1230383.4,1226395672,1226403.6,1226412349,1230414953,,grey,RT21GR26,36,f,5,2,Verkaeuferin,0,0,0,0,0
Fixation,canvas.Screen,2_68_0_0,2022-07-11T15:48:52.046Z,,,0,V,2217.1350000000093,timeout,,,1232617,1232615415,1230398276,1230384.5,1230414953,1232632088,,grey,RT21GR26,36,f,5,2,Verkaeuferin,0,0,0,0,0
Stimulus,canvas.Screen,2_68_0_1,2022-07-11T15:48:52.147Z,,,0,V,101.27499999990687,timeout,,,1232718.1,1232716662,1232615415,1232617.2000000002,1232632088,1232733363,,grey,RT21GR26,36,f,5,2,Verkaeuferin,0,0,0,0,0
Reaction,canvas.Screen,2_68_0_2,2022-07-11T15:48:52.294Z,,,0,V,129.73700000019744,response,stim_detected,mousedown,1232864.6,1232863.1,1232716662,1232718.5,1232733363,1232866587,,grey,RT21GR26,36,f,5,2,Verkaeuferin,0,0,0,0,0
Trial,flow.Sequence,2_68_0,2022-07-11T15:48:52.294Z,,,0,V,2448.1470000001136,completion,,,1232865,1232863.1,1230398276,1230384.5,1230414953,1232866587,,grey,RT21GR26,36,f,5,2,Verkaeuferin,0,0,0,0,0
Frame,canvas.Frame,2_68,2022-07-11T15:48:52.294Z,,,0,V,2450.2470000002068,,,,1232865.4,1232865.2000000002,1230398276,1230383.7999999998,1230414953,1232866587,,grey,RT21GR26,36,f,5,2,Verkaeuferin,0,0,0,0,0
Fixation,canvas.Screen,2_69_0_0,2022-07-11T15:48:54.182Z,,,1,A,1901.7849999999162,timeout,,,1234753.1,1234751.69,1232849.91,1232866.4,1232866587,1234768372,,black,RT21GR26,36,f,5,2,Verkaeuferin,0,0,0,0,0
Stimulus,canvas.Screen,2_69_0_1,2022-07-11T15:48:54.281Z,,,1,A,99.23300000000745,timeout,,,1234852,1234850.93,1234751.69,1234753.2999999998,1234768372,1234867605,,black,RT21GR26,36,f,5,2,Verkaeuferin,0,0,0,0,0
Reaction,canvas.Screen,2_69_0_2,2022-07-11T15:48:54.514Z,,,1,A,216.49500000011176,response,stim_detected,mousedown,1235085.5,1235084.1,1234850.93,1234852.4,1234867605,1235101411,,black,RT21GR26,36,f,5,2,Verkaeuferin,0,0,0,0,0
Trial,flow.Sequence,2_69_0,2022-07-11T15:48:54.515Z,,,1,A,2217.5130000000354,completion,,,1235086.1,1235084.1,1232849.91,1232866.4,1232866587,1235101411,,black,RT21GR26,36,f,5,2,Verkaeuferin,0,0,0,0,0
Frame,canvas.Frame,2_69,2022-07-11T15:48:54.515Z,,,1,A,2219.712999999756,,,,1235086.5,1235086.2999999998,1232849.91,1232865.6,1232866587,1235101411,,black,RT21GR26,36,f,5,2,Verkaeuferin,0,0,0,0,0
Fixation,canvas.Screen,2_70_0_0,2022-07-11T15:48:56.049Z,,,1,A,1533.527999999933,timeout,,,1236620.2000000002,1236618269,1235084734,1235087.6,1235101411,1236634939,,black,RT21GR26,36,f,5,2,Verkaeuferin,0,0,0,0,0
Stimulus,canvas.Screen,2_70_0_1,2022-07-11T15:48:56.149Z,,,1,A,100.72600000002421,timeout,,,1236720.1,1236718989,1236618269,1236620.5,1236634939,1236735665,,black,RT21GR26,36,f,5,2,Verkaeuferin,0,0,0,0,0
Reaction,canvas.Screen,2_70_0_2,2022-07-11T15:48:56.757Z,,,1,A,591.3349999999627,response,stim_detected,mousedown,1237328.4,1237327,1236718989,1236720.5,1236735665,1237336173,,black,RT21GR26,36,f,5,2,Verkaeuferin,0,0,0,0,0
Trial,flow.Sequence,2_70_0,2022-07-11T15:48:56.758Z,,,1,A,2225.58899999992,completion,,,1237328.7999999998,1237327,1235084734,1235087.5,1235101411,1237336173,,black,RT21GR26,36,f,5,2,Verkaeuferin,0,0,0,0,0
Frame,canvas.Frame,2_70,2022-07-11T15:48:56.758Z,,,1,A,2227.488999999827,,,,1237329.1,1237328.9,1235084734,1235086.7000000002,1235101411,1237336173,,black,RT21GR26,36,f,5,2,Verkaeuferin,0,0,0,0,0
Fixation,canvas.Screen,2_71_0_0,2022-07-11T15:48:58.918Z,,,0,V,2168.1780000000726,timeout,,,1239489.4,1239487673,1237319496,1237330.6,1237336173,1239504351,,grey,RT21GR26,36,f,5,2,Verkaeuferin,0,0,0,0,0
Stimulus,canvas.Screen,2_71_0_1,2022-07-11T15:48:59.018Z,,,0,V,99875,timeout,,,1239589.2999999998,1239587.55,1239487673,1239489.5,1239504351,1239604226,,grey,RT21GR26,36,f,5,2,Verkaeuferin,0,0,0,0,0
Reaction,canvas.Screen,2_71_0_2,2022-07-11T15:48:59.226Z,,,0,V,191.67399999988265,response,stim_detected,mousedown,1239797.4,1239795.9,1239587.55,1239589.5,1239604226,1239804501,,grey,RT21GR26,36,f,5,2,Verkaeuferin,0,0,0,0,0
Trial,flow.Sequence,2_71_0,2022-07-11T15:48:59.227Z,,,0,V,2459.7269999999553,completion,,,1239797.7000000002,1239795.9,1237319496,1237330.6,1237336173,1239804501,,grey,RT21GR26,36,f,5,2,Verkaeuferin,0,0,0,0,0
Frame,canvas.Frame,2_71,2022-07-11T15:48:59.227Z,,,0,V,2461.626999999862,,,,1239798,1239797.7999999998,1237319496,1237329.2999999998,1237336173,1239804501,,grey,RT21GR26,36,f,5,2,Verkaeuferin,0,0,0,0,0
Fixation,canvas.Screen,2_72_0_0,2022-07-11T15:49:01.302Z,,,1,A,2084.499000000069,timeout,,,1241873.2000000002,1241872324,1239787824,1239799.1,1239804501,1241889,,black,RT21GR26,36,f,5,2,Verkaeuferin,0,0,0,0,0
Stimulus,canvas.Screen,2_72_0_1,2022-07-11T15:49:01.403Z,,,1,A,100.3070000000298,timeout,,,1241974.2999999998,1241972629,1241872324,1241873.5,1241889,1241989307,,black,RT21GR26,36,f,5,2,Verkaeuferin,0,0,0,0,0
Reaction,canvas.Screen,2_72_0_2,2022-07-11T15:49:01.616Z,,,1,A,196.59299999987707,response,stim_detected,mousedown,1242187.2999999998,1242185.9,1241972629,1241974.5,1241989307,1242189.34,,black,RT21GR26,36,f,5,2,Verkaeuferin,0,0,0,0,0
Trial,flow.Sequence,2_72_0,2022-07-11T15:49:01.617Z,,,1,A,2381.398999999976,completion,,,1242187.7000000002,1242185.9,1239787824,1239799,1239804501,1242189.34,,black,RT21GR26,36,f,5,2,Verkaeuferin,0,0,0,0,0
Frame,canvas.Frame,2_72,2022-07-11T15:49:01.617Z,,,1,A,2383.398999999976,,,,1242188.1,1242187.9,1239787824,1239798.2000000002,1239804501,1242189.34,,black,RT21GR26,36,f,5,2,Verkaeuferin,0,0,0,0,0
Fixation,canvas.Screen,2_73_0_0,2022-07-11T15:49:03.505Z,,,1,A,1902.2700000000186,timeout,,,1244076,1244074924,1242172664,1242189,1242189.34,1244091.61,,black,RT21GR26,36,f,5,2,Verkaeuferin,0,0,0,0,0
Stimulus,canvas.Screen,2_73_0_1,2022-07-11T15:49:03.604Z,,,1,A,98.61899999994785,timeout,,,1244175.4,1244173556,1244074924,1244076.2000000002,1244091.61,1244190229,,black,RT21GR26,36,f,5,2,Verkaeuferin,0,0,0,0,0
Reaction,canvas.Screen,2_73_0_2,2022-07-11T15:49:03.791Z,,,1,A,170.57099999976344,response,stim_detected,mousedown,1244362.2000000002,1244360.7999999998,1244173556,1244175.7000000002,1244190229,1244374151,,black,RT21GR26,36,f,5,2,Verkaeuferin,0,0,0,0,0
Trial,flow.Sequence,2_73_0,2022-07-11T15:49:03.792Z,,,1,A,2171.45999999973,completion,,,1244362.6,1244360.7999999998,1242172664,1242188.9,1242189.34,1244374151,,black,RT21GR26,36,f,5,2,Verkaeuferin,0,0,0,0,0
Frame,canvas.Frame,2_73,2022-07-11T15:49:03.792Z,,,1,A,2173.45999999973,,,,1244362.9,1244362.7999999998,1242172664,1242188.2000000002,1242189.34,1244374151,,black,RT21GR26,36,f,5,2,Verkaeuferin,0,0,0,0,0
Fixation,canvas.Screen,2_74_0_0,2022-07-11T15:49:05.390Z,,,1,AV,1601.2730000000447,timeout,,,1245960.6,1245958744,1244357474,1244364.1,1244374151,1245975424,,grey,RT21GR26,36,f,5,2,Verkaeuferin,0,0,0,0,0
Stimulus,canvas.Screen,2_74_0_1,2022-07-11T15:49:05.488Z,,,1,AV,99.68599999998696,timeout,,,1246059.5,1246058434,1245958744,1245960.7999999998,1245975424,1246075.11,,grey,RT21GR26,36,f,5,2,Verkaeuferin,0,0,0,0,0
Reaction,canvas.Screen,2_74_0_2,2022-07-11T15:49:05.689Z,,,1,AV,183.6899999997113,response,stim_detected,mousedown,1246260.2000000002,1246258.7999999998,1246058434,1246059.7000000002,1246075.11,1246275413,,grey,RT21GR26,36,f,5,2,Verkaeuferin,0,0,0,0,0
Trial,flow.Sequence,2_74_0,2022-07-11T15:49:05.690Z,,,1,AV,1884.648999999743,completion,,,1246260.7000000002,1246258.7999999998,1244357474,1244364,1244374151,1246275413,,grey,RT21GR26,36,f,5,2,Verkaeuferin,0,0,0,0,0
Frame,canvas.Frame,2_74,2022-07-11T15:49:05.690Z,,,1,AV,1886.5490000001155,,,,1246261,1246260.7000000002,1244357474,1244363.1,1244374151,1246275413,,grey,RT21GR26,36,f,5,2,Verkaeuferin,0,0,0,0,0
Fixation,canvas.Screen,2_75_0_0,2022-07-11T15:49:07.391Z,,,1,AV,1701.249000000069,timeout,,,1247961.5,1247959983,1246258736,1246262,1246275413,1247976662,,grey,RT21GR26,36,f,5,2,Verkaeuferin,0,0,0,0,0
Stimulus,canvas.Screen,2_75_0_1,2022-07-11T15:49:07.491Z,,,1,AV,99.71099999989383,timeout,,,1248061.5,1248059698,1247959983,1247961.7000000002,1247976662,1248076373,,grey,RT21GR26,36,f,5,2,Verkaeuferin,0,0,0,0,0
Reaction,canvas.Screen,2_75_0_2,2022-07-11T15:49:07.656Z,,,1,AV,148.32700000028126,response,stim_detected,mousedown,1248226.2999999998,1248224.7000000002,1248059698,1248061.7000000002,1248076373,1248243361,,grey,RT21GR26,36,f,5,2,Verkaeuferin,0,0,0,0,0
Trial,flow.Sequence,2_75_0,2022-07-11T15:49:07.656Z,,,1,AV,1949.287000000244,completion,,,1248226.6,1248224.7000000002,1246258736,1246261.9,1246275413,1248243361,,grey,RT21GR26,36,f,5,2,Verkaeuferin,0,0,0,0,0
Frame,canvas.Frame,2_75,2022-07-11T15:49:07.657Z,,,1,AV,1951.4869999999646,,,,1248227.1,1248226.9,1246258736,1246261.1,1246275413,1248243361,,grey,RT21GR26,36,f,5,2,Verkaeuferin,0,0,0,0,0
Fixation,canvas.Screen,2_76_0_0,2022-07-11T15:49:09.475Z,,,1,A,1817.905999999959,timeout,,,1250045.5,1250044589,1248226684,1248228.2999999998,1248243361,1250061267,,black,RT21GR26,36,f,5,2,Verkaeuferin,0,0,0,0,0
Stimulus,canvas.Screen,2_76_0_1,2022-07-11T15:49:09.575Z,,,1,A,99.88800000003539,timeout,,,1250145.6,1250144479,1250044589,1250045.7999999998,1250061267,1250161155,,black,RT21GR26,36,f,5,2,Verkaeuferin,0,0,0,0,0
Reaction,canvas.Screen,2_76_0_2,2022-07-11T15:49:09.812Z,,,1,A,219.54500000015832,response,stim_detected,mousedown,1250382.2000000002,1250380.7000000002,1250144479,1250145.7999999998,1250161155,1250394761,,black,RT21GR26,36,f,5,2,Verkaeuferin,0,0,0,0,0
Trial,flow.Sequence,2_76_0,2022-07-11T15:49:09.812Z,,,1,A,2137.3390000001527,completion,,,1250382.7000000002,1250380.7000000002,1248226684,1248228.1,1248243361,1250394761,,black,RT21GR26,36,f,5,2,Verkaeuferin,0,0,0,0,0
Frame,canvas.Frame,2_76,2022-07-11T15:49:09.813Z,,,1,A,2139.5389999998733,,,,1250383.1,1250382.9,1248226684,1248227.2999999998,1248243361,1250394761,,black,RT21GR26,36,f,5,2,Verkaeuferin,0,0,0,0,0
Fixation,canvas.Screen,2_77_0_0,2022-07-11T15:49:11.711Z,,,1,AV,1901.785000000149,timeout,,,1252281.7000000002,1252279864,1250378084,1250384.1,1250394761,1252296546,,grey,RT21GR26,36,f,5,2,Verkaeuferin,0,0,0,0,0
Stimulus,canvas.Screen,2_77_0_1,2022-07-11T15:49:11.810Z,,,1,AV,99.23300000000745,timeout,,,1252380.7000000002,1252379104,1252279864,1252281.9,1252296546,1252395779,,grey,RT21GR26,36,f,5,2,Verkaeuferin,0,0,0,0,0
Reaction,canvas.Screen,2_77_0_2,2022-07-11T15:49:11.999Z,,,1,AV,171.9210000000894,response,stim_detected,mousedown,1252569.2000000002,1252567.7000000002,1252379104,1252380.9,1252395779,1252579523,,grey,RT21GR26,36,f,5,2,Verkaeuferin,0,0,0,0,0
Trial,flow.Sequence,2_77_0,2022-07-11T15:49:11.999Z,,,1,AV,2172.939000000246,completion,,,1252569.5,1252567.7000000002,1250378084,1250384,1250394761,1252579523,,grey,RT21GR26,36,f,5,2,Verkaeuferin,0,0,0,0,0
Frame,canvas.Frame,2_77,2022-07-11T15:49:12.000Z,,,1,AV,2175.0389999998733,,,,1252570,1252569.7999999998,1250378084,1250383.2000000002,1250394761,1252579523,,grey,RT21GR26,36,f,5,2,Verkaeuferin,0,0,0,0,0
Fixation,canvas.Screen,2_78_0_0,2022-07-11T15:49:14.364Z,,,1,A,2369.6979999998584,timeout,,,1254933.9,1254932533,1252562846,1252571.1,1252579523,1254949221,,black,RT21GR26,36,f,5,2,Verkaeuferin,0,0,0,0,0
Stimulus,canvas.Screen,2_78_0_1,2022-07-11T15:49:14.461Z,,,1,A,97.92800000007264,timeout,,,1255031.2999999998,1255030476,1254932533,1254934.1,1254949221,1255047149,,black,RT21GR26,36,f,5,2,Verkaeuferin,0,0,0,0,0
Reaction,canvas.Screen,2_78_0_2,2022-07-11T15:49:14.765Z,,,1,A,286.45100000011735,response,stim_detected,mousedown,1255335,1255333.6,1255030476,1255031.5,1255047149,1255347971,,black,RT21GR26,36,f,5,2,Verkaeuferin,0,0,0,0,0
Trial,flow.Sequence,2_78_0,2022-07-11T15:49:14.765Z,,,1,A,2754.0770000000484,completion,,,1255335.4,1255333.6,1252562846,1252571.1,1252579523,1255347971,,black,RT21GR26,36,f,5,2,Verkaeuferin,0,0,0,0,0
Frame,canvas.Frame,2_78,2022-07-11T15:49:14.765Z,,,1,A,2755.9769999999553,,,,1255335.7000000002,1255335.5,1252562846,1252570.2000000002,1252579523,1255347971,,black,RT21GR26,36,f,5,2,Verkaeuferin,0,0,0,0,0
Fixation,canvas.Screen,2_79_0_0,2022-07-11T15:49:16.965Z,,,0,V,2202.2700000000186,timeout,,,1257535,1257533558,1255331294,1255336.7999999998,1255347971,1257550241,,grey,RT21GR26,36,f,5,2,Verkaeuferin,0,0,0,0,0
Stimulus,canvas.Screen,2_79_0_1,2022-07-11T15:49:17.064Z,,,0,V,99.29399999999441,timeout,,,1257633.9,1257632858,1257533558,1257535.2000000002,1257550241,1257649535,,grey,RT21GR26,36,f,5,2,Verkaeuferin,0,0,0,0,0
Reaction,canvas.Screen,2_79_0_2,2022-07-11T15:49:17.353Z,,,0,V,271.9650000000838,response,stim_detected,mousedown,1257922.9,1257921.5,1257632858,1257634.2000000002,1257649535,1257933037,,grey,RT21GR26,36,f,5,2,Verkaeuferin,0,0,0,0,0
Trial,flow.Sequence,2_79_0,2022-07-11T15:49:17.353Z,,,0,V,2573.529000000097,completion,,,1257923.2999999998,1257921.5,1255331294,1255336.6,1255347971,1257933037,,grey,RT21GR26,36,f,5,2,Verkaeuferin,0,0,0,0,0
Frame,canvas.Frame,2_79,2022-07-11T15:49:17.353Z,,,0,V,2575.4290000000037,,,,1257923.6,1257923.4,1255331294,1255335.9,1255347971,1257933037,,grey,RT21GR26,36,f,5,2,Verkaeuferin,0,0,0,0,0
Fixation,canvas.Screen,2_80_0_0,2022-07-11T15:49:18.882Z,,,1,A,1534.7939999999944,timeout,,,1259452.9,1259451149,1257916.36,1257924.6,1257933037,1259467831,,black,RT21GR26,36,f,5,2,Verkaeuferin,0,0,0,0,0
Stimulus,canvas.Screen,2_80_0_1,2022-07-11T15:49:18.981Z,,,1,A,99.36700000008568,timeout,,,1259551.9,1259550523,1259451149,1259453.2000000002,1259467831,1259567198,,black,RT21GR26,36,f,5,2,Verkaeuferin,0,0,0,0,0
Reaction,canvas.Screen,2_80_0_2,2022-07-11T15:49:19.163Z,,,1,A,165.30199999990873,response,stim_detected,mousedown,1259733.9,1259732.5,1259550523,1259552.1,1259567198,1259750919,,black,RT21GR26,36,f,5,2,Verkaeuferin,0,0,0,0,0
Trial,flow.Sequence,2_80_0,2022-07-11T15:49:19.164Z,,,1,A,1799.4629999999888,completion,,,1259734.2999999998,1259732.5,1257916.36,1257924.5,1257933037,1259750919,,black,RT21GR26,36,f,5,2,Verkaeuferin,0,0,0,0,0
Frame,canvas.Frame,2_80,2022-07-11T15:49:19.164Z,,,1,A,1801.3629999998957,,,,1259734.6,1259734.4,1257916.36,1257923.7999999998,1257933037,1259750919,,black,RT21GR26,36,f,5,2,Verkaeuferin,0,0,0,0,0
Fixation,canvas.Screen,2_81_0_0,2022-07-11T15:49:20.700Z,,,0,V,1534.0789999999106,timeout,,,1261270.7000000002,1261268323,1259734242,1259735.7000000002,1259750919,1261284998,,grey,RT21GR26,36,f,5,2,Verkaeuferin,0,0,0,0,0
Stimulus,canvas.Screen,2_81_0_1,2022-07-11T15:49:20.800Z,,,0,V,100.29500000015832,timeout,,,1261369.9,1261368616,1261268323,1261271,1261284998,1261385293,,grey,RT21GR26,36,f,5,2,Verkaeuferin,0,0,0,0,0
Reaction,canvas.Screen,2_81_0_2,2022-07-11T15:49:20.985Z,,,0,V,168.20699999993667,response,stim_detected,mousedown,1261554.9,1261553.5,1261368616,1261370.2000000002,1261385293,1261568757,,grey,RT21GR26,36,f,5,2,Verkaeuferin,0,0,0,0,0
Trial,flow.Sequence,2_81_0,2022-07-11T15:49:20.985Z,,,0,V,1802.5810000000056,completion,,,1261555.2999999998,1261553.5,1259734242,1259735.6,1259750919,1261568757,,grey,RT21GR26,36,f,5,2,Verkaeuferin,0,0,0,0,0
Frame,canvas.Frame,2_81,2022-07-11T15:49:20.985Z,,,0,V,1804.4809999999125,,,,1261555.6,1261555.4,1259734242,1259734.7999999998,1259750919,1261568757,,grey,RT21GR26,36,f,5,2,Verkaeuferin,0,0,0,0,0
Fixation,canvas.Screen,2_82_0_0,2022-07-11T15:49:23.236Z,,,0,V,2252.2939999999944,timeout,,,1263806.1,1263804368,1261552.08,1261556.7000000002,1261568757,1263821051,,grey,RT21GR26,36,f,5,2,Verkaeuferin,0,0,0,0,0
Stimulus,canvas.Screen,2_82_0_1,2022-07-11T15:49:23.335Z,,,0,V,99.0449999999255,timeout,,,1263905,1263903.42,1263804368,1263806.2000000002,1263821051,1263920096,,grey,RT21GR26,36,f,5,2,Verkaeuferin,0,0,0,0,0
Reaction,canvas.Screen,2_82_0_2,2022-07-11T15:49:23.496Z,,,0,V,144.30400000000373,response,stim_detected,mousedown,1264066,1264064.4,1263903.42,1263905.2999999998,1263920096,1264070392,,grey,RT21GR26,36,f,5,2,Verkaeuferin,0,0,0,0,0
Trial,flow.Sequence,2_82_0,2022-07-11T15:49:23.496Z,,,0,V,2495.6429999999236,completion,,,1264066.5,1264064.4,1261552.08,1261556.5,1261568757,1264070392,,grey,RT21GR26,36,f,5,2,Verkaeuferin,0,0,0,0,0
Frame,canvas.Frame,2_82,2022-07-11T15:49:23.496Z,,,0,V,2497.84300000011,,,,1264066.7999999998,1264066.6,1261552.08,1261555.7999999998,1261568757,1264070392,,grey,RT21GR26,36,f,5,2,Verkaeuferin,0,0,0,0,0
Fixation,canvas.Screen,2_83_0_0,2022-07-11T15:49:25.036Z,,,0,V,1551.2790000000969,timeout,,,1265606,1265604991,1264053715,1264067.9,1264070392,1265621671,,grey,RT21GR26,36,f,5,2,Verkaeuferin,0,0,0,0,0
Stimulus,canvas.Screen,2_83_0_1,2022-07-11T15:49:25.136Z,,,0,V,99.90200000000186,timeout,,,1265706.1,1265704894,1265604991,1265606.2999999998,1265621671,1265721573,,grey,RT21GR26,36,f,5,2,Verkaeuferin,0,0,0,0,0
Reaction,canvas.Screen,2_83_0_2,2022-07-11T15:49:25.285Z,,,0,V,132.8269999998156,response,stim_detected,mousedown,1265855.7999999998,1265854.4,1265704894,1265706.5,1265721573,1265871587,,grey,RT21GR26,36,f,5,2,Verkaeuferin,0,0,0,0,0
Trial,flow.Sequence,2_83_0,2022-07-11T15:49:25.286Z,,,0,V,1784.0079999999143,completion,,,1265856.1,1265854.4,1264053715,1264067.7999999998,1264070392,1265871587,,grey,RT21GR26,36,f,5,2,Verkaeuferin,0,0,0,0,0
Frame,canvas.Frame,2_83,2022-07-11T15:49:25.286Z,,,0,V,1785.9079999998212,,,,1265856.5,1265856.2999999998,1264053715,1264067,1264070392,1265871587,,grey,RT21GR26,36,f,5,2,Verkaeuferin,0,0,0,0,0
Fixation,canvas.Screen,2_84_0_0,2022-07-11T15:49:27.588Z,,,1,A,2302.2900000000373,timeout,,,1268158.2000000002,1268157194,1265854.91,1265857.5,1265871587,1268173877,,black,RT21GR26,36,f,5,2,Verkaeuferin,0,0,0,0,0
Stimulus,canvas.Screen,2_84_0_1,2022-07-11T15:49:27.687Z,,,1,A,98.77999999979511,timeout,,,1268257.2999999998,1268255983,1268157194,1268158.4,1268173877,1268272657,,black,RT21GR26,36,f,5,2,Verkaeuferin,0,0,0,0,0
Reaction,canvas.Screen,2_84_0_2,2022-07-11T15:49:27.835Z,,,1,A,131.64299999992363,response,stim_detected,mousedown,1268405.7999999998,1268404.2999999998,1268255983,1268257.4,1268272657,1268423279,,black,RT21GR26,36,f,5,2,Verkaeuferin,0,0,0,0,0
Trial,flow.Sequence,2_84_0,2022-07-11T15:49:27.836Z,,,1,A,2532.712999999756,completion,,,1268406.1,1268404.2999999998,1265854.91,1265857.5,1265871587,1268423279,,black,RT21GR26,36,f,5,2,Verkaeuferin,0,0,0,0,0
Frame,canvas.Frame,2_84,2022-07-11T15:49:27.836Z,,,1,A,2534.712999999756,,,,1268406.5,1268406.2999999998,1265854.91,1265856.6,1265871587,1268423279,,black,RT21GR26,36,f,5,2,Verkaeuferin,0,0,0,0,0
Fixation,canvas.Screen,2_85_0_0,2022-07-11T15:49:29.705Z,,,1,AV,1867.2049999998417,timeout,,,1270275.2999999998,1270273812,1268406602,1268407.6,1268423279,1270290484,,grey,RT21GR26,36,f,5,2,Verkaeuferin,0,0,0,0,0
Stimulus,canvas.Screen,2_85_0_1,2022-07-11T15:49:29.805Z,,,1,AV,100.29099999996834,timeout,,,1270375.2000000002,1270374101,1270273812,1270275.5,1270290484,1270390775,,grey,RT21GR26,36,f,5,2,Verkaeuferin,0,0,0,0,0
Reaction,canvas.Screen,2_85_0_2,2022-07-11T15:49:29.935Z,,,1,AV,113.52499999990687,response,stim_detected,mousedown,1270505.7000000002,1270504.2999999998,1270374101,1270375.5,1270390775,1270507977,,grey,RT21GR26,36,f,5,2,Verkaeuferin,0,0,0,0,0
Trial,flow.Sequence,2_85_0,2022-07-11T15:49:29.936Z,,,1,AV,2081.020999999717,completion,,,1270506,1270504.2999999998,1268406602,1268407.4,1268423279,1270507977,,grey,RT21GR26,36,f,5,2,Verkaeuferin,0,0,0,0,0
Frame,canvas.Frame,2_85,2022-07-11T15:49:29.936Z,,,1,AV,2082.9210000000894,,,,1270506.4,1270506.2000000002,1268406602,1268406.6,1268423279,1270507977,,grey,RT21GR26,36,f,5,2,Verkaeuferin,0,0,0,0,0
Fixation,canvas.Screen,2_86_0_0,2022-07-11T15:49:32.373Z,,,0,V,2450.4200000001583,timeout,,,1272943.6,1272941727,1270491.3,1270507.2999999998,1270507977,1272958397,,grey,RT21GR26,36,f,5,2,Verkaeuferin,0,0,0,0,0
Stimulus,canvas.Screen,2_86_0_1,2022-07-11T15:49:32.474Z,,,0,V,100.83999999985099,timeout,,,1273044.4,1273042562,1272941727,1272943.9,1272958397,1273059237,,grey,RT21GR26,36,f,5,2,Verkaeuferin,0,0,0,0,0
Reaction,canvas.Screen,2_86_0_2,2022-07-11T15:49:32.707Z,,,0,V,215.96300000022165,response,stim_detected,mousedown,1273277.2000000002,1273275.2000000002,1273042562,1273044.6,1273059237,1273293108,,grey,RT21GR26,36,f,5,2,Verkaeuferin,0,0,0,0,0
Trial,flow.Sequence,2_86_0,2022-07-11T15:49:32.707Z,,,0,V,2767.223000000231,completion,,,1273277.7000000002,1273275.2000000002,1270491.3,1270507.2999999998,1270507977,1273293108,,grey,RT21GR26,36,f,5,2,Verkaeuferin,0,0,0,0,0
Frame,canvas.Frame,2_86,2022-07-11T15:49:32.708Z,,,0,V,2769.9229999999516,,,,1273278,1273277.9,1270491.3,1270506.5,1270507977,1273293108,,grey,RT21GR26,36,f,5,2,Verkaeuferin,0,0,0,0,0
Fixation,canvas.Screen,2_87_0_0,2022-07-11T15:49:34.276Z,,,1,A,1568.4159999999683,timeout,,,1274846.4,1274844.84,1273276431,1273279.1,1273293108,1274861524,,black,RT21GR26,36,f,5,2,Verkaeuferin,0,0,0,0,0
Stimulus,canvas.Screen,2_87_0_1,2022-07-11T15:49:34.375Z,,,1,A,99.2960000000894,timeout,,,1274945.2999999998,1274944144,1274844.84,1274846.7000000002,1274861524,1274960.82,,black,RT21GR26,36,f,5,2,Verkaeuferin,0,0,0,0,0
Reaction,canvas.Screen,2_87_0_2,2022-07-11T15:49:34.557Z,,,1,A,165.38000000012107,response,stim_detected,mousedown,1275127.6,1275126.2000000002,1274944144,1274945.4,1274960.82,1275144291,,black,RT21GR26,36,f,5,2,Verkaeuferin,0,0,0,0,0
Trial,flow.Sequence,2_87_0,2022-07-11T15:49:34.558Z,,,1,A,1833.0920000001788,completion,,,1275128.1,1275126.2000000002,1273276431,1273279,1273293108,1275144291,,black,RT21GR26,36,f,5,2,Verkaeuferin,0,0,0,0,0
Frame,canvas.Frame,2_87,2022-07-11T15:49:34.558Z,,,1,A,1835.0920000001788,,,,1275128.4,1275128.2000000002,1273276431,1273278.2000000002,1273293108,1275144291,,black,RT21GR26,36,f,5,2,Verkaeuferin,0,0,0,0,0
Fixation,canvas.Screen,2_88_0_0,2022-07-11T15:49:36.361Z,,,1,A,1802.21399999992,timeout,,,1276931.5,1276929818,1275127615,1275130.7000000002,1275144291,1276946505,,black,RT21GR26,36,f,5,2,Verkaeuferin,0,0,0,0,0
Stimulus,canvas.Screen,2_88_0_1,2022-07-11T15:49:36.459Z,,,1,A,98.5360000000801,timeout,,,1277029.5,1277028368,1276929818,1276931.7000000002,1276946505,1277045041,,black,RT21GR26,36,f,5,2,Verkaeuferin,0,0,0,0,0
Reaction,canvas.Screen,2_88_0_2,2022-07-11T15:49:36.618Z,,,1,A,142.0590000001248,response,stim_detected,mousedown,1277188.6,1277187.1,1277028368,1277029.7000000002,1277045041,1277195716,,black,RT21GR26,36,f,5,2,Verkaeuferin,0,0,0,0,0
Trial,flow.Sequence,2_88_0,2022-07-11T15:49:36.619Z,,,1,A,2042.8090000001248,completion,,,1277189,1277187.1,1275127615,1275130.6,1275144291,1277195716,,black,RT21GR26,36,f,5,2,Verkaeuferin,0,0,0,0,0
Frame,canvas.Frame,2_88,2022-07-11T15:49:36.619Z,,,1,A,2044.909000000218,,,,1277189.2999999998,1277189.2000000002,1275127615,1275128.6,1275144291,1277195716,,black,RT21GR26,36,f,5,2,Verkaeuferin,0,0,0,0,0
Fixation,canvas.Screen,2_89_0_0,2022-07-11T15:49:38.428Z,,,1,AV,1817.783000000054,timeout,,,1278998.5,1278996822,1277179038,1277190.5,1277195716,1279013499,,grey,RT21GR26,36,f,5,2,Verkaeuferin,0,0,0,0,0
Stimulus,canvas.Screen,2_89_0_1,2022-07-11T15:49:38.528Z,,,1,AV,99.99699999997392,timeout,,,1279098.6,1279096.82,1278996822,1278998.7999999998,1279013499,1279113496,,grey,RT21GR26,36,f,5,2,Verkaeuferin,0,0,0,0,0
Reaction,canvas.Screen,2_89_0_2,2022-07-11T15:49:38.673Z,,,1,AV,128.70400000014342,response,stim_detected,mousedown,1279243.5,1279242.2000000002,1279096.82,1279098.7999999998,1279113496,1279246986,,grey,RT21GR26,36,f,5,2,Verkaeuferin,0,0,0,0,0
Trial,flow.Sequence,2_89_0,2022-07-11T15:49:38.674Z,,,1,AV,2046.4840000001714,completion,,,1279244,1279242.2000000002,1277179038,1277190.4,1277195716,1279246986,,grey,RT21GR26,36,f,5,2,Verkaeuferin,0,0,0,0,0
Frame,canvas.Frame,2_89,2022-07-11T15:49:38.674Z,,,1,AV,2048.3840000000782,,,,1279244.2999999998,1279244.1,1277179038,1277189.5,1277195716,1279246986,,grey,RT21GR26,36,f,5,2,Verkaeuferin,0,0,0,0,0
Fixation,canvas.Screen,2_90_0_0,2022-07-11T15:49:41.065Z,,,1,A,2403.246000000043,timeout,,,1281634.9,1281633543,1279230.31,1279245.2999999998,1279246986,1281650232,,black,RT21GR26,36,f,5,2,Verkaeuferin,0,0,0,0,0
Stimulus,canvas.Screen,2_90_0_1,2022-07-11T15:49:41.162Z,,,1,A,97.75,timeout,,,1281732.7000000002,1281731309,1281633543,1281635.2000000002,1281650232,1281747982,,black,RT21GR26,36,f,5,2,Verkaeuferin,0,0,0,0,0
Reaction,canvas.Screen,2_90_0_2,2022-07-11T15:49:41.290Z,,,1,A,111.01799999992363,response,stim_detected,mousedown,1281860.7000000002,1281859,1281731309,1281733.1,1281747982,1281882102,,black,RT21GR26,36,f,5,2,Verkaeuferin,0,0,0,0,0
Trial,flow.Sequence,2_90_0,2022-07-11T15:49:41.291Z,,,1,A,2612.0139999999665,completion,,,1281861.2000000002,1281859,1279230.31,1279245.2999999998,1279246986,1281882102,,black,RT21GR26,36,f,5,2,Verkaeuferin,0,0,0,0,0
Frame,canvas.Frame,2_90,2022-07-11T15:49:41.291Z,,,1,A,2614.31399999978,,,,1281861.5,1281861.2999999998,1279230.31,1279244.5,1279246986,1281882102,,black,RT21GR26,36,f,5,2,Verkaeuferin,0,0,0,0,0
Loop,flow.Loop,2,2022-07-11T15:49:41.292Z,,,,,208932.41399999987,completion,,,1281861.9,1281861.2999999998,1072912204,1072913.7999999998,1072928886,1281882102,,,RT21GR26,36,f,5,2,Verkaeuferin,0,0,0,0,0
end,html.Page,3,2022-07-11T15:49:45.987Z,,,,,4674.297999999952,form submission,,,1286557,1286556.4,1281865425,1281862.1,1281882102,1286551499,,,RT21GR26,36,f,5,2,Verkaeuferin,0,0,0,0,0
root,flow.Sequence,,2022-07-11T15:49:45.988Z,,,,,1284931027,completion,,,1286558.2000000002,1286556.4,1608698,1613.8999999999069,1625373,1286551499,,,RT21GR26,36,f,5,2,Verkaeuferin,0,0,0,0,0
