sender,sender_type,sender_id,timestamp,meta,,aud,condition,duration,ended_on,response,response_action,time_commit,time_end,time_render,time_run,time_show,time_switch,url,vis,id,age,sex,edu,occ,ela,pat,ill,prt,pcr,pab
Instructions,html.Page,0,2022-06-03T12:49:51.515Z,"{""labjs_version"":""20.2.4"",""labjs_build"":{""flavor"":""production"",""commit"":""f5b4a49f956347addd546a832a3327688c2c0fef""},""location"":""file:///C:/Users/Proband%207/Desktop/RTE/index.html"",""userAgent"":""Mozilla/5.0 (Windows NT 6.1; Win64; x64) AppleWebKit/537.36 (KHTML, like Gecko) Chrome/102.0.5005.63 Safari/537.36"",""platform"":""Win32"",""language"":""de-DE"",""locale"":""de"",""timeZone"":""Europe/Berlin"",""timezoneOffset"":-120,""screen_width"":1366,""screen_height"":768,""scroll_width"":1366,""scroll_height"":609,""window_innerWidth"":1366,""window_innerHeight"":657,""devicePixelRatio"":1}",,,,46446.00300000298,form submission,,,48045.5,48044.20000000298,1581521,1589.800000000745,1598197,48062.2,{},,UT01KI10,26,m,5,2,freier Autor,0,0,0,0,0
Change Background,canvas.Screen,1,2022-06-03T12:49:54.519Z,,,,,3002.5120000000024,timeout,,,51050.10000000149,51048029,48028842,48046.20000000298,48062.2,51064712,,,UT01KI10,26,m,5,2,freier Autor,0,0,0,0,0
Fixation,canvas.Screen,2_0_0_0,2022-06-03T12:49:56.735Z,,,1,AV,2215.868999999999,timeout,,,53265.900000002235,53263.91,51048029,51051.5,51064712,53280581,,grey,UT01KI10,26,m,5,2,freier Autor,0,0,0,0,0
Stimulus,canvas.Screen,2_0_0_1,2022-06-03T12:49:56.835Z,,,1,AV,101.4780000000028,timeout,,,53366,53365383,53263.91,53266.300000000745,53280581,53382059,,grey,UT01KI10,26,m,5,2,freier Autor,0,0,0,0,0
Reaction,canvas.Screen,2_0_0_2,2022-06-03T12:49:56.998Z,,,1,AV,144.24100000074395,response,stim_detected,mousedown,53528.5,53526.300000000745,53365383,53366.10000000149,53382059,53532286,,grey,UT01KI10,26,m,5,2,freier Autor,0,0,0,0,0
Trial,flow.Sequence,2_0_0,2022-06-03T12:49:56.999Z,,,1,AV,2461.5880000007455,completion,,,53529.300000000745,53526.300000000745,51048029,51051.400000002235,51064712,53532286,,grey,UT01KI10,26,m,5,2,freier Autor,0,0,0,0,0
Frame,canvas.Frame,2_0,2022-06-03T12:49:56.999Z,,,1,AV,2464.8880000014906,,,,53530,53529.60000000149,51048029,51050.400000002235,51064712,53532286,,grey,UT01KI10,26,m,5,2,freier Autor,0,0,0,0,0
Fixation,canvas.Screen,2_1_0_0,2022-06-03T12:49:58.737Z,,,1,A,1751.201000000001,timeout,,,55267.800000000745,55266.22,53515609,53531.300000000745,53532286,55283487,,black,UT01KI10,26,m,5,2,freier Autor,0,0,0,0,0
Stimulus,canvas.Screen,2_1_0_1,2022-06-03T12:49:58.838Z,,,1,A,100.08599999999569,timeout,,,55368.800000000745,55366892,55266.22,55268.20000000298,55283487,55383573,,black,UT01KI10,26,m,5,2,freier Autor,0,0,0,0,0
Reaction,canvas.Screen,2_1_0_2,2022-06-03T12:49:59.023Z,,,1,A,168.02700000149343,response,stim_detected,mousedown,55553.400000002235,55551.60000000149,55366892,55369.300000000745,55383573,55566996,,black,UT01KI10,26,m,5,2,freier Autor,0,0,0,0,0
Trial,flow.Sequence,2_1_0,2022-06-03T12:49:59.024Z,,,1,A,2019.31400000149,completion,,,55554.400000002235,55551.60000000149,53515609,53531.300000000745,53532286,55566996,,black,UT01KI10,26,m,5,2,freier Autor,0,0,0,0,0
Frame,canvas.Frame,2_1,2022-06-03T12:49:59.024Z,,,1,A,2022.31400000149,,,,55555,55554.60000000149,53515609,53530.300000000745,53532286,55566996,,black,UT01KI10,26,m,5,2,freier Autor,0,0,0,0,0
Fixation,canvas.Screen,2_2_0_0,2022-06-03T12:50:00.839Z,,,1,AV,1817.5509999999995,timeout,,,57370,57367872,55550319,55557.10000000149,55566996,57384547,,grey,UT01KI10,26,m,5,2,freier Autor,0,0,0,0,0
Stimulus,canvas.Screen,2_2_0_1,2022-06-03T12:50:00.939Z,,,1,AV,100.45900000000256,timeout,,,57469.900000002235,57468328,57367872,57370.300000000745,57384547,57485006,,grey,UT01KI10,26,m,5,2,freier Autor,0,0,0,0,0
Reaction,canvas.Screen,2_2_0_2,2022-06-03T12:50:01.075Z,,,1,AV,119.29400000074384,response,stim_detected,mousedown,57606,57604.300000000745,57468328,57470.300000000745,57485006,57618331,,grey,UT01KI10,26,m,5,2,freier Autor,0,0,0,0,0
Trial,flow.Sequence,2_2_0,2022-06-03T12:50:01.076Z,,,1,AV,2037.3040000007459,completion,,,57606.70000000298,57604.300000000745,55550319,55556.900000002235,55566996,57618331,,grey,UT01KI10,26,m,5,2,freier Autor,0,0,0,0,0
Frame,canvas.Frame,2_2,2022-06-03T12:50:01.076Z,,,1,AV,2039.904000002236,,,,57607.20000000298,57606.900000002235,55550319,55555.400000002235,55566996,57618331,,grey,UT01KI10,26,m,5,2,freier Autor,0,0,0,0,0
Fixation,canvas.Screen,2_3_0_0,2022-06-03T12:50:03.572Z,,,1,AV,2500.096000000005,timeout,,,60103.10000000149,60101759,57601654,57609.20000000298,57618331,60118427,,grey,UT01KI10,26,m,5,2,freier Autor,0,0,0,0,0
Stimulus,canvas.Screen,2_3_0_1,2022-06-03T12:50:03.674Z,,,1,AV,101.69399999999587,timeout,,,60204.60000000149,60203437,60101759,60103.400000002235,60118427,60220121,,grey,UT01KI10,26,m,5,2,freier Autor,0,0,0,0,0
Reaction,canvas.Screen,2_3_0_2,2022-06-03T12:50:03.786Z,,,1,AV,95.07900000298105,response,stim_detected,mousedown,60317,60315.20000000298,60203437,60204.800000000745,60220121,60320052,,grey,UT01KI10,26,m,5,2,freier Autor,0,0,0,0,0
Trial,flow.Sequence,2_3_0,2022-06-03T12:50:03.787Z,,,1,AV,2696.869000002982,completion,,,60317.5,60315.20000000298,57601654,57609,57618331,60320052,,grey,UT01KI10,26,m,5,2,freier Autor,0,0,0,0,0
Frame,canvas.Frame,2_3,2022-06-03T12:50:03.787Z,,,1,AV,2699.269000001492,,,,60317.900000002235,60317.60000000149,57601654,57607.5,57618331,60320052,,grey,UT01KI10,26,m,5,2,freier Autor,0,0,0,0,0
Fixation,canvas.Screen,2_4_0_0,2022-06-03T12:50:05.510Z,,,1,AV,1735.225999999995,timeout,,,62040,62038594,60303376,60319.10000000149,60320052,62055278,,grey,UT01KI10,26,m,5,2,freier Autor,0,0,0,0,0
Stimulus,canvas.Screen,2_4_0_1,2022-06-03T12:50:05.610Z,,,1,AV,99.46100000000297,timeout,,,62139.900000002235,62138.06,62038594,62040.400000002235,62055278,62154739,,grey,UT01KI10,26,m,5,2,freier Autor,0,0,0,0,0
Reaction,canvas.Screen,2_4_0_2,2022-06-03T12:50:05.718Z,,,1,AV,90.36100000148872,response,stim_detected,mousedown,62247.5,62245.10000000149,62138.06,62140.20000000298,62154739,62254717,,grey,UT01KI10,26,m,5,2,freier Autor,0,0,0,0,0
Trial,flow.Sequence,2_4_0,2022-06-03T12:50:05.718Z,,,1,AV,1925.0480000014868,completion,,,62248,62245.10000000149,60303376,60319.10000000149,60320052,62254717,,grey,UT01KI10,26,m,5,2,freier Autor,0,0,0,0,0
Frame,canvas.Frame,2_4,2022-06-03T12:50:05.719Z,,,1,AV,1928.0480000014868,,,,62248.400000002235,62248.10000000149,60303376,60318.10000000149,60320052,62254717,,grey,UT01KI10,26,m,5,2,freier Autor,0,0,0,0,0
Fixation,canvas.Screen,2_5_0_0,2022-06-03T12:50:07.661Z,,,0,V,1951.1910000000062,timeout,,,64190.900000002235,64189126,62238.04,62249.70000000298,62254717,64205908,,grey,UT01KI10,26,m,5,2,freier Autor,0,0,0,0,0
Stimulus,canvas.Screen,2_5_0_1,2022-06-03T12:50:07.761Z,,,0,V,100.05599999999686,timeout,,,64291,64289288,64189126,64191.300000000745,64205908,64305964,,grey,UT01KI10,26,m,5,2,freier Autor,0,0,0,0,0
Reaction,canvas.Screen,2_5_0_2,2022-06-03T12:50:07.902Z,,,0,V,124.13600000149017,response,stim_detected,mousedown,64431.900000002235,64430.10000000149,64289288,64291.300000000745,64305964,64439465,,grey,UT01KI10,26,m,5,2,freier Autor,0,0,0,0,0
Trial,flow.Sequence,2_5_0,2022-06-03T12:50:07.903Z,,,0,V,2175.383000001493,completion,,,64432.5,64430.10000000149,62238.04,62249.60000000149,62254717,64439465,,grey,UT01KI10,26,m,5,2,freier Autor,0,0,0,0,0
Frame,canvas.Frame,2_5,2022-06-03T12:50:07.903Z,,,0,V,2177.9830000029833,,,,64432.900000002235,64432.70000000298,62238.04,62248.60000000149,62254717,64439465,,grey,UT01KI10,26,m,5,2,freier Autor,0,0,0,0,0
Fixation,canvas.Screen,2_6_0_0,2022-06-03T12:50:10.113Z,,,0,V,2218.346000000005,timeout,,,66643.10000000149,66641132,64422788,64434.300000000745,64439465,66657811,,grey,UT01KI10,26,m,5,2,freier Autor,0,0,0,0,0
Stimulus,canvas.Screen,2_6_0_1,2022-06-03T12:50:10.213Z,,,0,V,99.8689999999915,timeout,,,66742.20000000298,66741003,66641132,66643.60000000149,66657811,66757.68,,grey,UT01KI10,26,m,5,2,freier Autor,0,0,0,0,0
Reaction,canvas.Screen,2_6_0_2,2022-06-03T12:50:10.445Z,,,0,V,215.4200000014971,response,stim_detected,mousedown,66974.60000000149,66973.10000000149,66741003,66742.60000000149,66757.68,66991.14,,grey,UT01KI10,26,m,5,2,freier Autor,0,0,0,0,0
Trial,flow.Sequence,2_6_0,2022-06-03T12:50:10.446Z,,,0,V,2533.6350000014936,completion,,,66975.20000000298,66973.10000000149,64422788,64434.20000000298,64439465,66991.14,,grey,UT01KI10,26,m,5,2,freier Autor,0,0,0,0,0
Frame,canvas.Frame,2_6,2022-06-03T12:50:10.446Z,,,0,V,2535.8350000007486,,,,66975.60000000149,66975.30000000075,64422788,64433.10000000149,64439465,66991.14,,grey,UT01KI10,26,m,5,2,freier Autor,0,0,0,0,0
Fixation,canvas.Screen,2_7_0_0,2022-06-03T12:50:12.197Z,,,1,AV,1751.2189999999973,timeout,,,68727.20000000298,68725681,66974463,66976.80000000075,66991.14,68742359,,grey,UT01KI10,26,m,5,2,freier Autor,0,0,0,0,0
Stimulus,canvas.Screen,2_7_0_1,2022-06-03T12:50:12.297Z,,,1,AV,100.0280000000057,timeout,,,68827.10000000149,68825.71,68725681,68727.40000000224,68742359,68842387,,grey,UT01KI10,26,m,5,2,freier Autor,0,0,0,0,0
Reaction,canvas.Screen,2_7_0_2,2022-06-03T12:50:12.430Z,,,1,AV,115.61299999999756,response,stim_detected,mousedown,68959.70000000298,68958,68825.71,68827.40000000224,68842387,68992415,,grey,UT01KI10,26,m,5,2,freier Autor,0,0,0,0,0
Trial,flow.Sequence,2_7_0,2022-06-03T12:50:12.430Z,,,1,AV,1966.8600000000006,completion,,,68960.10000000149,68958,66974463,66976.70000000298,66991.14,68992415,,grey,UT01KI10,26,m,5,2,freier Autor,0,0,0,0,0
Frame,canvas.Frame,2_7,2022-06-03T12:50:12.431Z,,,1,AV,1969.0600000029808,,,,68960.5,68960.20000000298,66974463,66975.80000000075,66991.14,68992415,,grey,UT01KI10,26,m,5,2,freier Autor,0,0,0,0,0
Fixation,canvas.Screen,2_8_0_0,2022-06-03T12:50:14.834Z,,,1,A,2386.126000000004,timeout,,,71363.40000000224,71361855,68959063,68961.80000000075,68992415,71378541,,black,UT01KI10,26,m,5,2,freier Autor,0,0,0,0,0
Stimulus,canvas.Screen,2_8_0_1,2022-06-03T12:50:14.932Z,,,1,A,97.7780000000057,timeout,,,71461.40000000224,71459649,71361855,71363.70000000298,71378541,71476319,,black,UT01KI10,26,m,5,2,freier Autor,0,0,0,0,0
Reaction,canvas.Screen,2_8_0_2,2022-06-03T12:50:15.270Z,,,1,A,321.58100000223203,response,stim_detected,mousedown,71799.5,71797.90000000224,71459649,71461.80000000075,71476319,71810935,,black,UT01KI10,26,m,5,2,freier Autor,0,0,0,0,0
Trial,flow.Sequence,2_8_0,2022-06-03T12:50:15.270Z,,,1,A,2805.4850000022416,completion,,,71800,71797.90000000224,68959063,68961.60000000149,68992415,71810935,,black,UT01KI10,26,m,5,2,freier Autor,0,0,0,0,0
Frame,canvas.Frame,2_8,2022-06-03T12:50:15.271Z,,,1,A,2807.6850000014965,,,,71800.30000000075,71800.10000000149,68959063,68960.80000000075,68992415,71810935,,black,UT01KI10,26,m,5,2,freier Autor,0,0,0,0,0
Fixation,canvas.Screen,2_9_0_0,2022-06-03T12:50:17.418Z,,,0,V,2151.648000000001,timeout,,,73947.5,73945904,71794258,71801.40000000224,71810935,73962583,,grey,UT01KI10,26,m,5,2,freier Autor,0,0,0,0,0
Stimulus,canvas.Screen,2_9_0_1,2022-06-03T12:50:17.518Z,,,0,V,99.86999999999534,timeout,,,74047.30000000075,74045775,73945904,73947.70000000298,73962583,74062453,,grey,UT01KI10,26,m,5,2,freier Autor,0,0,0,0,0
Reaction,canvas.Screen,2_9_0_2,2022-06-03T12:50:17.672Z,,,0,V,137.4470000022411,response,stim_detected,mousedown,74201.40000000224,74199.90000000224,74045775,74047.60000000149,74062453,74212541,,grey,UT01KI10,26,m,5,2,freier Autor,0,0,0,0,0
Trial,flow.Sequence,2_9_0,2022-06-03T12:50:17.672Z,,,0,V,2388.9650000022375,completion,,,74202,74199.90000000224,71794258,71801.30000000075,71810935,74212541,,grey,UT01KI10,26,m,5,2,freier Autor,0,0,0,0,0
Frame,canvas.Frame,2_9,2022-06-03T12:50:17.673Z,,,0,V,2391.2650000029826,,,,74202.40000000224,74202.20000000298,71794258,71800.5,71810935,74212541,,grey,UT01KI10,26,m,5,2,freier Autor,0,0,0,0,0
Fixation,canvas.Screen,2_10_0_0,2022-06-03T12:50:19.536Z,,,0,V,1868.320000000007,timeout,,,76065.30000000075,76064.18,74195864,74203.70000000298,74212541,76080861,,grey,UT01KI10,26,m,5,2,freier Autor,0,0,0,0,0
Stimulus,canvas.Screen,2_10_0_1,2022-06-03T12:50:19.636Z,,,0,V,99.56699999999546,timeout,,,76165.40000000224,76163752,76064.18,76065.60000000149,76080861,76180428,,grey,UT01KI10,26,m,5,2,freier Autor,0,0,0,0,0
Reaction,canvas.Screen,2_10_0_2,2022-06-03T12:50:19.768Z,,,0,V,115.37200000074517,response,stim_detected,mousedown,76297.80000000075,76295.80000000075,76163752,76165.60000000149,76180428,76313911,,grey,UT01KI10,26,m,5,2,freier Autor,0,0,0,0,0
Trial,flow.Sequence,2_10_0,2022-06-03T12:50:19.769Z,,,0,V,2083.2590000007476,completion,,,76298.20000000298,76295.80000000075,74195864,74203.70000000298,74212541,76313911,,grey,UT01KI10,26,m,5,2,freier Autor,0,0,0,0,0
Frame,canvas.Frame,2_10,2022-06-03T12:50:19.769Z,,,0,V,2085.8590000022377,,,,76298.60000000149,76298.40000000224,74195864,74202.70000000298,74212541,76313911,,grey,UT01KI10,26,m,5,2,freier Autor,0,0,0,0,0
Fixation,canvas.Screen,2_11_0_0,2022-06-03T12:50:21.888Z,,,1,AV,2118.6840000000084,timeout,,,78417.5,78415913,76297234,76299.70000000298,76313911,78432595,,grey,UT01KI10,26,m,5,2,freier Autor,0,0,0,0,0
Stimulus,canvas.Screen,2_11_0_1,2022-06-03T12:50:21.987Z,,,1,AV,99.52599999999802,timeout,,,78516.40000000224,78515442,78415913,78417.70000000298,78432595,78532121,,grey,UT01KI10,26,m,5,2,freier Autor,0,0,0,0,0
Reaction,canvas.Screen,2_11_0_2,2022-06-03T12:50:22.121Z,,,1,AV,116.77900000223599,response,stim_detected,mousedown,78650.20000000298,78648.90000000224,78515442,78516.60000000149,78532121,78665468,,grey,UT01KI10,26,m,5,2,freier Autor,0,0,0,0,0
Trial,flow.Sequence,2_11_0,2022-06-03T12:50:22.121Z,,,1,AV,2334.9890000022424,completion,,,78650.70000000298,78648.90000000224,76297234,76299.60000000149,76313911,78665468,,grey,UT01KI10,26,m,5,2,freier Autor,0,0,0,0,0
Frame,canvas.Frame,2_11,2022-06-03T12:50:22.121Z,,,1,AV,2336.8890000007523,,,,78651,78650.80000000075,76297234,76298.80000000075,76313911,78665468,,grey,UT01KI10,26,m,5,2,freier Autor,0,0,0,0,0
Fixation,canvas.Screen,2_12_0_0,2022-06-03T12:50:24.106Z,,,1,A,1984.8240000000078,timeout,,,80636,80633613,78648791,78652.30000000075,78665468,80650292,,black,UT01KI10,26,m,5,2,freier Autor,0,0,0,0,0
Stimulus,canvas.Screen,2_12_0_1,2022-06-03T12:50:24.205Z,,,1,A,99.85000000000582,timeout,,,80734.5,80733465,80633613,80636.30000000075,80650292,80750142,,black,UT01KI10,26,m,5,2,freier Autor,0,0,0,0,0
Reaction,canvas.Screen,2_12_0_2,2022-06-03T12:50:24.487Z,,,1,A,264.65800000073796,response,stim_detected,mousedown,81016.40000000224,81014.80000000075,80733465,80734.70000000298,80750142,81033685,,black,UT01KI10,26,m,5,2,freier Autor,0,0,0,0,0
Trial,flow.Sequence,2_12_0,2022-06-03T12:50:24.487Z,,,1,A,2349.3320000007516,completion,,,81016.70000000298,81014.80000000075,78648791,78652.10000000149,78665468,81033685,,black,UT01KI10,26,m,5,2,freier Autor,0,0,0,0,0
Frame,canvas.Frame,2_12,2022-06-03T12:50:24.487Z,,,1,A,2351.4320000022417,,,,81017,81016.90000000224,78648791,78651.20000000298,78665468,81033685,,black,UT01KI10,26,m,5,2,freier Autor,0,0,0,0,0
Fixation,canvas.Screen,2_13_0_0,2022-06-03T12:50:26.056Z,,,1,A,1567.3099999999977,timeout,,,82585.80000000075,82584321,81017008,81018.20000000298,81033685,82600995,,black,UT01KI10,26,m,5,2,freier Autor,0,0,0,0,0
Stimulus,canvas.Screen,2_13_0_1,2022-06-03T12:50:26.157Z,,,1,A,100.46600000000035,timeout,,,82686.70000000298,82684784,82584321,82586.10000000149,82600995,82701461,,black,UT01KI10,26,m,5,2,freier Autor,0,0,0,0,0
Reaction,canvas.Screen,2_13_0_2,2022-06-03T12:50:26.425Z,,,1,A,251.33900000074937,response,stim_detected,mousedown,82954.20000000298,82952.80000000075,82684784,82686.90000000224,82701461,82968263,,black,UT01KI10,26,m,5,2,freier Autor,0,0,0,0,0
Trial,flow.Sequence,2_13_0,2022-06-03T12:50:26.425Z,,,1,A,1919.1150000007474,completion,,,82954.60000000149,82952.80000000075,81017008,81018,81033685,82968263,,black,UT01KI10,26,m,5,2,freier Autor,0,0,0,0,0
Frame,canvas.Frame,2_13,2022-06-03T12:50:26.425Z,,,1,A,1921.1150000007474,,,,82954.90000000224,82954.80000000075,81017008,81017.20000000298,81033685,82968263,,black,UT01KI10,26,m,5,2,freier Autor,0,0,0,0,0
Fixation,canvas.Screen,2_14_0_0,2022-06-03T12:50:28.109Z,,,1,A,1685.478999999992,timeout,,,84638.70000000298,84637055,82951586,82956.10000000149,82968263,84653742,,black,UT01KI10,26,m,5,2,freier Autor,0,0,0,0,0
Stimulus,canvas.Screen,2_14_0_1,2022-06-03T12:50:28.208Z,,,1,A,98.94400000000314,timeout,,,84737.60000000149,84736.01,84637055,84639,84653742,84752686,,black,UT01KI10,26,m,5,2,freier Autor,0,0,0,0,0
Reaction,canvas.Screen,2_14_0_2,2022-06-03T12:50:28.350Z,,,1,A,125.11400000074354,response,stim_detected,mousedown,84879.40000000224,84877.80000000075,84736.01,84737.90000000224,84752686,84886.23,,black,UT01KI10,26,m,5,2,freier Autor,0,0,0,0,0
Trial,flow.Sequence,2_14_0,2022-06-03T12:50:28.350Z,,,1,A,1909.5370000007388,completion,,,84879.90000000224,84877.80000000075,82951586,82955.90000000224,82968263,84886.23,,black,UT01KI10,26,m,5,2,freier Autor,0,0,0,0,0
Frame,canvas.Frame,2_14,2022-06-03T12:50:28.351Z,,,1,A,1911.8370000014838,,,,84880.30000000075,84880.10000000149,82951586,82955.10000000149,82968263,84886.23,,black,UT01KI10,26,m,5,2,freier Autor,0,0,0,0,0
Fixation,canvas.Screen,2_15_0_0,2022-06-03T12:50:30.359Z,,,1,AV,2017.9270000000106,timeout,,,86888.70000000298,86887.48,84869553,84881.5,84886.23,86904157,,grey,UT01KI10,26,m,5,2,freier Autor,0,0,0,0,0
Stimulus,canvas.Screen,2_15_0_1,2022-06-03T12:50:30.459Z,,,1,AV,100.14999999999418,timeout,,,86988.70000000298,86987.63,86887.48,86889,86904157,87004307,,grey,UT01KI10,26,m,5,2,freier Autor,0,0,0,0,0
Reaction,canvas.Screen,2_15_0_2,2022-06-03T12:50:30.585Z,,,1,AV,108.39300000297953,response,stim_detected,mousedown,87114.70000000298,87112.70000000298,86987.63,86988.90000000224,87004307,87121035,,grey,UT01KI10,26,m,5,2,freier Autor,0,0,0,0,0
Trial,flow.Sequence,2_15_0,2022-06-03T12:50:30.586Z,,,1,AV,2226.4700000029843,completion,,,87115.30000000075,87112.70000000298,84869553,84881.30000000075,84886.23,87121035,,grey,UT01KI10,26,m,5,2,freier Autor,0,0,0,0,0
Frame,canvas.Frame,2_15,2022-06-03T12:50:30.586Z,,,1,AV,2229.370000001494,,,,87115.80000000075,87115.60000000149,84869553,84880.60000000149,84886.23,87121035,,grey,UT01KI10,26,m,5,2,freier Autor,0,0,0,0,0
Fixation,canvas.Screen,2_16_0_0,2022-06-03T12:50:32.243Z,,,1,A,1667.3709999999992,timeout,,,88772.80000000075,88771732,87104358,87117,87121035,88788406,,black,UT01KI10,26,m,5,2,freier Autor,0,0,0,0,0
Stimulus,canvas.Screen,2_16_0_1,2022-06-03T12:50:32.344Z,,,1,A,100.36000000000058,timeout,,,88873.80000000075,88872.09,88771732,88773,88788406,88888766,,black,UT01KI10,26,m,5,2,freier Autor,0,0,0,0,0
Reaction,canvas.Screen,2_16_0_2,2022-06-03T12:50:32.477Z,,,1,A,116.73399999999674,response,stim_detected,mousedown,89007,89005.5,88872.09,88874.10000000149,88888766,89022221,,black,UT01KI10,26,m,5,2,freier Autor,0,0,0,0,0
Trial,flow.Sequence,2_16_0,2022-06-03T12:50:32.478Z,,,1,A,1884.4649999999965,completion,,,89007.40000000224,89005.5,87104358,87116.90000000224,87121035,89022221,,black,UT01KI10,26,m,5,2,freier Autor,0,0,0,0,0
Frame,canvas.Frame,2_16,2022-06-03T12:50:32.478Z,,,1,A,1886.4649999999965,,,,89007.70000000298,89007.5,87104358,87116,87121035,89022221,,black,UT01KI10,26,m,5,2,freier Autor,0,0,0,0,0
Fixation,canvas.Screen,2_17_0_0,2022-06-03T12:50:34.630Z,,,0,V,2152.561999999991,timeout,,,91159.90000000224,91158097,89005545,89008.90000000224,89022221,91174783,,grey,UT01KI10,26,m,5,2,freier Autor,0,0,0,0,0
Stimulus,canvas.Screen,2_17_0_1,2022-06-03T12:50:34.728Z,,,0,V,98.86800000000221,timeout,,,91258.10000000149,91256975,91158097,91160.30000000075,91174783,91273651,,grey,UT01KI10,26,m,5,2,freier Autor,0,0,0,0,0
Reaction,canvas.Screen,2_17_0_2,2022-06-03T12:50:34.882Z,,,0,V,136.84900000000198,response,stim_detected,mousedown,91411.90000000224,91410.5,91256975,91258.40000000224,91273651,91423823,,grey,UT01KI10,26,m,5,2,freier Autor,0,0,0,0,0
Trial,flow.Sequence,2_17_0,2022-06-03T12:50:34.883Z,,,0,V,2388.278999999995,completion,,,91412.40000000224,91410.5,89005545,89008.80000000075,89022221,91423823,,grey,UT01KI10,26,m,5,2,freier Autor,0,0,0,0,0
Frame,canvas.Frame,2_17,2022-06-03T12:50:34.883Z,,,0,V,2390.479000002975,,,,91412.90000000224,91412.70000000298,89005545,89008,89022221,91423823,,grey,UT01KI10,26,m,5,2,freier Autor,0,0,0,0,0
Fixation,canvas.Screen,2_18_0_0,2022-06-03T12:50:36.614Z,,,1,A,1734.9939999999915,timeout,,,93144,93142135,91407146,91413.90000000224,91423823,93158817,,black,UT01KI10,26,m,5,2,freier Autor,0,0,0,0,0
Stimulus,canvas.Screen,2_18_0_1,2022-06-03T12:50:36.713Z,,,1,A,99.57700000000477,timeout,,,93243,93241716,93142135,93144.30000000075,93158817,93258394,,black,UT01KI10,26,m,5,2,freier Autor,0,0,0,0,0
Reaction,canvas.Screen,2_18_0_2,2022-06-03T12:50:36.916Z,,,1,A,186.10599999999977,response,stim_detected,mousedown,93446,93444.5,93241716,93243.30000000075,93258394,93458511,,black,UT01KI10,26,m,5,2,freier Autor,0,0,0,0,0
Trial,flow.Sequence,2_18_0,2022-06-03T12:50:36.917Z,,,1,A,2020.676999999996,completion,,,93446.40000000224,93444.5,91407146,91413.90000000224,91423823,93458511,,black,UT01KI10,26,m,5,2,freier Autor,0,0,0,0,0
Frame,canvas.Frame,2_18,2022-06-03T12:50:36.917Z,,,1,A,2022.676999999996,,,,93446.70000000298,93446.5,91407146,91413.10000000149,91423823,93458511,,black,UT01KI10,26,m,5,2,freier Autor,0,0,0,0,0
Fixation,canvas.Screen,2_19_0_0,2022-06-03T12:50:38.797Z,,,1,AV,1883.8659999999945,timeout,,,95327,95325705,93441834,93447.80000000075,93458511,95342377,,grey,UT01KI10,26,m,5,2,freier Autor,0,0,0,0,0
Stimulus,canvas.Screen,2_19_0_1,2022-06-03T12:50:38.898Z,,,1,AV,100.82000000000698,timeout,,,95428,95426518,95325705,95327.20000000298,95342377,95443197,,grey,UT01KI10,26,m,5,2,freier Autor,0,0,0,0,0
Reaction,canvas.Screen,2_19_0_2,2022-06-03T12:50:39.054Z,,,1,AV,139.30299999999988,response,stim_detected,mousedown,95583.90000000224,95582.5,95426518,95428.30000000075,95443197,95609878,,grey,UT01KI10,26,m,5,2,freier Autor,0,0,0,0,0
Trial,flow.Sequence,2_19_0,2022-06-03T12:50:39.055Z,,,1,AV,2123.9890000000014,completion,,,95584.40000000224,95582.5,93441834,93447.70000000298,93458511,95609878,,grey,UT01KI10,26,m,5,2,freier Autor,0,0,0,0,0
Frame,canvas.Frame,2_19,2022-06-03T12:50:39.055Z,,,1,AV,2125.9890000000014,,,,95584.80000000075,95584.5,93441834,93447,93458511,95609878,,grey,UT01KI10,26,m,5,2,freier Autor,0,0,0,0,0
Fixation,canvas.Screen,2_20_0_0,2022-06-03T12:50:41.268Z,,,1,AV,2202.699000000008,timeout,,,97797.20000000298,97795891,95576526,95585.90000000224,95609878,97812577,,grey,UT01KI10,26,m,5,2,freier Autor,0,0,0,0,0
Stimulus,canvas.Screen,2_20_0_1,2022-06-03T12:50:41.367Z,,,1,AV,98.57799999999406,timeout,,,97896.40000000224,97894.48,97795891,97797.5,97812577,97911155,,grey,UT01KI10,26,m,5,2,freier Autor,0,0,0,0,0
Reaction,canvas.Screen,2_20_0_2,2022-06-03T12:50:41.524Z,,,1,AV,141.34500000000116,response,stim_detected,mousedown,98053.90000000224,98052.5,97894.48,97896.60000000149,97911155,98061518,,grey,UT01KI10,26,m,5,2,freier Autor,0,0,0,0,0
Trial,flow.Sequence,2_20_0,2022-06-03T12:50:41.525Z,,,1,AV,2442.622000000003,completion,,,98054.30000000075,98052.5,95576526,95585.80000000075,95609878,98061518,,grey,UT01KI10,26,m,5,2,freier Autor,0,0,0,0,0
Frame,canvas.Frame,2_20,2022-06-03T12:50:41.525Z,,,1,AV,2444.522000002238,,,,98054.70000000298,98054.40000000224,95576526,95584.90000000224,95609878,98061518,,grey,UT01KI10,26,m,5,2,freier Autor,0,0,0,0,0
Fixation,canvas.Screen,2_21_0_0,2022-06-03T12:50:43.503Z,,,0,V,1985.4800000000105,timeout,,,100032.20000000298,100030314,98044841,98056,98061518,100046998,,grey,UT01KI10,26,m,5,2,freier Autor,0,0,0,0,0
Stimulus,canvas.Screen,2_21_0_1,2022-06-03T12:50:43.601Z,,,0,V,98.93899999999849,timeout,,,100130.20000000298,100129262,100030314,100032.40000000224,100046998,100145937,,grey,UT01KI10,26,m,5,2,freier Autor,0,0,0,0,0
Reaction,canvas.Screen,2_21_0_2,2022-06-03T12:50:43.802Z,,,0,V,183.76300000297488,response,stim_detected,mousedown,100331.40000000224,100329.70000000298,100129262,100130.40000000224,100145937,100346339,,grey,UT01KI10,26,m,5,2,freier Autor,0,0,0,0,0
Trial,flow.Sequence,2_21_0,2022-06-03T12:50:43.802Z,,,0,V,2268.182000002984,completion,,,100331.90000000224,100329.70000000298,98044841,98055.80000000075,98061518,100346339,,grey,UT01KI10,26,m,5,2,freier Autor,0,0,0,0,0
Frame,canvas.Frame,2_21,2022-06-03T12:50:43.803Z,,,0,V,2270.5820000014937,,,,100332.20000000298,100332.10000000149,98044841,98054.80000000075,98061518,100346339,,grey,UT01KI10,26,m,5,2,freier Autor,0,0,0,0,0
Fixation,canvas.Screen,2_22_0_0,2022-06-03T12:50:45.536Z,,,1,A,1735.258999999991,timeout,,,102066.10000000149,102064914,100329662,100333.20000000298,100346339,102081598,,black,UT01KI10,26,m,5,2,freier Autor,0,0,0,0,0
Stimulus,canvas.Screen,2_22_0_1,2022-06-03T12:50:45.635Z,,,1,A,99.27300000000105,timeout,,,102165,102164157,102064914,102066.40000000224,102081598,102180871,,black,UT01KI10,26,m,5,2,freier Autor,0,0,0,0,0
Reaction,canvas.Screen,2_22_0_2,2022-06-03T12:50:45.896Z,,,1,A,243.32900000298105,response,stim_detected,mousedown,102425.80000000075,102424.20000000298,102164157,102165,102180871,102431011,,black,UT01KI10,26,m,5,2,freier Autor,0,0,0,0,0
Trial,flow.Sequence,2_22_0,2022-06-03T12:50:45.897Z,,,1,A,2077.861000002973,completion,,,102426.20000000298,102424.20000000298,100329662,100333.20000000298,100346339,102431011,,black,UT01KI10,26,m,5,2,freier Autor,0,0,0,0,0
Frame,canvas.Frame,2_22,2022-06-03T12:50:45.897Z,,,1,A,2080.061000002228,,,,102426.5,102426.40000000224,100329662,100332.5,100346339,102431011,,black,UT01KI10,26,m,5,2,freier Autor,0,0,0,0,0
Fixation,canvas.Screen,2_23_0_0,2022-06-03T12:50:48.206Z,,,0,V,2319.1640000000043,timeout,,,104735.5,104733491,102414335,102427.5,102431011,104750175,,grey,UT01KI10,26,m,5,2,freier Autor,0,0,0,0,0
Stimulus,canvas.Screen,2_23_0_1,2022-06-03T12:50:48.305Z,,,0,V,99.17199999999139,timeout,,,104835.10000000149,104832.67,104733491,104735.90000000224,104750175,104849347,,grey,UT01KI10,26,m,5,2,freier Autor,0,0,0,0,0
Reaction,canvas.Screen,2_23_0_2,2022-06-03T12:50:48.496Z,,,0,V,174.85300000298594,response,stim_detected,mousedown,105025.80000000075,105024.20000000298,104832.67,104835.30000000075,104849347,105032776,,grey,UT01KI10,26,m,5,2,freier Autor,0,0,0,0,0
Trial,flow.Sequence,2_23_0,2022-06-03T12:50:48.497Z,,,0,V,2593.1890000029816,completion,,,105026.30000000075,105024.20000000298,102414335,102427.40000000224,102431011,105032776,,grey,UT01KI10,26,m,5,2,freier Autor,0,0,0,0,0
Frame,canvas.Frame,2_23,2022-06-03T12:50:48.497Z,,,0,V,2595.4890000000014,,,,105026.80000000075,105026.5,102414335,102426.70000000298,102431011,105032776,,grey,UT01KI10,26,m,5,2,freier Autor,0,0,0,0,0
Fixation,canvas.Screen,2_24_0_0,2022-06-03T12:50:49.989Z,,,1,AV,1500.7229999999981,timeout,,,106519,106516824,105016099,105027.80000000075,105032776,106533499,,grey,UT01KI10,26,m,5,2,freier Autor,0,0,0,0,0
Stimulus,canvas.Screen,2_24_0_1,2022-06-03T12:50:50.089Z,,,1,AV,100.29300000000512,timeout,,,106618.40000000224,106617115,106516824,106519.20000000298,106533499,106633792,,grey,UT01KI10,26,m,5,2,freier Autor,0,0,0,0,0
Reaction,canvas.Screen,2_24_0_2,2022-06-03T12:50:50.265Z,,,1,AV,159.30800000148884,response,stim_detected,mousedown,106794.60000000149,106793.10000000149,106617115,106618.70000000298,106633792,106800594,,grey,UT01KI10,26,m,5,2,freier Autor,0,0,0,0,0
Trial,flow.Sequence,2_24_0,2022-06-03T12:50:50.265Z,,,1,AV,1760.324000001492,completion,,,106795.10000000149,106793.10000000149,105016099,105027.80000000075,105032776,106800594,,grey,UT01KI10,26,m,5,2,freier Autor,0,0,0,0,0
Frame,canvas.Frame,2_24,2022-06-03T12:50:50.266Z,,,1,AV,1762.524000000747,,,,106795.5,106795.30000000075,105016099,105026.90000000224,105032776,106800594,,grey,UT01KI10,26,m,5,2,freier Autor,0,0,0,0,0
Fixation,canvas.Screen,2_25_0_0,2022-06-03T12:50:52.158Z,,,1,AV,1901.699999999997,timeout,,,108687.5,108685613,106783917,106796.60000000149,106800594,108702294,,grey,UT01KI10,26,m,5,2,freier Autor,0,0,0,0,0
Stimulus,canvas.Screen,2_25_0_1,2022-06-03T12:50:52.257Z,,,1,AV,99.05400000000373,timeout,,,108786.5,108784675,108685613,108687.70000000298,108702294,108801348,,grey,UT01KI10,26,m,5,2,freier Autor,0,0,0,0,0
Reaction,canvas.Screen,2_25_0_2,2022-06-03T12:50:52.408Z,,,1,AV,134.8520000029821,response,stim_detected,mousedown,108937.70000000298,108936.20000000298,108784675,108786.70000000298,108801348,108952015,,grey,UT01KI10,26,m,5,2,freier Autor,0,0,0,0,0
Trial,flow.Sequence,2_25_0,2022-06-03T12:50:52.408Z,,,1,AV,2135.606000002983,completion,,,108938.10000000149,108936.20000000298,106783917,106796.5,106800594,108952015,,grey,UT01KI10,26,m,5,2,freier Autor,0,0,0,0,0
Frame,canvas.Frame,2_25,2022-06-03T12:50:52.409Z,,,1,AV,2137.606000002983,,,,108938.5,108938.20000000298,106783917,106795.80000000075,106800594,108952015,,grey,UT01KI10,26,m,5,2,freier Autor,0,0,0,0,0
Fixation,canvas.Screen,2_26_0_0,2022-06-03T12:50:54.676Z,,,0,V,2268.221000000005,timeout,,,111205.20000000298,111203558,108935338,108939.40000000224,108952015,111220236,,grey,UT01KI10,26,m,5,2,freier Autor,0,0,0,0,0
Stimulus,canvas.Screen,2_26_0_1,2022-06-03T12:50:54.775Z,,,0,V,99.89299999999639,timeout,,,111304.90000000224,111303453,111203558,111205.60000000149,111220236,111320129,,grey,UT01KI10,26,m,5,2,freier Autor,0,0,0,0,0
Reaction,canvas.Screen,2_26_0_2,2022-06-03T12:50:54.936Z,,,0,V,144.17100000074424,response,stim_detected,mousedown,111466.10000000149,111464.30000000075,111303453,111305.10000000149,111320129,111470331,,grey,UT01KI10,26,m,5,2,freier Autor,0,0,0,0,0
Trial,flow.Sequence,2_26_0,2022-06-03T12:50:54.937Z,,,0,V,2512.2850000007456,completion,,,111466.5,111464.30000000075,108935338,108939.40000000224,108952015,111470331,,grey,UT01KI10,26,m,5,2,freier Autor,0,0,0,0,0
Frame,canvas.Frame,2_26,2022-06-03T12:50:54.937Z,,,0,V,2514.5850000014907,,,,111466.80000000075,111466.60000000149,108935338,108938.60000000149,108952015,111470331,,grey,UT01KI10,26,m,5,2,freier Autor,0,0,0,0,0
Fixation,canvas.Screen,2_27_0_0,2022-06-03T12:50:56.893Z,,,1,A,1968.0179999999964,timeout,,,113422.60000000149,113421671,111453654,111468,111470331,113438349,,black,UT01KI10,26,m,5,2,freier Autor,0,0,0,0,0
Stimulus,canvas.Screen,2_27_0_1,2022-06-03T12:50:56.993Z,,,1,A,100.07200000000012,timeout,,,113522.60000000149,113521743,113421671,113422.90000000224,113438349,113538421,,black,UT01KI10,26,m,5,2,freier Autor,0,0,0,0,0
Reaction,canvas.Screen,2_27_0_2,2022-06-03T12:50:57.152Z,,,1,A,141.67900000148802,response,stim_detected,mousedown,113681.5,113680.10000000149,113521743,113522.90000000224,113538421,113688454,,black,UT01KI10,26,m,5,2,freier Autor,0,0,0,0,0
Trial,flow.Sequence,2_27_0,2022-06-03T12:50:57.152Z,,,1,A,2209.7690000014845,completion,,,113681.90000000224,113680.10000000149,111453654,111468,111470331,113688454,,black,UT01KI10,26,m,5,2,freier Autor,0,0,0,0,0
Frame,canvas.Frame,2_27,2022-06-03T12:50:57.153Z,,,1,A,2211.7690000014845,,,,113682.30000000075,113682.10000000149,111453654,111467.10000000149,111470331,113688454,,black,UT01KI10,26,m,5,2,freier Autor,0,0,0,0,0
Fixation,canvas.Screen,2_28_0_0,2022-06-03T12:50:59.479Z,,,0,V,2334.4820000000036,timeout,,,116008.30000000075,116006261,113671777,113683.5,113688454,116022936,,grey,UT01KI10,26,m,5,2,freier Autor,0,0,0,0,0
Stimulus,canvas.Screen,2_28_0_1,2022-06-03T12:50:59.578Z,,,0,V,100.45600000000559,timeout,,,116108.10000000149,116106715,116006261,116008.5,116022936,116123392,,grey,UT01KI10,26,m,5,2,freier Autor,0,0,0,0,0
Reaction,canvas.Screen,2_28_0_2,2022-06-03T12:50:59.750Z,,,0,V,154.6079999999929,response,stim_detected,mousedown,116279.40000000224,116278,116106715,116108.40000000224,116123392,116290152,,grey,UT01KI10,26,m,5,2,freier Autor,0,0,0,0,0
Trial,flow.Sequence,2_28_0,2022-06-03T12:50:59.750Z,,,0,V,2589.546000000002,completion,,,116279.80000000075,116278,113671777,113683.30000000075,113688454,116290152,,grey,UT01KI10,26,m,5,2,freier Autor,0,0,0,0,0
Frame,canvas.Frame,2_28,2022-06-03T12:50:59.750Z,,,0,V,2591.546000000002,,,,116280.10000000149,116280,113671777,113682.40000000224,113688454,116290152,,grey,UT01KI10,26,m,5,2,freier Autor,0,0,0,0,0
Fixation,canvas.Screen,2_29_0_0,2022-06-03T12:51:01.630Z,,,1,AV,1884.8859999999986,timeout,,,118159.80000000075,118158358,116273475,116281.30000000075,116290152,118175038,,grey,UT01KI10,26,m,5,2,freier Autor,0,0,0,0,0
Stimulus,canvas.Screen,2_29_0_1,2022-06-03T12:51:01.730Z,,,1,AV,99.61999999999534,timeout,,,118259.80000000075,118257982,118158358,118160.10000000149,118175038,118274658,,grey,UT01KI10,26,m,5,2,freier Autor,0,0,0,0,0
Reaction,canvas.Screen,2_29_0_2,2022-06-03T12:51:01.881Z,,,1,AV,134.24200000223937,response,stim_detected,mousedown,118410.30000000075,118408.90000000224,118257982,118260.20000000298,118274658,118424878,,grey,UT01KI10,26,m,5,2,freier Autor,0,0,0,0,0
Trial,flow.Sequence,2_29_0,2022-06-03T12:51:01.881Z,,,1,AV,2118.7480000022333,completion,,,118410.70000000298,118408.90000000224,116273475,116281.20000000298,116290152,118424878,,grey,UT01KI10,26,m,5,2,freier Autor,0,0,0,0,0
Frame,canvas.Frame,2_29,2022-06-03T12:51:01.881Z,,,1,AV,2120.7480000022333,,,,118411.10000000149,118410.90000000224,116273475,116280.30000000075,116290152,118424878,,grey,UT01KI10,26,m,5,2,freier Autor,0,0,0,0,0
Fixation,canvas.Screen,2_30_0_0,2022-06-03T12:51:03.415Z,,,1,AV,1534.8220000000001,timeout,,,119944.90000000224,119943018,118408201,118412,118424878,119959.7,,grey,UT01KI10,26,m,5,2,freier Autor,0,0,0,0,0
Stimulus,canvas.Screen,2_30_0_1,2022-06-03T12:51:03.514Z,,,1,AV,99.31200000000536,timeout,,,120044,120042338,119943018,119945.10000000149,119959.7,120059012,,grey,UT01KI10,26,m,5,2,freier Autor,0,0,0,0,0
Reaction,canvas.Screen,2_30_0_2,2022-06-03T12:51:03.645Z,,,1,AV,113.88800000223273,response,stim_detected,mousedown,120174.5,120172.90000000224,120042338,120044.20000000298,120059012,120192728,,grey,UT01KI10,26,m,5,2,freier Autor,0,0,0,0,0
Trial,flow.Sequence,2_30_0,2022-06-03T12:51:03.645Z,,,1,AV,1748.0220000022382,completion,,,120174.90000000224,120172.90000000224,118408201,118412,118424878,120192728,,grey,UT01KI10,26,m,5,2,freier Autor,0,0,0,0,0
Frame,canvas.Frame,2_30,2022-06-03T12:51:03.646Z,,,1,AV,1750.2220000014931,,,,120175.30000000075,120175.10000000149,118408201,118411.10000000149,118424878,120192728,,grey,UT01KI10,26,m,5,2,freier Autor,0,0,0,0,0
Fixation,canvas.Screen,2_31_0_0,2022-06-03T12:51:05.383Z,,,1,A,1734.528999999995,timeout,,,121911.90000000224,121910579,120176051,120176.40000000224,120192728,121927257,,black,UT01KI10,26,m,5,2,freier Autor,0,0,0,0,0
Stimulus,canvas.Screen,2_31_0_1,2022-06-03T12:51:05.483Z,,,1,A,100.02300000000105,timeout,,,122011.90000000224,122010602,121910579,121912.10000000149,121927257,122027.28,,black,UT01KI10,26,m,5,2,freier Autor,0,0,0,0,0
Reaction,canvas.Screen,2_31_0_2,2022-06-03T12:51:05.770Z,,,1,A,269.5200000007462,response,stim_detected,mousedown,122298.40000000224,122296.80000000075,122010602,122012.20000000298,122027.28,122327439,,black,UT01KI10,26,m,5,2,freier Autor,0,0,0,0,0
Trial,flow.Sequence,2_31_0,2022-06-03T12:51:05.770Z,,,1,A,2104.0720000007423,completion,,,122298.70000000298,122296.80000000075,120176051,120176.30000000075,120192728,122327439,,black,UT01KI10,26,m,5,2,freier Autor,0,0,0,0,0
Frame,canvas.Frame,2_31,2022-06-03T12:51:05.770Z,,,1,A,2106.0720000007423,,,,122299,122298.80000000075,120176051,120175.60000000149,120192728,122327439,,black,UT01KI10,26,m,5,2,freier Autor,0,0,0,0,0
Fixation,canvas.Screen,2_32_0_0,2022-06-03T12:51:08.186Z,,,1,AV,2402.119000000006,timeout,,,124714.20000000298,124712877,122294085,122300.10000000149,122327439,124729558,,grey,UT01KI10,26,m,5,2,freier Autor,0,0,0,0,0
Stimulus,canvas.Screen,2_32_0_1,2022-06-03T12:51:08.285Z,,,1,AV,99.00699999999779,timeout,,,124813.40000000224,124811891,124712877,124714.5,124729558,124828565,,grey,UT01KI10,26,m,5,2,freier Autor,0,0,0,0,0
Reaction,canvas.Screen,2_32_0_2,2022-06-03T12:51:08.541Z,,,1,AV,239.1350000029779,response,stim_detected,mousedown,125069.30000000075,125067.70000000298,124811891,124813.70000000298,124828565,125079223,,grey,UT01KI10,26,m,5,2,freier Autor,0,0,0,0,0
Trial,flow.Sequence,2_32_0,2022-06-03T12:51:08.541Z,,,1,AV,2740.2610000029817,completion,,,125069.70000000298,125067.70000000298,122294085,122299.90000000224,122327439,125079223,,grey,UT01KI10,26,m,5,2,freier Autor,0,0,0,0,0
Frame,canvas.Frame,2_32,2022-06-03T12:51:08.541Z,,,1,AV,2742.3610000007466,,,,125070,125069.80000000075,122294085,122299.10000000149,122327439,125079223,,grey,UT01KI10,26,m,5,2,freier Autor,0,0,0,0,0
Fixation,canvas.Screen,2_33_0_0,2022-06-03T12:51:10.571Z,,,1,AV,2035.6760000000068,timeout,,,127099.20000000298,127098214,125062546,125071.10000000149,125079223,127114899,,grey,UT01KI10,26,m,5,2,freier Autor,0,0,0,0,0
Stimulus,canvas.Screen,2_33_0_1,2022-06-03T12:51:10.670Z,,,1,AV,98.89099999998871,timeout,,,127198.20000000298,127197114,127098214,127099.40000000224,127114899,127213.79,,grey,UT01KI10,26,m,5,2,freier Autor,0,0,0,0,0
Reaction,canvas.Screen,2_33_0_2,2022-06-03T12:51:10.814Z,,,1,AV,127.41000000298664,response,stim_detected,mousedown,127342.70000000298,127341.20000000298,127197114,127198.40000000224,127213.79,127347378,,grey,UT01KI10,26,m,5,2,freier Autor,0,0,0,0,0
Trial,flow.Sequence,2_33_0,2022-06-03T12:51:10.815Z,,,1,AV,2261.977000002982,completion,,,127343.20000000298,127341.20000000298,125062546,125071,125079223,127347378,,grey,UT01KI10,26,m,5,2,freier Autor,0,0,0,0,0
Frame,canvas.Frame,2_33,2022-06-03T12:51:10.815Z,,,1,AV,2264.077000000747,,,,127343.40000000224,127343.30000000075,125062546,125070.20000000298,125079223,127347378,,grey,UT01KI10,26,m,5,2,freier Autor,0,0,0,0,0
Fixation,canvas.Screen,2_34_0_0,2022-06-03T12:51:13.007Z,,,1,A,2202.652000000002,timeout,,,129535.10000000149,129533344,127330701,127344.5,127347378,129550.03,,black,UT01KI10,26,m,5,2,freier Autor,0,0,0,0,0
Stimulus,canvas.Screen,2_34_0_1,2022-06-03T12:51:13.105Z,,,1,A,98.74000000000524,timeout,,,129633.20000000298,129632094,129533344,129535.40000000224,129550.03,129648.77,,black,UT01KI10,26,m,5,2,freier Autor,0,0,0,0,0
Reaction,canvas.Screen,2_34_0_2,2022-06-03T12:51:13.380Z,,,1,A,257.93000000297616,response,stim_detected,mousedown,129908.10000000149,129906.70000000298,129632094,129633.60000000149,129648.77,129915762,,black,UT01KI10,26,m,5,2,freier Autor,0,0,0,0,0
Trial,flow.Sequence,2_34_0,2022-06-03T12:51:13.380Z,,,1,A,2559.3220000029833,completion,,,129908.5,129906.70000000298,127330701,127344.5,127347378,129915762,,black,UT01KI10,26,m,5,2,freier Autor,0,0,0,0,0
Frame,canvas.Frame,2_34,2022-06-03T12:51:13.380Z,,,1,A,2561.3220000029833,,,,129908.90000000224,129908.70000000298,127330701,127343.70000000298,127347378,129915762,,black,UT01KI10,26,m,5,2,freier Autor,0,0,0,0,0
Fixation,canvas.Screen,2_35_0_0,2022-06-03T12:51:15.457Z,,,0,V,2084.933999999994,timeout,,,131985.20000000298,131984017,129899085,129910,129915762,132000696,,grey,UT01KI10,26,m,5,2,freier Autor,0,0,0,0,0
Stimulus,canvas.Screen,2_35_0_1,2022-06-03T12:51:15.557Z,,,0,V,99.87400000001071,timeout,,,132085.30000000075,132083893,131984017,131985.5,132000696,132100.57,,grey,UT01KI10,26,m,5,2,freier Autor,0,0,0,0,0
Reaction,canvas.Screen,2_35_0_2,2022-06-03T12:51:15.715Z,,,0,V,141.03000000148313,response,stim_detected,mousedown,132243,132241.6000000015,132083893,132085.5,132100.57,132250585,,grey,UT01KI10,26,m,5,2,freier Autor,0,0,0,0,0
Trial,flow.Sequence,2_35_0,2022-06-03T12:51:15.715Z,,,0,V,2325.8380000014877,completion,,,132243.5,132241.6000000015,129899085,129909.80000000075,129915762,132250585,,grey,UT01KI10,26,m,5,2,freier Autor,0,0,0,0,0
Frame,canvas.Frame,2_35,2022-06-03T12:51:15.715Z,,,0,V,2328.0380000007426,,,,132244,132243.80000000075,129899085,129909,129915762,132250585,,grey,UT01KI10,26,m,5,2,freier Autor,0,0,0,0,0
Fixation,canvas.Screen,2_36_0_0,2022-06-03T12:51:17.659Z,,,1,A,1952.4290000000037,timeout,,,134187.30000000075,134186327,132233909,132245.20000000298,132250585,134203014,,black,UT01KI10,26,m,5,2,freier Autor,0,0,0,0,0
Stimulus,canvas.Screen,2_36_0_1,2022-06-03T12:51:17.758Z,,,1,A,98.8289999999979,timeout,,,134286.40000000224,134285167,134186327,134187.70000000298,134203014,134301843,,black,UT01KI10,26,m,5,2,freier Autor,0,0,0,0,0
Reaction,canvas.Screen,2_36_0_2,2022-06-03T12:51:18.107Z,,,1,A,331.75700000149664,response,stim_detected,mousedown,134635.20000000298,134633.6000000015,134285167,134286.6000000015,134301843,134652198,,black,UT01KI10,26,m,5,2,freier Autor,0,0,0,0,0
Trial,flow.Sequence,2_36_0,2022-06-03T12:51:18.107Z,,,1,A,2383.0150000014983,completion,,,134635.5,134633.6000000015,132233909,132245.1000000015,132250585,134652198,,black,UT01KI10,26,m,5,2,freier Autor,0,0,0,0,0
Frame,canvas.Frame,2_36,2022-06-03T12:51:18.107Z,,,1,A,2385.0150000014983,,,,134635.80000000075,134635.6000000015,132233909,132244.20000000298,132250585,134652198,,black,UT01KI10,26,m,5,2,freier Autor,0,0,0,0,0
Fixation,canvas.Screen,2_37_0_0,2022-06-03T12:51:19.743Z,,,1,AV,1634.6019999999844,timeout,,,136271.5,136270121,134635521,134636.80000000075,134652198,136286.8,,grey,UT01KI10,26,m,5,2,freier Autor,0,0,0,0,0
Stimulus,canvas.Screen,2_37_0_1,2022-06-03T12:51:19.843Z,,,1,AV,99.80800000001909,timeout,,,136371.40000000224,136369932,136270121,136271.90000000224,136286.8,136386608,,grey,UT01KI10,26,m,5,2,freier Autor,0,0,0,0,0
Reaction,canvas.Screen,2_37_0_2,2022-06-03T12:51:20.024Z,,,1,AV,163.99200000148267,response,stim_detected,mousedown,136552.1000000015,136550.6000000015,136369932,136371.6000000015,136386608,136570137,,grey,UT01KI10,26,m,5,2,freier Autor,0,0,0,0,0
Trial,flow.Sequence,2_37_0,2022-06-03T12:51:20.024Z,,,1,AV,1898.4020000014862,completion,,,136552.70000000298,136550.6000000015,134635521,134636.70000000298,134652198,136570137,,grey,UT01KI10,26,m,5,2,freier Autor,0,0,0,0,0
Frame,canvas.Frame,2_37,2022-06-03T12:51:20.025Z,,,1,AV,1900.602000000741,,,,136553.1000000015,136552.80000000075,134635521,134636,134652198,136570137,,grey,UT01KI10,26,m,5,2,freier Autor,0,0,0,0,0
Fixation,canvas.Screen,2_38_0_0,2022-06-03T12:51:21.644Z,,,1,A,1617.6820000000007,timeout,,,138172.5,138171142,136553.46,136554.70000000298,136570137,138187819,,black,UT01KI10,26,m,5,2,freier Autor,0,0,0,0,0
Stimulus,canvas.Screen,2_38_0_1,2022-06-03T12:51:21.744Z,,,1,A,100.13400000002002,timeout,,,138272.5,138271276,138171142,138172.70000000298,138187819,138287953,,black,UT01KI10,26,m,5,2,freier Autor,0,0,0,0,0
Reaction,canvas.Screen,2_38_0_2,2022-06-03T12:51:22.094Z,,,1,A,332.5469999999914,response,stim_detected,mousedown,138622.30000000075,138620.5,138271276,138272.90000000224,138287953,138638.15,,black,UT01KI10,26,m,5,2,freier Autor,0,0,0,0,0
Trial,flow.Sequence,2_38_0,2022-06-03T12:51:22.094Z,,,1,A,2050.363000000012,completion,,,138622.70000000298,138620.5,136553.46,136554.6000000015,136570137,138638.15,,black,UT01KI10,26,m,5,2,freier Autor,0,0,0,0,0
Frame,canvas.Frame,2_38,2022-06-03T12:51:22.095Z,,,1,A,2052.663000000757,,,,138623.1000000015,138622.80000000075,136553.46,136553.20000000298,136570137,138638.15,,black,UT01KI10,26,m,5,2,freier Autor,0,0,0,0,0
Fixation,canvas.Screen,2_39_0_0,2022-06-03T12:51:23.628Z,,,1,AV,1534.1670000000158,timeout,,,140156.6000000015,140155641,138621473,138625.1000000015,138638.15,140172317,,grey,UT01KI10,26,m,5,2,freier Autor,0,0,0,0,0
Stimulus,canvas.Screen,2_39_0_1,2022-06-03T12:51:23.729Z,,,1,AV,100.32399999999325,timeout,,,140257.6000000015,140255963,140155641,140156.90000000224,140172317,140272641,,grey,UT01KI10,26,m,5,2,freier Autor,0,0,0,0,0
Reaction,canvas.Screen,2_39_0_2,2022-06-03T12:51:23.941Z,,,1,AV,195.85899999999674,response,stim_detected,mousedown,140469.90000000224,140468.5,140255963,140257.70000000298,140272641,140472691,,grey,UT01KI10,26,m,5,2,freier Autor,0,0,0,0,0
Trial,flow.Sequence,2_39_0,2022-06-03T12:51:23.942Z,,,1,AV,1830.3500000000058,completion,,,140470.30000000075,140468.5,138621473,138624.90000000224,138638.15,140472691,,grey,UT01KI10,26,m,5,2,freier Autor,0,0,0,0,0
Frame,canvas.Frame,2_39,2022-06-03T12:51:23.942Z,,,1,AV,1832.3500000000058,,,,140470.70000000298,140470.5,138621473,138623.30000000075,138638.15,140472691,,grey,UT01KI10,26,m,5,2,freier Autor,0,0,0,0,0
Fixation,canvas.Screen,2_40_0_0,2022-06-03T12:51:26.346Z,,,1,A,2417.363000000012,timeout,,,142874.90000000224,142873382,140456014,140471.90000000224,140472691,142890054,,black,UT01KI10,26,m,5,2,freier Autor,0,0,0,0,0
Stimulus,canvas.Screen,2_40_0_1,2022-06-03T12:51:26.447Z,,,1,A,100.98300000000745,timeout,,,142975.70000000298,142974359,142873382,142875.1000000015,142890054,142991037,,black,UT01KI10,26,m,5,2,freier Autor,0,0,0,0,0
Reaction,canvas.Screen,2_40_0_2,2022-06-03T12:51:26.748Z,,,1,A,283.2630000007339,response,stim_detected,mousedown,143276,143274.30000000075,142974359,142976,142991037,143291131,,black,UT01KI10,26,m,5,2,freier Autor,0,0,0,0,0
Trial,flow.Sequence,2_40_0,2022-06-03T12:51:26.748Z,,,1,A,2801.6090000007534,completion,,,143276.5,143274.30000000075,140456014,140471.70000000298,140472691,143291131,,black,UT01KI10,26,m,5,2,freier Autor,0,0,0,0,0
Frame,canvas.Frame,2_40,2022-06-03T12:51:26.748Z,,,1,A,2803.8090000000084,,,,143276.70000000298,143276.5,140456014,140470.80000000075,140472691,143291131,,black,UT01KI10,26,m,5,2,freier Autor,0,0,0,0,0
Fixation,canvas.Screen,2_41_0_0,2022-06-03T12:51:29.001Z,,,1,AV,2253.5409999999974,timeout,,,145530,145527.98,143274455,143277.80000000075,143291131,145544672,,grey,UT01KI10,26,m,5,2,freier Autor,0,0,0,0,0
Stimulus,canvas.Screen,2_41_0_1,2022-06-03T12:51:29.098Z,,,1,AV,98.04899999999907,timeout,,,145627,145625861,145527.98,145530.20000000298,145544672,145642721,,grey,UT01KI10,26,m,5,2,freier Autor,0,0,0,0,0
Reaction,canvas.Screen,2_41_0_2,2022-06-03T12:51:29.398Z,,,1,AV,282.5790000007546,response,stim_detected,mousedown,145926.80000000075,145925.30000000075,145625861,145627.20000000298,145642721,145942907,,grey,UT01KI10,26,m,5,2,freier Autor,0,0,0,0,0
Trial,flow.Sequence,2_41_0,2022-06-03T12:51:29.399Z,,,1,AV,2634.169000000751,completion,,,145927.20000000298,145925.30000000075,143274455,143277.70000000298,143291131,145942907,,grey,UT01KI10,26,m,5,2,freier Autor,0,0,0,0,0
Frame,canvas.Frame,2_41,2022-06-03T12:51:29.399Z,,,1,AV,2636.169000000751,,,,145927.6000000015,145927.30000000075,143274455,143276.90000000224,143291131,145942907,,grey,UT01KI10,26,m,5,2,freier Autor,0,0,0,0,0
Fixation,canvas.Screen,2_42_0_0,2022-06-03T12:51:31.586Z,,,1,AV,2186.1289999999863,timeout,,,148114.80000000075,148112349,145926.23,145928.80000000075,145942907,148129036,,grey,UT01KI10,26,m,5,2,freier Autor,0,0,0,0,0
Stimulus,canvas.Screen,2_42_0_1,2022-06-03T12:51:31.685Z,,,1,AV,98.74000000001979,timeout,,,148213.40000000224,148211009,148112349,148115.1000000015,148129036,148227776,,grey,UT01KI10,26,m,5,2,freier Autor,0,0,0,0,0
Reaction,canvas.Screen,2_42_0_2,2022-06-03T12:51:31.883Z,,,1,AV,182.42400000296766,response,stim_detected,mousedown,148411.70000000298,148410.20000000298,148211009,148213.6000000015,148227776,148427.9,,grey,UT01KI10,26,m,5,2,freier Autor,0,0,0,0,0
Trial,flow.Sequence,2_42_0,2022-06-03T12:51:31.884Z,,,1,AV,2467.2930000029737,completion,,,148412.20000000298,148410.20000000298,145926.23,145928.70000000298,145942907,148427.9,,grey,UT01KI10,26,m,5,2,freier Autor,0,0,0,0,0
Frame,canvas.Frame,2_42,2022-06-03T12:51:31.884Z,,,1,AV,2469.2930000029737,,,,148412.6000000015,148412.20000000298,145926.23,145927.90000000224,145942907,148427.9,,grey,UT01KI10,26,m,5,2,freier Autor,0,0,0,0,0
Fixation,canvas.Screen,2_43_0_0,2022-06-03T12:51:34.304Z,,,1,AV,2418.9839999999967,timeout,,,150832.30000000075,150830202,148411223,148414,148427.9,150846884,,grey,UT01KI10,26,m,5,2,freier Autor,0,0,0,0,0
Stimulus,canvas.Screen,2_43_0_1,2022-06-03T12:51:34.403Z,,,1,AV,98.97500000000582,timeout,,,150931.20000000298,150929184,150830202,150832.6000000015,150846884,150945859,,grey,UT01KI10,26,m,5,2,freier Autor,0,0,0,0,0
Reaction,canvas.Screen,2_43_0_2,2022-06-03T12:51:34.533Z,,,1,AV,114.44100000074832,response,stim_detected,mousedown,151061.70000000298,151060.30000000075,150929184,150931.5,150945859,151062973,,grey,UT01KI10,26,m,5,2,freier Autor,0,0,0,0,0
Trial,flow.Sequence,2_43_0,2022-06-03T12:51:34.534Z,,,1,AV,2632.400000000751,completion,,,151062.1000000015,151060.30000000075,148411223,148413.80000000075,148427.9,151062973,,grey,UT01KI10,26,m,5,2,freier Autor,0,0,0,0,0
Frame,canvas.Frame,2_43,2022-06-03T12:51:34.534Z,,,1,AV,2634.300000002986,,,,151062.30000000075,151062.20000000298,148411223,148412.70000000298,148427.9,151062973,,grey,UT01KI10,26,m,5,2,freier Autor,0,0,0,0,0
Fixation,canvas.Screen,2_44_0_0,2022-06-03T12:51:36.020Z,,,0,V,1501.2419999999984,timeout,,,152549,152547535,151046296,151064.40000000224,151062973,152564215,,grey,UT01KI10,26,m,5,2,freier Autor,0,0,0,0,0
Stimulus,canvas.Screen,2_44_0_1,2022-06-03T12:51:36.120Z,,,0,V,99.71100000001024,timeout,,,152649,152647.25,152547535,152549.30000000075,152564215,152663926,,grey,UT01KI10,26,m,5,2,freier Autor,0,0,0,0,0
Reaction,canvas.Screen,2_44_0_2,2022-06-03T12:51:36.289Z,,,0,V,152.27400000297348,response,stim_detected,mousedown,152817.6000000015,152816.20000000298,152647.25,152649.20000000298,152663926,152830793,,grey,UT01KI10,26,m,5,2,freier Autor,0,0,0,0,0
Trial,flow.Sequence,2_44_0,2022-06-03T12:51:36.290Z,,,0,V,1753.227000002982,completion,,,152818,152816.20000000298,151046296,151064.1000000015,151062973,152830793,,grey,UT01KI10,26,m,5,2,freier Autor,0,0,0,0,0
Frame,canvas.Frame,2_44,2022-06-03T12:51:36.290Z,,,0,V,1755.127000001492,,,,152818.30000000075,152818.1000000015,151046296,151062.6000000015,151062973,152830793,,grey,UT01KI10,26,m,5,2,freier Autor,0,0,0,0,0
Fixation,canvas.Screen,2_45_0_0,2022-06-03T12:51:38.239Z,,,0,V,1951.8349999999919,timeout,,,154767.1000000015,154765946,152814116,152819.40000000224,152830793,154782628,,grey,UT01KI10,26,m,5,2,freier Autor,0,0,0,0,0
Stimulus,canvas.Screen,2_45_0_1,2022-06-03T12:51:38.339Z,,,0,V,99.33199999999488,timeout,,,154867.1000000015,154865284,154765946,154767.30000000075,154782628,154881.96,,grey,UT01KI10,26,m,5,2,freier Autor,0,0,0,0,0
Reaction,canvas.Screen,2_45_0_2,2022-06-03T12:51:38.481Z,,,0,V,126.24000000298838,response,stim_detected,mousedown,155009.6000000015,155008.20000000298,154865284,154867.40000000224,154881.96,155015566,,grey,UT01KI10,26,m,5,2,freier Autor,0,0,0,0,0
Trial,flow.Sequence,2_45_0,2022-06-03T12:51:38.481Z,,,0,V,2177.407000002975,completion,,,155009.90000000224,155008.20000000298,152814116,152819.20000000298,152830793,155015566,,grey,UT01KI10,26,m,5,2,freier Autor,0,0,0,0,0
Frame,canvas.Frame,2_45,2022-06-03T12:51:38.482Z,,,0,V,2179.307000001485,,,,155010.30000000075,155010.1000000015,152814116,152818.5,152830793,155015566,,grey,UT01KI10,26,m,5,2,freier Autor,0,0,0,0,0
Fixation,canvas.Screen,2_46_0_0,2022-06-03T12:51:40.040Z,,,0,V,1567.8559999999998,timeout,,,156568.20000000298,156566743,154998889,155011.40000000224,155015566,156583422,,grey,UT01KI10,26,m,5,2,freier Autor,0,0,0,0,0
Stimulus,canvas.Screen,2_46_0_1,2022-06-03T12:51:40.140Z,,,0,V,99.70200000001932,timeout,,,156668.1000000015,156666449,156566743,156568.30000000075,156583422,156683124,,grey,UT01KI10,26,m,5,2,freier Autor,0,0,0,0,0
Reaction,canvas.Screen,2_46_0_2,2022-06-03T12:51:40.292Z,,,0,V,135.9760000014794,response,stim_detected,mousedown,156820.6000000015,156819.1000000015,156666449,156668.40000000224,156683124,156833424,,grey,UT01KI10,26,m,5,2,freier Autor,0,0,0,0,0
Trial,flow.Sequence,2_46_0,2022-06-03T12:51:40.292Z,,,0,V,1803.5340000014985,completion,,,156820.90000000224,156819.1000000015,154998889,155011.20000000298,155015566,156833424,,grey,UT01KI10,26,m,5,2,freier Autor,0,0,0,0,0
Frame,canvas.Frame,2_46,2022-06-03T12:51:40.293Z,,,0,V,1805.5340000014985,,,,156821.30000000075,156821.1000000015,154998889,155010.5,155015566,156833424,,grey,UT01KI10,26,m,5,2,freier Autor,0,0,0,0,0
Fixation,canvas.Screen,2_47_0_0,2022-06-03T12:51:42.291Z,,,1,A,2001.4549999999872,timeout,,,158819.20000000298,158818.2,156816747,156822.30000000075,156833424,158834879,,black,UT01KI10,26,m,5,2,freier Autor,0,0,0,0,0
Stimulus,canvas.Screen,2_47_0_1,2022-06-03T12:51:42.391Z,,,1,A,99.26900000000023,timeout,,,158919.1000000015,158917476,158818.2,158819.70000000298,158834879,158934148,,black,UT01KI10,26,m,5,2,freier Autor,0,0,0,0,0
Reaction,canvas.Screen,2_47_0_2,2022-06-03T12:51:42.627Z,,,1,A,219.75200000224868,response,stim_detected,mousedown,159155.90000000224,159153.90000000224,158917476,158919.40000000224,158934148,159168295,,black,UT01KI10,26,m,5,2,freier Autor,0,0,0,0,0
Trial,flow.Sequence,2_47_0,2022-06-03T12:51:42.628Z,,,1,A,2320.476000002236,completion,,,159156.40000000224,159153.90000000224,156816747,156822.1000000015,156833424,159168295,,black,UT01KI10,26,m,5,2,freier Autor,0,0,0,0,0
Frame,canvas.Frame,2_47,2022-06-03T12:51:42.628Z,,,1,A,2323.176000001491,,,,159156.70000000298,159156.6000000015,156816747,156821.5,156833424,159168295,,black,UT01KI10,26,m,5,2,freier Autor,0,0,0,0,0
Fixation,canvas.Screen,2_48_0_0,2022-06-03T12:51:45.026Z,,,1,AV,2400.8469999999797,timeout,,,161554.5,161552469,159151618,159158,159168295,161569142,,grey,UT01KI10,26,m,5,2,freier Autor,0,0,0,0,0
Stimulus,canvas.Screen,2_48_0_1,2022-06-03T12:51:45.126Z,,,1,AV,100.52499999999418,timeout,,,161654.80000000075,161652991,161552469,161554.70000000298,161569142,161669667,,grey,UT01KI10,26,m,5,2,freier Autor,0,0,0,0,0
Reaction,canvas.Screen,2_48_0_2,2022-06-03T12:51:45.264Z,,,1,AV,121.23300000224845,response,stim_detected,mousedown,161792.30000000075,161790.90000000224,161652991,161655.20000000298,161669667,161803325,,grey,UT01KI10,26,m,5,2,freier Autor,0,0,0,0,0
Trial,flow.Sequence,2_48_0,2022-06-03T12:51:45.264Z,,,1,AV,2622.6050000022224,completion,,,161792.80000000075,161790.90000000224,159151618,159157.90000000224,159168295,161803325,,grey,UT01KI10,26,m,5,2,freier Autor,0,0,0,0,0
Frame,canvas.Frame,2_48,2022-06-03T12:51:45.265Z,,,1,AV,2624.704999999987,,,,161793.20000000298,161793,159151618,159157,159168295,161803325,,grey,UT01KI10,26,m,5,2,freier Autor,0,0,0,0,0
Fixation,canvas.Screen,2_49_0_0,2022-06-03T12:51:47.646Z,,,0,V,2385.743999999977,timeout,,,164174.40000000224,164172386,161786648,161794.80000000075,161803325,164189069,,grey,UT01KI10,26,m,5,2,freier Autor,0,0,0,0,0
Stimulus,canvas.Screen,2_49_0_1,2022-06-03T12:51:47.744Z,,,0,V,98.74000000001979,timeout,,,164272.6000000015,164271135,164172386,164174.6000000015,164189069,164287809,,grey,UT01KI10,26,m,5,2,freier Autor,0,0,0,0,0
Reaction,canvas.Screen,2_49_0_2,2022-06-03T12:51:47.887Z,,,0,V,126.19099999999162,response,stim_detected,mousedown,164415.30000000075,164414,164271135,164272.80000000075,164287809,164421695,,grey,UT01KI10,26,m,5,2,freier Autor,0,0,0,0,0
Trial,flow.Sequence,2_49_0,2022-06-03T12:51:47.887Z,,,0,V,2610.6749999999884,completion,,,164415.70000000298,164414,161786648,161794.70000000298,161803325,164421695,,grey,UT01KI10,26,m,5,2,freier Autor,0,0,0,0,0
Frame,canvas.Frame,2_49,2022-06-03T12:51:47.888Z,,,0,V,2612.5750000022235,,,,164416,164415.90000000224,161786648,161793.40000000224,161803325,164421695,,grey,UT01KI10,26,m,5,2,freier Autor,0,0,0,0,0
Fixation,canvas.Screen,2_50_0_0,2022-06-03T12:51:49.613Z,,,1,AV,1734.9989999999816,timeout,,,166141.40000000224,166140012,164405018,164417.20000000298,164421695,166156694,,grey,UT01KI10,26,m,5,2,freier Autor,0,0,0,0,0
Stimulus,canvas.Screen,2_50_0_1,2022-06-03T12:51:49.713Z,,,1,AV,99.60400000002119,timeout,,,166241.5,166239.62,166140012,166141.70000000298,166156694,166256298,,grey,UT01KI10,26,m,5,2,freier Autor,0,0,0,0,0
Reaction,canvas.Screen,2_50_0_2,2022-06-03T12:51:49.845Z,,,1,AV,115.6020000022254,response,stim_detected,mousedown,166373.70000000298,166371.90000000224,166239.62,166241.70000000298,166256298,166389703,,grey,UT01KI10,26,m,5,2,freier Autor,0,0,0,0,0
Trial,flow.Sequence,2_50_0,2022-06-03T12:51:49.846Z,,,1,AV,1950.2050000022282,completion,,,166374.20000000298,166371.90000000224,164405018,164417.1000000015,164421695,166389703,,grey,UT01KI10,26,m,5,2,freier Autor,0,0,0,0,0
Frame,canvas.Frame,2_50,2022-06-03T12:51:49.846Z,,,1,AV,1952.605000000738,,,,166374.5,166374.30000000075,164405018,164416.20000000298,164421695,166389703,,grey,UT01KI10,26,m,5,2,freier Autor,0,0,0,0,0
Fixation,canvas.Screen,2_51_0_0,2022-06-03T12:51:52.063Z,,,1,A,2217.179999999993,timeout,,,168591.5,168590212,166373026,166375.5,166389703,168606883,,black,UT01KI10,26,m,5,2,freier Autor,0,0,0,0,0
Stimulus,canvas.Screen,2_51_0_1,2022-06-03T12:51:52.164Z,,,1,A,101.07300000000396,timeout,,,168692.5,168691278,168590212,168591.80000000075,168606883,168707956,,black,UT01KI10,26,m,5,2,freier Autor,0,0,0,0,0
Reaction,canvas.Screen,2_51_0_2,2022-06-03T12:51:52.483Z,,,1,A,301.74400000297464,response,stim_detected,mousedown,169011.20000000298,169009.70000000298,168691278,168692.80000000075,168707956,169024734,,black,UT01KI10,26,m,5,2,freier Autor,0,0,0,0,0
Trial,flow.Sequence,2_51_0,2022-06-03T12:51:52.483Z,,,1,A,2619.9970000029716,completion,,,169011.5,169009.70000000298,166373026,166375.40000000224,166389703,169024734,,black,UT01KI10,26,m,5,2,freier Autor,0,0,0,0,0
Frame,canvas.Frame,2_51,2022-06-03T12:51:52.483Z,,,1,A,2621.9970000029716,,,,169011.90000000224,169011.70000000298,166373026,166374.6000000015,166389703,169024734,,black,UT01KI10,26,m,5,2,freier Autor,0,0,0,0,0
Fixation,canvas.Screen,2_52_0_0,2022-06-03T12:51:54.216Z,,,1,AV,1735.018000000011,timeout,,,170744.5,170743.07,169008057,169012.90000000224,169024734,170759752,,grey,UT01KI10,26,m,5,2,freier Autor,0,0,0,0,0
Stimulus,canvas.Screen,2_52_0_1,2022-06-03T12:51:54.315Z,,,1,AV,99.56999999997788,timeout,,,170843.80000000075,170842645,170743.07,170744.80000000075,170759752,170859322,,grey,UT01KI10,26,m,5,2,freier Autor,0,0,0,0,0
Reaction,canvas.Screen,2_52_0_2,2022-06-03T12:51:54.465Z,,,1,AV,132.4780000007595,response,stim_detected,mousedown,170993.70000000298,170991.80000000075,170842645,170844.1000000015,170859322,171009402,,grey,UT01KI10,26,m,5,2,freier Autor,0,0,0,0,0
Trial,flow.Sequence,2_52_0,2022-06-03T12:51:54.466Z,,,1,AV,1967.0660000007483,completion,,,170994.1000000015,170991.80000000075,169008057,169012.80000000075,169024734,171009402,,grey,UT01KI10,26,m,5,2,freier Autor,0,0,0,0,0
Frame,canvas.Frame,2_52,2022-06-03T12:51:54.466Z,,,1,AV,1969.4660000029835,,,,170994.30000000075,170994.20000000298,169008057,169012.1000000015,169024734,171009402,,grey,UT01KI10,26,m,5,2,freier Autor,0,0,0,0,0
Fixation,canvas.Screen,2_53_0_0,2022-06-03T12:51:56.183Z,,,1,A,1717.8470000000088,timeout,,,172711.6000000015,172710571,170992725,170995.5,171009402,172727249,,black,UT01KI10,26,m,5,2,freier Autor,0,0,0,0,0
Stimulus,canvas.Screen,2_53_0_1,2022-06-03T12:51:56.283Z,,,1,A,99.83699999999953,timeout,,,172811.6000000015,172810.41,172710571,172712.1000000015,172727249,172827086,,black,UT01KI10,26,m,5,2,freier Autor,0,0,0,0,0
Reaction,canvas.Screen,2_53_0_2,2022-06-03T12:51:56.588Z,,,1,A,287.7140000007348,response,stim_detected,mousedown,173116.30000000075,173114.80000000075,172810.41,172811.80000000075,172827086,173127458,,black,UT01KI10,26,m,5,2,freier Autor,0,0,0,0,0
Trial,flow.Sequence,2_53_0,2022-06-03T12:51:56.588Z,,,1,A,2105.398000000743,completion,,,173116.70000000298,173114.80000000075,170992725,170995.40000000224,171009402,173127458,,black,UT01KI10,26,m,5,2,freier Autor,0,0,0,0,0
Frame,canvas.Frame,2_53,2022-06-03T12:51:56.588Z,,,1,A,2107.398000000743,,,,173117,173116.80000000075,170992725,170994.5,171009402,173127458,,black,UT01KI10,26,m,5,2,freier Autor,0,0,0,0,0
Fixation,canvas.Screen,2_54_0_0,2022-06-03T12:51:58.167Z,,,0,V,1583.8669999999984,timeout,,,174695.70000000298,174694652,173110781,173118,173127458,174711325,,grey,UT01KI10,26,m,5,2,freier Autor,0,0,0,0,0
Stimulus,canvas.Screen,2_54_0_1,2022-06-03T12:51:58.268Z,,,0,V,100.53299999999581,timeout,,,174797,174795181,174694652,174696,174711325,174811858,,grey,UT01KI10,26,m,5,2,freier Autor,0,0,0,0,0
Reaction,canvas.Screen,2_54_0_2,2022-06-03T12:51:58.434Z,,,0,V,148.84200000297278,response,stim_detected,mousedown,174962.20000000298,174960.70000000298,174795181,174797.20000000298,174811858,174978679,,grey,UT01KI10,26,m,5,2,freier Autor,0,0,0,0,0
Trial,flow.Sequence,2_54_0,2022-06-03T12:51:58.434Z,,,0,V,1833.242000002967,completion,,,174962.5,174960.70000000298,173110781,173117.90000000224,173127458,174978679,,grey,UT01KI10,26,m,5,2,freier Autor,0,0,0,0,0
Frame,canvas.Frame,2_54,2022-06-03T12:51:58.434Z,,,0,V,1835.1420000014768,,,,174962.80000000075,174962.6000000015,173110781,173117.20000000298,173127458,174978679,,grey,UT01KI10,26,m,5,2,freier Autor,0,0,0,0,0
Fixation,canvas.Screen,2_55_0_0,2022-06-03T12:52:00.269Z,,,1,AV,1834.5950000000012,timeout,,,176797.80000000075,176796596,174962002,174963.90000000224,174978679,176813274,,grey,UT01KI10,26,m,5,2,freier Autor,0,0,0,0,0
Stimulus,canvas.Screen,2_55_0_1,2022-06-03T12:52:00.369Z,,,1,AV,99.44599999999627,timeout,,,176897.80000000075,176896047,176796596,176798.1000000015,176813274,176912.72,,grey,UT01KI10,26,m,5,2,freier Autor,0,0,0,0,0
Reaction,canvas.Screen,2_55_0_2,2022-06-03T12:52:00.587Z,,,1,AV,201.77999999999884,response,stim_detected,mousedown,177116,177114.5,176896047,176898,176912.72,177130089,,grey,UT01KI10,26,m,5,2,freier Autor,0,0,0,0,0
Trial,flow.Sequence,2_55_0,2022-06-03T12:52:00.588Z,,,1,AV,2135.8209999999963,completion,,,177116.30000000075,177114.5,174962002,174963.70000000298,174978679,177130089,,grey,UT01KI10,26,m,5,2,freier Autor,0,0,0,0,0
Frame,canvas.Frame,2_55,2022-06-03T12:52:00.588Z,,,1,AV,2137.8209999999963,,,,177116.70000000298,177116.5,174962002,174963,174978679,177130089,,grey,UT01KI10,26,m,5,2,freier Autor,0,0,0,0,0
Fixation,canvas.Screen,2_56_0_0,2022-06-03T12:52:02.320Z,,,1,AV,1734.173999999999,timeout,,,178848.90000000224,178847588,177113412,177117.70000000298,177130089,178864263,,grey,UT01KI10,26,m,5,2,freier Autor,0,0,0,0,0
Stimulus,canvas.Screen,2_56_0_1,2022-06-03T12:52:02.420Z,,,1,AV,100.36799999998766,timeout,,,178948.80000000075,178947703,178847588,178849.1000000015,178864263,178964631,,grey,UT01KI10,26,m,5,2,freier Autor,0,0,0,0,0
Reaction,canvas.Screen,2_56_0_2,2022-06-03T12:52:02.580Z,,,1,AV,141.96900000149617,response,stim_detected,mousedown,179108,179106.6000000015,178947703,178949.1000000015,178964631,179114724,,grey,UT01KI10,26,m,5,2,freier Autor,0,0,0,0,0
Trial,flow.Sequence,2_56_0,2022-06-03T12:52:02.580Z,,,1,AV,1976.511000001483,completion,,,179108.30000000075,179106.6000000015,177113412,177117.6000000015,177130089,179114724,,grey,UT01KI10,26,m,5,2,freier Autor,0,0,0,0,0
Frame,canvas.Frame,2_56,2022-06-03T12:52:02.580Z,,,1,AV,1978.4109999999928,,,,179108.6000000015,179108.5,177113412,177116.90000000224,177130089,179114724,,grey,UT01KI10,26,m,5,2,freier Autor,0,0,0,0,0
Fixation,canvas.Screen,2_57_0_0,2022-06-03T12:52:04.438Z,,,1,AV,1867.8270000000193,timeout,,,180966.90000000224,180965874,179098047,179109.6000000015,179114724,180982551,,grey,UT01KI10,26,m,5,2,freier Autor,0,0,0,0,0
Stimulus,canvas.Screen,2_57_0_1,2022-06-03T12:52:04.538Z,,,1,AV,99.99099999997998,timeout,,,181066.90000000224,181065866,180965874,180967.20000000298,180982551,181082542,,grey,UT01KI10,26,m,5,2,freier Autor,0,0,0,0,0
Reaction,canvas.Screen,2_57_0_2,2022-06-03T12:52:04.687Z,,,1,AV,131.95800000001327,response,stim_detected,mousedown,181216,181214.5,181065866,181067.20000000298,181082542,181232793,,grey,UT01KI10,26,m,5,2,freier Autor,0,0,0,0,0
Trial,flow.Sequence,2_57_0,2022-06-03T12:52:04.688Z,,,1,AV,2099.7760000000126,completion,,,181216.40000000224,181214.5,179098047,179109.6000000015,179114724,181232793,,grey,UT01KI10,26,m,5,2,freier Autor,0,0,0,0,0
Frame,canvas.Frame,2_57,2022-06-03T12:52:04.688Z,,,1,AV,2101.7760000000126,,,,181216.70000000298,181216.5,179098047,179108.80000000075,179114724,181232793,,grey,UT01KI10,26,m,5,2,freier Autor,0,0,0,0,0
Fixation,canvas.Screen,2_58_0_0,2022-06-03T12:52:06.459Z,,,0,V,1767.2900000000081,timeout,,,182984.90000000224,182983.41,181216116,181217.70000000298,181232793,183000083,,grey,UT01KI10,26,m,5,2,freier Autor,0,0,0,0,0
Stimulus,canvas.Screen,2_58_0_1,2022-06-03T12:52:06.559Z,,,0,V,100.34399999998277,timeout,,,183085,183083752,182983.41,182985.20000000298,183000083,183100427,,grey,UT01KI10,26,m,5,2,freier Autor,0,0,0,0,0
Reaction,canvas.Screen,2_58_0_2,2022-06-03T12:52:06.754Z,,,0,V,178.07300000000396,response,stim_detected,mousedown,183280,183278.5,183083752,183085.20000000298,183100427,183300802,,grey,UT01KI10,26,m,5,2,freier Autor,0,0,0,0,0
Trial,flow.Sequence,2_58_0,2022-06-03T12:52:06.754Z,,,0,V,2045.7069999999949,completion,,,183280.30000000075,183278.5,181216116,181217.6000000015,181232793,183300802,,grey,UT01KI10,26,m,5,2,freier Autor,0,0,0,0,0
Frame,canvas.Frame,2_58,2022-06-03T12:52:06.754Z,,,0,V,2047.7069999999949,,,,183280.70000000298,183280.5,181216116,181216.80000000075,181232793,183300802,,grey,UT01KI10,26,m,5,2,freier Autor,0,0,0,0,0
Fixation,canvas.Screen,2_59_0_0,2022-06-03T12:52:09.193Z,,,0,V,2433.8820000000123,timeout,,,185719.20000000298,185718013,183267448,183281.70000000298,183300802,185734684,,grey,UT01KI10,26,m,5,2,freier Autor,0,0,0,0,0
Stimulus,canvas.Screen,2_59_0_1,2022-06-03T12:52:09.294Z,,,0,V,100.76499999998487,timeout,,,185820.1000000015,185818774,185718013,185719.5,185734684,185835449,,grey,UT01KI10,26,m,5,2,freier Autor,0,0,0,0,0
Reaction,canvas.Screen,2_59_0_2,2022-06-03T12:52:09.474Z,,,0,V,163.05100000000675,response,stim_detected,mousedown,186000,185998.5,185818774,185820.5,185835449,186002565,,grey,UT01KI10,26,m,5,2,freier Autor,0,0,0,0,0
Trial,flow.Sequence,2_59_0,2022-06-03T12:52:09.474Z,,,0,V,2697.698000000004,completion,,,186000.40000000224,185998.5,183267448,183281.5,183300802,186002565,,grey,UT01KI10,26,m,5,2,freier Autor,0,0,0,0,0
Frame,canvas.Frame,2_59,2022-06-03T12:52:09.474Z,,,0,V,2699.698000000004,,,,186000.6000000015,186000.5,183267448,183280.80000000075,183300802,186002565,,grey,UT01KI10,26,m,5,2,freier Autor,0,0,0,0,0
Fixation,canvas.Screen,2_60_0_0,2022-06-03T12:52:11.912Z,,,0,V,2451.198000000004,timeout,,,188438.40000000224,188437088,185985888,186001.6000000015,186002565,188453763,,grey,UT01KI10,26,m,5,2,freier Autor,0,0,0,0,0
Stimulus,canvas.Screen,2_60_0_1,2022-06-03T12:52:12.013Z,,,0,V,100.58799999998882,timeout,,,188539.20000000298,188537672,188437088,188438.6000000015,188453763,188554351,,grey,UT01KI10,26,m,5,2,freier Autor,0,0,0,0,0
Reaction,canvas.Screen,2_60_0_2,2022-06-03T12:52:12.162Z,,,0,V,132.04900000224006,response,stim_detected,mousedown,188687.90000000224,188686.40000000224,188537672,188539.40000000224,188554351,188704341,,grey,UT01KI10,26,m,5,2,freier Autor,0,0,0,0,0
Trial,flow.Sequence,2_60_0,2022-06-03T12:52:12.162Z,,,0,V,2683.835000002233,completion,,,188688.20000000298,188686.40000000224,185985888,186001.6000000015,186002565,188704341,,grey,UT01KI10,26,m,5,2,freier Autor,0,0,0,0,0
Frame,canvas.Frame,2_60,2022-06-03T12:52:12.162Z,,,0,V,2685.7350000007427,,,,188688.5,188688.30000000075,185985888,186000.80000000075,186002565,188704341,,grey,UT01KI10,26,m,5,2,freier Autor,0,0,0,0,0
Fixation,canvas.Screen,2_61_0_0,2022-06-03T12:52:14.364Z,,,1,AV,2201.5170000000217,timeout,,,190890.30000000075,190889.18,188687664,188689.5,188704341,190905858,,grey,UT01KI10,26,m,5,2,freier Autor,0,0,0,0,0
Stimulus,canvas.Screen,2_61_0_1,2022-06-03T12:52:14.464Z,,,1,AV,99.77700000000186,timeout,,,190990.20000000298,190988959,190889.18,190890.6000000015,190905858,191005635,,grey,UT01KI10,26,m,5,2,freier Autor,0,0,0,0,0
Reaction,canvas.Screen,2_61_0_2,2022-06-03T12:52:14.589Z,,,1,AV,107.56500000297092,response,stim_detected,mousedown,191114.90000000224,191113.20000000298,190988959,190990.5,191005635,191122598,,grey,UT01KI10,26,m,5,2,freier Autor,0,0,0,0,0
Trial,flow.Sequence,2_61_0,2022-06-03T12:52:14.589Z,,,1,AV,2408.8590000029944,completion,,,191115.40000000224,191113.20000000298,188687664,188689.40000000224,188704341,191122598,,grey,UT01KI10,26,m,5,2,freier Autor,0,0,0,0,0
Frame,canvas.Frame,2_61,2022-06-03T12:52:14.590Z,,,1,AV,2411.2590000015043,,,,191115.80000000075,191115.6000000015,188687664,188688.70000000298,188704341,191122598,,grey,UT01KI10,26,m,5,2,freier Autor,0,0,0,0,0
Fixation,canvas.Screen,2_62_0_0,2022-06-03T12:52:16.365Z,,,1,A,1784.3209999999963,timeout,,,192891.5,192890243,191105921,191116.90000000224,191122598,192906919,,black,UT01KI10,26,m,5,2,freier Autor,0,0,0,0,0
Stimulus,canvas.Screen,2_62_0_1,2022-06-03T12:52:16.465Z,,,1,A,99.7039999999979,timeout,,,192991.30000000075,192989.95,192890243,192892,192906919,193006623,,black,UT01KI10,26,m,5,2,freier Autor,0,0,0,0,0
Reaction,canvas.Screen,2_62_0_2,2022-06-03T12:52:16.697Z,,,1,A,214.77700000224286,response,stim_detected,mousedown,193223.5,193221.40000000224,192989.95,192991.6000000015,193006623,193240658,,black,UT01KI10,26,m,5,2,freier Autor,0,0,0,0,0
Trial,flow.Sequence,2_62_0,2022-06-03T12:52:16.698Z,,,1,A,2098.802000002237,completion,,,193223.90000000224,193221.40000000224,191105921,191116.90000000224,191122598,193240658,,black,UT01KI10,26,m,5,2,freier Autor,0,0,0,0,0
Frame,canvas.Frame,2_62,2022-06-03T12:52:16.698Z,,,1,A,2101.402000000002,,,,193224.20000000298,193224,191105921,191115.90000000224,191122598,193240658,,black,UT01KI10,26,m,5,2,freier Autor,0,0,0,0,0
Fixation,canvas.Screen,2_63_0_0,2022-06-03T12:52:18.983Z,,,1,A,2283.8300000000163,timeout,,,195509.70000000298,195507817,193223981,193225.40000000224,193240658,195524488,,black,UT01KI10,26,m,5,2,freier Autor,0,0,0,0,0
Stimulus,canvas.Screen,2_63_0_1,2022-06-03T12:52:19.084Z,,,1,A,101.06699999998091,timeout,,,195610.6000000015,195608876,195507817,195510,195524488,195625555,,black,UT01KI10,26,m,5,2,freier Autor,0,0,0,0,0
Reaction,canvas.Screen,2_63_0_2,2022-06-03T12:52:19.420Z,,,1,A,319.74500000075204,response,stim_detected,mousedown,195946.70000000298,195945.30000000075,195608876,195610.90000000224,195625555,195959034,,black,UT01KI10,26,m,5,2,freier Autor,0,0,0,0,0
Trial,flow.Sequence,2_63_0,2022-06-03T12:52:19.421Z,,,1,A,2704.6420000007492,completion,,,195947.1000000015,195945.30000000075,193223981,193225.30000000075,193240658,195959034,,black,UT01KI10,26,m,5,2,freier Autor,0,0,0,0,0
Frame,canvas.Frame,2_63,2022-06-03T12:52:19.421Z,,,1,A,2706.6420000007492,,,,195947.5,195947.30000000075,193223981,193224.40000000224,193240658,195959034,,black,UT01KI10,26,m,5,2,freier Autor,0,0,0,0,0
Fixation,canvas.Screen,2_64_0_0,2022-06-03T12:52:20.986Z,,,1,A,1568.7119999999995,timeout,,,197512.6000000015,197511059,195942358,195949,195959034,197527746,,black,UT01KI10,26,m,5,2,freier Autor,0,0,0,0,0
Stimulus,canvas.Screen,2_64_0_1,2022-06-03T12:52:21.086Z,,,1,A,99.00099999998929,timeout,,,197611.80000000075,197610071,197511059,197512.90000000224,197527746,197626747,,black,UT01KI10,26,m,5,2,freier Autor,0,0,0,0,0
Reaction,canvas.Screen,2_64_0_2,2022-06-03T12:52:21.407Z,,,1,A,304.9530000029772,response,stim_detected,mousedown,197933.6000000015,197931.70000000298,197610071,197612,197626747,197943724,,black,UT01KI10,26,m,5,2,freier Autor,0,0,0,0,0
Trial,flow.Sequence,2_64_0,2022-06-03T12:52:21.408Z,,,1,A,1972.666000002966,completion,,,197934.1000000015,197931.70000000298,195942358,195948.90000000224,195959034,197943724,,black,UT01KI10,26,m,5,2,freier Autor,0,0,0,0,0
Frame,canvas.Frame,2_64,2022-06-03T12:52:21.408Z,,,1,A,1975.166000002966,,,,197934.40000000224,197934.20000000298,195942358,195947.80000000075,195959034,197943724,,black,UT01KI10,26,m,5,2,freier Autor,0,0,0,0,0
Fixation,canvas.Screen,2_65_0_0,2022-06-03T12:52:23.470Z,,,1,A,2068.0990000000165,timeout,,,199996.70000000298,199995145,197927047,197935.40000000224,197943724,200011823,,black,UT01KI10,26,m,5,2,freier Autor,0,0,0,0,0
Stimulus,canvas.Screen,2_65_0_1,2022-06-03T12:52:23.571Z,,,1,A,99.90099999998347,timeout,,,200096.90000000224,200095048,199995145,199996.90000000224,200011823,200111724,,black,UT01KI10,26,m,5,2,freier Autor,0,0,0,0,0
Reaction,canvas.Screen,2_65_0_2,2022-06-03T12:52:23.807Z,,,1,A,220.3760000015027,response,stim_detected,mousedown,200333.70000000298,200332.1000000015,200095048,200097.1000000015,200111724,200345308,,black,UT01KI10,26,m,5,2,freier Autor,0,0,0,0,0
Trial,flow.Sequence,2_65_0,2022-06-03T12:52:23.808Z,,,1,A,2388.3760000015027,completion,,,200334.1000000015,200332.1000000015,197927047,197935.20000000298,197943724,200345308,,black,UT01KI10,26,m,5,2,freier Autor,0,0,0,0,0
Frame,canvas.Frame,2_65,2022-06-03T12:52:23.808Z,,,1,A,2390.476000002993,,,,200334.40000000224,200334.20000000298,197927047,197934.5,197943724,200345308,,black,UT01KI10,26,m,5,2,freier Autor,0,0,0,0,0
Fixation,canvas.Screen,2_66_0_0,2022-06-03T12:52:25.937Z,,,0,V,2133.9370000000054,timeout,,,202463.70000000298,202462573,200328631,200335.5,200345308,202479245,,grey,UT01KI10,26,m,5,2,freier Autor,0,0,0,0,0
Stimulus,canvas.Screen,2_66_0_1,2022-06-03T12:52:26.039Z,,,0,V,100.95999999999185,timeout,,,202565,202563526,202462573,202463.90000000224,202479245,202580205,,grey,UT01KI10,26,m,5,2,freier Autor,0,0,0,0,0
Reaction,canvas.Screen,2_66_0_2,2022-06-03T12:52:26.214Z,,,0,V,158.89500000150292,response,stim_detected,mousedown,202740.5,202739.1000000015,202563526,202565.1000000015,202580205,202746835,,grey,UT01KI10,26,m,5,2,freier Autor,0,0,0,0,0
Trial,flow.Sequence,2_66_0,2022-06-03T12:52:26.215Z,,,0,V,2393.7920000015,completion,,,202741,202739.1000000015,200328631,200335.40000000224,200345308,202746835,,grey,UT01KI10,26,m,5,2,freier Autor,0,0,0,0,0
Frame,canvas.Frame,2_66,2022-06-03T12:52:26.215Z,,,0,V,2395.7920000015,,,,202741.40000000224,202741.1000000015,200328631,200334.6000000015,200345308,202746835,,grey,UT01KI10,26,m,5,2,freier Autor,0,0,0,0,0
Fixation,canvas.Screen,2_67_0_0,2022-06-03T12:52:28.693Z,,,0,V,2487.5990000000165,timeout,,,205218.80000000075,205217739,202730159,202742.6000000015,202746835,205234434,,grey,UT01KI10,26,m,5,2,freier Autor,0,0,0,0,0
Stimulus,canvas.Screen,2_67_0_1,2022-06-03T12:52:28.790Z,,,0,V,96.78699999998207,timeout,,,205315.80000000075,205314548,205217739,205219.1000000015,205234434,205331221,,grey,UT01KI10,26,m,5,2,freier Autor,0,0,0,0,0
Reaction,canvas.Screen,2_67_0_2,2022-06-03T12:52:28.930Z,,,0,V,123.77900000000955,response,stim_detected,mousedown,205456.40000000224,205455,205314548,205316.1000000015,205331221,205465.32,,grey,UT01KI10,26,m,5,2,freier Autor,0,0,0,0,0
Trial,flow.Sequence,2_67_0,2022-06-03T12:52:28.931Z,,,0,V,2708.165000000008,completion,,,205456.80000000075,205455,202730159,202742.40000000224,202746835,205465.32,,grey,UT01KI10,26,m,5,2,freier Autor,0,0,0,0,0
Frame,canvas.Frame,2_67,2022-06-03T12:52:28.931Z,,,0,V,2710.165000000008,,,,205457.20000000298,205457,202730159,202741.5,202746835,205465.32,,grey,UT01KI10,26,m,5,2,freier Autor,0,0,0,0,0
Fixation,canvas.Screen,2_68_0_0,2022-06-03T12:52:31.160Z,,,1,AV,2235.5969999999797,timeout,,,207685.80000000075,207684234,205448643,205458.20000000298,205465.32,207700917,,grey,UT01KI10,26,m,5,2,freier Autor,0,0,0,0,0
Stimulus,canvas.Screen,2_68_0_1,2022-06-03T12:52:31.259Z,,,1,AV,99.13000000000466,timeout,,,207784.90000000224,207783371,207684234,207686,207700917,207800047,,grey,UT01KI10,26,m,5,2,freier Autor,0,0,0,0,0
Reaction,canvas.Screen,2_68_0_2,2022-06-03T12:52:31.370Z,,,1,AV,94.95300000000861,response,stim_detected,mousedown,207896.40000000224,207895,207783371,207785.20000000298,207800047,207900262,,grey,UT01KI10,26,m,5,2,freier Autor,0,0,0,0,0
Trial,flow.Sequence,2_68_0,2022-06-03T12:52:31.371Z,,,1,AV,2429.679999999993,completion,,,207896.80000000075,207895,205448643,205458.1000000015,205465.32,207900262,,grey,UT01KI10,26,m,5,2,freier Autor,0,0,0,0,0
Frame,canvas.Frame,2_68,2022-06-03T12:52:31.371Z,,,1,AV,2431.679999999993,,,,207897.20000000298,207897,205448643,205457.30000000075,205465.32,207900262,,grey,UT01KI10,26,m,5,2,freier Autor,0,0,0,0,0
Fixation,canvas.Screen,2_69_0_0,2022-06-03T12:52:32.894Z,,,1,A,1534.6940000000177,timeout,,,209419.90000000224,209418275,207883585,207898.20000000298,207900262,209434956,,black,UT01KI10,26,m,5,2,freier Autor,0,0,0,0,0
Stimulus,canvas.Screen,2_69_0_1,2022-06-03T12:52:32.993Z,,,1,A,99.43599999998696,timeout,,,209519,209517718,209418275,209420.1000000015,209434956,209534392,,black,UT01KI10,26,m,5,2,freier Autor,0,0,0,0,0
Reaction,canvas.Screen,2_69_0_2,2022-06-03T12:52:33.182Z,,,1,A,171.60800000000745,response,stim_detected,mousedown,209708.1000000015,209706,209517718,209519.30000000075,209534392,209718094,,black,UT01KI10,26,m,5,2,freier Autor,0,0,0,0,0
Trial,flow.Sequence,2_69_0,2022-06-03T12:52:33.182Z,,,1,A,1805.738000000012,completion,,,209708.6000000015,209706,207883585,207898.1000000015,207900262,209718094,,black,UT01KI10,26,m,5,2,freier Autor,0,0,0,0,0
Frame,canvas.Frame,2_69,2022-06-03T12:52:33.183Z,,,1,A,1808.4380000029923,,,,209709,209708.70000000298,207883585,207897.30000000075,207900262,209718094,,black,UT01KI10,26,m,5,2,freier Autor,0,0,0,0,0
Fixation,canvas.Screen,2_70_0_0,2022-06-03T12:52:34.829Z,,,1,A,1651.941999999981,timeout,,,211355,211353351,209701417,209710,209718094,211370036,,black,UT01KI10,26,m,5,2,freier Autor,0,0,0,0,0
Stimulus,canvas.Screen,2_70_0_1,2022-06-03T12:52:34.928Z,,,1,A,98.88800000000629,timeout,,,211453.80000000075,211452.25,211353351,211355.30000000075,211370036,211468924,,black,UT01KI10,26,m,5,2,freier Autor,0,0,0,0,0
Reaction,canvas.Screen,2_70_0_2,2022-06-03T12:52:35.073Z,,,1,A,128.9760000022361,response,stim_detected,mousedown,211599.40000000224,211597.90000000224,211452.25,211454.1000000015,211468924,211602678,,black,UT01KI10,26,m,5,2,freier Autor,0,0,0,0,0
Trial,flow.Sequence,2_70_0,2022-06-03T12:52:35.074Z,,,1,A,1879.8060000022233,completion,,,211599.80000000075,211597.90000000224,209701417,209709.90000000224,209718094,211602678,,black,UT01KI10,26,m,5,2,freier Autor,0,0,0,0,0
Frame,canvas.Frame,2_70,2022-06-03T12:52:35.074Z,,,1,A,1881.9059999999881,,,,211600.1000000015,211600,209701417,209709.1000000015,209718094,211602678,,black,UT01KI10,26,m,5,2,freier Autor,0,0,0,0,0
Fixation,canvas.Screen,2_71_0_0,2022-06-03T12:52:36.980Z,,,1,AV,1918.6229999999923,timeout,,,213506.1000000015,213504618,211586001,211601.20000000298,211602678,213521301,,grey,UT01KI10,26,m,5,2,freier Autor,0,0,0,0,0
Stimulus,canvas.Screen,2_71_0_1,2022-06-03T12:52:37.079Z,,,1,AV,99.25899999999092,timeout,,,213605,213603884,213504618,213506.40000000224,213521301,213620.56,,grey,UT01KI10,26,m,5,2,freier Autor,0,0,0,0,0
Reaction,canvas.Screen,2_71_0_2,2022-06-03T12:52:37.214Z,,,1,AV,118.3400000022375,response,stim_detected,mousedown,213740.30000000075,213738.90000000224,213603884,213605.30000000075,213620.56,213754107,,grey,UT01KI10,26,m,5,2,freier Autor,0,0,0,0,0
Trial,flow.Sequence,2_71_0,2022-06-03T12:52:37.214Z,,,1,AV,2136.2220000022207,completion,,,213740.70000000298,213738.90000000224,211586001,211601.1000000015,211602678,213754107,,grey,UT01KI10,26,m,5,2,freier Autor,0,0,0,0,0
Frame,canvas.Frame,2_71,2022-06-03T12:52:37.215Z,,,1,AV,2138.1220000007306,,,,213741.1000000015,213740.80000000075,211586001,211600.30000000075,211602678,213754107,,grey,UT01KI10,26,m,5,2,freier Autor,0,0,0,0,0
Fixation,canvas.Screen,2_72_0_0,2022-06-03T12:52:39.681Z,,,0,V,2468.207000000024,timeout,,,216207.40000000224,216205637,213737.43,213742.1000000015,213754107,216222314,,grey,UT01KI10,26,m,5,2,freier Autor,0,0,0,0,0
Stimulus,canvas.Screen,2_72_0_1,2022-06-03T12:52:39.781Z,,,0,V,100.23299999997835,timeout,,,216307.30000000075,216305868,216205637,216207.6000000015,216222314,216322547,,grey,UT01KI10,26,m,5,2,freier Autor,0,0,0,0,0
Reaction,canvas.Screen,2_72_0_2,2022-06-03T12:52:39.921Z,,,0,V,123.45300000000861,response,stim_detected,mousedown,216447.5,216446,216305868,216307.6000000015,216322547,216455886,,grey,UT01KI10,26,m,5,2,freier Autor,0,0,0,0,0
Trial,flow.Sequence,2_72_0,2022-06-03T12:52:39.922Z,,,0,V,2691.893000000011,completion,,,216447.90000000224,216446,213737.43,213742,213754107,216455886,,grey,UT01KI10,26,m,5,2,freier Autor,0,0,0,0,0
Frame,canvas.Frame,2_72,2022-06-03T12:52:39.922Z,,,0,V,2693.893000000011,,,,216448.30000000075,216448,213737.43,213741.20000000298,213754107,216455886,,grey,UT01KI10,26,m,5,2,freier Autor,0,0,0,0,0
Fixation,canvas.Screen,2_73_0_0,2022-06-03T12:52:41.715Z,,,1,A,1801.1270000000077,timeout,,,218241.40000000224,218240336,216439209,216449.40000000224,216455886,218257013,,black,UT01KI10,26,m,5,2,freier Autor,0,0,0,0,0
Stimulus,canvas.Screen,2_73_0_1,2022-06-03T12:52:41.815Z,,,1,A,100.10899999999674,timeout,,,218341.40000000224,218340377,218240336,218241.80000000075,218257013,218357122,,black,UT01KI10,26,m,5,2,freier Autor,0,0,0,0,0
Reaction,canvas.Screen,2_73_0_2,2022-06-03T12:52:42.020Z,,,1,A,187.5780000029772,response,stim_detected,mousedown,218546.40000000224,218544.70000000298,218340377,218341.70000000298,218357122,218557246,,black,UT01KI10,26,m,5,2,freier Autor,0,0,0,0,0
Trial,flow.Sequence,2_73_0,2022-06-03T12:52:42.021Z,,,1,A,2088.8140000029816,completion,,,218546.90000000224,218544.70000000298,216439209,216449.20000000298,216455886,218557246,,black,UT01KI10,26,m,5,2,freier Autor,0,0,0,0,0
Frame,canvas.Frame,2_73,2022-06-03T12:52:42.021Z,,,1,A,2091.1140000000014,,,,218547.20000000298,218547,216439209,216448.5,216455886,218557246,,black,UT01KI10,26,m,5,2,freier Autor,0,0,0,0,0
Fixation,canvas.Screen,2_74_0_0,2022-06-03T12:52:43.951Z,,,0,V,1934.93299999999,timeout,,,220477.40000000224,220475499,218540569,218548.30000000075,218557246,220492179,,grey,UT01KI10,26,m,5,2,freier Autor,0,0,0,0,0
Stimulus,canvas.Screen,2_74_0_1,2022-06-03T12:52:44.050Z,,,0,V,99.8299999999872,timeout,,,220576.30000000075,220575331,220475499,220477.70000000298,220492179,220592009,,grey,UT01KI10,26,m,5,2,freier Autor,0,0,0,0,0
Reaction,canvas.Screen,2_74_0_2,2022-06-03T12:52:44.199Z,,,0,V,131.6910000029893,response,stim_detected,mousedown,220725.20000000298,220723.70000000298,220575331,220576.5,220592009,220742053,,grey,UT01KI10,26,m,5,2,freier Autor,0,0,0,0,0
Trial,flow.Sequence,2_74_0,2022-06-03T12:52:44.199Z,,,0,V,2166.4540000029665,completion,,,220725.6000000015,220723.70000000298,218540569,218548.20000000298,218557246,220742053,,grey,UT01KI10,26,m,5,2,freier Autor,0,0,0,0,0
Frame,canvas.Frame,2_74,2022-06-03T12:52:44.200Z,,,0,V,2168.5540000007313,,,,220725.90000000224,220725.80000000075,218540569,218547.40000000224,218557246,220742053,,grey,UT01KI10,26,m,5,2,freier Autor,0,0,0,0,0
Fixation,canvas.Screen,2_75_0_0,2022-06-03T12:52:45.934Z,,,0,V,1733.8219999999856,timeout,,,222460.40000000224,222459203,220725376,220727.1000000015,220742053,222475875,,grey,UT01KI10,26,m,5,2,freier Autor,0,0,0,0,0
Stimulus,canvas.Screen,2_75_0_1,2022-06-03T12:52:46.035Z,,,0,V,100.7840000000142,timeout,,,222561.40000000224,222559.98,222459203,222460.70000000298,222475875,222576659,,grey,UT01KI10,26,m,5,2,freier Autor,0,0,0,0,0
Reaction,canvas.Screen,2_75_0_2,2022-06-03T12:52:46.194Z,,,0,V,142.04100000296603,response,stim_detected,mousedown,222720.1000000015,222718.70000000298,222559.98,222562.70000000298,222576659,222726618,,grey,UT01KI10,26,m,5,2,freier Autor,0,0,0,0,0
Trial,flow.Sequence,2_75_0,2022-06-03T12:52:46.194Z,,,0,V,1976.6470000029658,completion,,,222720.40000000224,222718.70000000298,220725376,220726.90000000224,220742053,222726618,,grey,UT01KI10,26,m,5,2,freier Autor,0,0,0,0,0
Frame,canvas.Frame,2_75,2022-06-03T12:52:46.195Z,,,0,V,1978.5470000014757,,,,222720.80000000075,222720.6000000015,220725376,220726.1000000015,220742053,222726618,,grey,UT01KI10,26,m,5,2,freier Autor,0,0,0,0,0
Fixation,canvas.Screen,2_76_0_0,2022-06-03T12:52:47.703Z,,,1,A,1518.5440000000235,timeout,,,224229.40000000224,224228476,222709942,222721.90000000224,222726618,224245162,,black,UT01KI10,26,m,5,2,freier Autor,0,0,0,0,0
Stimulus,canvas.Screen,2_76_0_1,2022-06-03T12:52:47.802Z,,,1,A,98.99399999997695,timeout,,,224328.70000000298,224327481,224228476,224229.70000000298,224245162,224344156,,black,UT01KI10,26,m,5,2,freier Autor,0,0,0,0,0
Reaction,canvas.Screen,2_76_0_2,2022-06-03T12:52:48.072Z,,,1,A,251.34400000001187,response,stim_detected,mousedown,224598.40000000224,224595.5,224327481,224328.90000000224,224344156,224611211,,black,UT01KI10,26,m,5,2,freier Autor,0,0,0,0,0
Trial,flow.Sequence,2_76_0,2022-06-03T12:52:48.073Z,,,1,A,1868.8820000000123,completion,,,224598.70000000298,224595.5,222709942,222721.80000000075,222726618,224611211,,black,UT01KI10,26,m,5,2,freier Autor,0,0,0,0,0
Frame,canvas.Frame,2_76,2022-06-03T12:52:48.073Z,,,1,A,1872.1820000007574,,,,224599,224598.80000000075,222709942,222721,222726618,224611211,,black,UT01KI10,26,m,5,2,freier Autor,0,0,0,0,0
Fixation,canvas.Screen,2_77_0_0,2022-06-03T12:52:49.938Z,,,0,V,1868.6449999999895,timeout,,,226464.6000000015,226463172,224594534,224600.5,224611211,226479856,,grey,UT01KI10,26,m,5,2,freier Autor,0,0,0,0,0
Stimulus,canvas.Screen,2_77_0_1,2022-06-03T12:52:50.037Z,,,0,V,99.36900000000605,timeout,,,226563.70000000298,226562548,226463172,226464.80000000075,226479856,226579225,,grey,UT01KI10,26,m,5,2,freier Autor,0,0,0,0,0
Reaction,canvas.Screen,2_77_0_2,2022-06-03T12:52:50.182Z,,,0,V,127.3750000014843,response,stim_detected,mousedown,226708.1000000015,226706.6000000015,226562548,226563.90000000224,226579225,226712605,,grey,UT01KI10,26,m,5,2,freier Autor,0,0,0,0,0
Trial,flow.Sequence,2_77_0,2022-06-03T12:52:50.182Z,,,0,V,2095.38900000148,completion,,,226708.40000000224,226706.6000000015,224594534,224600.40000000224,224611211,226712605,,grey,UT01KI10,26,m,5,2,freier Autor,0,0,0,0,0
Frame,canvas.Frame,2_77,2022-06-03T12:52:50.183Z,,,0,V,2097.38900000148,,,,226708.80000000075,226708.6000000015,224594534,224599.20000000298,224611211,226712605,,grey,UT01KI10,26,m,5,2,freier Autor,0,0,0,0,0
Fixation,canvas.Screen,2_78_0_0,2022-06-03T12:52:52.539Z,,,0,V,2368.142999999982,timeout,,,229065.6000000015,229064071,226695928,226709.90000000224,226712605,229080748,,grey,UT01KI10,26,m,5,2,freier Autor,0,0,0,0,0
Stimulus,canvas.Screen,2_78_0_1,2022-06-03T12:52:52.639Z,,,0,V,100.20100000000093,timeout,,,229165.5,229164271,229064071,229065.90000000224,229080748,229180949,,grey,UT01KI10,26,m,5,2,freier Autor,0,0,0,0,0
Reaction,canvas.Screen,2_78_0_2,2022-06-03T12:52:52.801Z,,,0,V,144.55100000000675,response,stim_detected,mousedown,229327.1000000015,229325.5,229164271,229165.90000000224,229180949,229330932,,grey,UT01KI10,26,m,5,2,freier Autor,0,0,0,0,0
Trial,flow.Sequence,2_78_0,2022-06-03T12:52:52.801Z,,,0,V,2612.8949999999895,completion,,,229327.5,229325.5,226695928,226709.70000000298,226712605,229330932,,grey,UT01KI10,26,m,5,2,freier Autor,0,0,0,0,0
Frame,canvas.Frame,2_78,2022-06-03T12:52:52.802Z,,,0,V,2614.9950000014796,,,,229327.90000000224,229327.6000000015,226695928,226708.90000000224,226712605,229330932,,grey,UT01KI10,26,m,5,2,freier Autor,0,0,0,0,0
Fixation,canvas.Screen,2_79_0_0,2022-06-03T12:52:55.010Z,,,1,A,2220.252999999997,timeout,,,231535.80000000075,231534492,229314256,229329,229330932,231551185,,black,UT01KI10,26,m,5,2,freier Autor,0,0,0,0,0
Stimulus,canvas.Screen,2_79_0_1,2022-06-03T12:52:55.108Z,,,1,A,98.03200000000652,timeout,,,231633.90000000224,231632.54,231534492,231536.1000000015,231551185,231649217,,black,UT01KI10,26,m,5,2,freier Autor,0,0,0,0,0
Reaction,canvas.Screen,2_79_0_2,2022-06-03T12:52:55.374Z,,,1,A,249.18300000223098,response,stim_detected,mousedown,231900,231898.40000000224,231632.54,231634.20000000298,231649217,231916022,,black,UT01KI10,26,m,5,2,freier Autor,0,0,0,0,0
Trial,flow.Sequence,2_79_0,2022-06-03T12:52:55.374Z,,,1,A,2567.4680000022345,completion,,,231900.6000000015,231898.40000000224,229314256,229329,229330932,231916022,,black,UT01KI10,26,m,5,2,freier Autor,0,0,0,0,0
Frame,canvas.Frame,2_79,2022-06-03T12:52:55.375Z,,,1,A,2569.7680000029795,,,,231900.90000000224,231900.70000000298,229314256,229328,229330932,231916022,,black,UT01KI10,26,m,5,2,freier Autor,0,0,0,0,0
Fixation,canvas.Screen,2_80_0_0,2022-06-03T12:52:57.258Z,,,0,V,1883.853999999992,timeout,,,233784.5,233783204,231899345,231901.90000000224,231916022,233799876,,grey,UT01KI10,26,m,5,2,freier Autor,0,0,0,0,0
Stimulus,canvas.Screen,2_80_0_1,2022-06-03T12:52:57.359Z,,,0,V,100.78300000002491,timeout,,,233885.30000000075,233883981,233783204,233784.6000000015,233799876,233900659,,grey,UT01KI10,26,m,5,2,freier Autor,0,0,0,0,0
Reaction,canvas.Screen,2_80_0_2,2022-06-03T12:52:57.512Z,,,0,V,135.74100000222097,response,stim_detected,mousedown,234037.80000000075,234036.40000000224,233883981,233885.30000000075,233900659,234050709,,grey,UT01KI10,26,m,5,2,freier Autor,0,0,0,0,0
Trial,flow.Sequence,2_80_0,2022-06-03T12:52:57.512Z,,,0,V,2120.378000002238,completion,,,234038.20000000298,234036.40000000224,231899345,231901.90000000224,231916022,234050709,,grey,UT01KI10,26,m,5,2,freier Autor,0,0,0,0,0
Frame,canvas.Frame,2_80,2022-06-03T12:52:57.512Z,,,0,V,2122.378000002238,,,,234038.5,234038.40000000224,231899345,231901.1000000015,231916022,234050709,,grey,UT01KI10,26,m,5,2,freier Autor,0,0,0,0,0
Fixation,canvas.Screen,2_81_0_0,2022-06-03T12:52:59.211Z,,,1,A,1701.3099999999977,timeout,,,235736.80000000075,235735.34,234034033,234039.5,234050709,235752019,,black,UT01KI10,26,m,5,2,freier Autor,0,0,0,0,0
Stimulus,canvas.Screen,2_81_0_1,2022-06-03T12:52:59.311Z,,,1,A,100.00399999998626,timeout,,,235836.90000000224,235835343,235735.34,235737.1000000015,235752019,235852023,,black,UT01KI10,26,m,5,2,freier Autor,0,0,0,0,0
Reaction,canvas.Screen,2_81_0_2,2022-06-03T12:52:59.659Z,,,1,A,331.27700000075856,response,stim_detected,mousedown,236184.80000000075,236183.30000000075,235835343,235837.1000000015,235852023,236202157,,black,UT01KI10,26,m,5,2,freier Autor,0,0,0,0,0
Trial,flow.Sequence,2_81_0,2022-06-03T12:52:59.659Z,,,1,A,2132.5910000007425,completion,,,236185.1000000015,236183.30000000075,234034033,234039.40000000224,234050709,236202157,,black,UT01KI10,26,m,5,2,freier Autor,0,0,0,0,0
Frame,canvas.Frame,2_81,2022-06-03T12:52:59.659Z,,,1,A,2134.4910000029777,,,,236185.5,236185.20000000298,234034033,234038.70000000298,234050709,236202157,,black,UT01KI10,26,m,5,2,freier Autor,0,0,0,0,0
Fixation,canvas.Screen,2_82_0_0,2022-06-03T12:53:01.729Z,,,0,V,2068.532999999996,timeout,,,238254.90000000224,238254009,236185.48,236186.70000000298,236202157,238270.69,,grey,UT01KI10,26,m,5,2,freier Autor,0,0,0,0,0
Stimulus,canvas.Screen,2_82_0_1,2022-06-03T12:53:01.829Z,,,0,V,99.4780000000028,timeout,,,238355.1000000015,238353492,238254009,238255.20000000298,238270.69,238370168,,grey,UT01KI10,26,m,5,2,freier Autor,0,0,0,0,0
Reaction,canvas.Screen,2_82_0_2,2022-06-03T12:53:02.006Z,,,0,V,160.13200000073994,response,stim_detected,mousedown,238532,238530.30000000075,238353492,238355.30000000075,238370168,238553697,,grey,UT01KI10,26,m,5,2,freier Autor,0,0,0,0,0
Trial,flow.Sequence,2_82_0,2022-06-03T12:53:02.006Z,,,0,V,2328.1430000007385,completion,,,238532.5,238530.30000000075,236185.48,236186.6000000015,236202157,238553697,,grey,UT01KI10,26,m,5,2,freier Autor,0,0,0,0,0
Frame,canvas.Frame,2_82,2022-06-03T12:53:02.007Z,,,0,V,2330.4430000014836,,,,238532.80000000075,238532.6000000015,236185.48,236185.6000000015,236202157,238553697,,grey,UT01KI10,26,m,5,2,freier Autor,0,0,0,0,0
Fixation,canvas.Screen,2_83_0_0,2022-06-03T12:53:03.564Z,,,1,AV,1551.5220000000263,timeout,,,240090.1000000015,240088536,238520343,238533.90000000224,238553697,240105219,,grey,UT01KI10,26,m,5,2,freier Autor,0,0,0,0,0
Stimulus,canvas.Screen,2_83_0_1,2022-06-03T12:53:03.663Z,,,1,AV,99.5799999999872,timeout,,,240189.1000000015,240187685,240088536,240090.40000000224,240105219,240204799,,grey,UT01KI10,26,m,5,2,freier Autor,0,0,0,0,0
Reaction,canvas.Screen,2_83_0_2,2022-06-03T12:53:03.842Z,,,1,AV,161.501000000746,response,stim_detected,mousedown,240367.70000000298,240366.30000000075,240187685,240189.30000000075,240204799,240371569,,grey,UT01KI10,26,m,5,2,freier Autor,0,0,0,0,0
Trial,flow.Sequence,2_83_0,2022-06-03T12:53:03.842Z,,,1,AV,1812.6030000007595,completion,,,240368.1000000015,240366.30000000075,238520343,238533.80000000075,238553697,240371569,,grey,UT01KI10,26,m,5,2,freier Autor,0,0,0,0,0
Frame,canvas.Frame,2_83,2022-06-03T12:53:03.842Z,,,1,AV,1814.6030000007595,,,,240368.5,240368.30000000075,238520343,238533,238553697,240371569,,grey,UT01KI10,26,m,5,2,freier Autor,0,0,0,0,0
Fixation,canvas.Screen,2_84_0_0,2022-06-03T12:53:06.049Z,,,0,V,2218.3460000000196,timeout,,,242575.1000000015,242573236,240354892,240369.6000000015,240371569,242589915,,grey,UT01KI10,26,m,5,2,freier Autor,0,0,0,0,0
Stimulus,canvas.Screen,2_84_0_1,2022-06-03T12:53:06.148Z,,,0,V,99.84299999999348,timeout,,,242674.30000000075,242672861,242573236,242575.5,242589915,242689758,,grey,UT01KI10,26,m,5,2,freier Autor,0,0,0,0,0
Reaction,canvas.Screen,2_84_0_2,2022-06-03T12:53:06.316Z,,,0,V,150.54200000074343,response,stim_detected,mousedown,242841.90000000224,242840.30000000075,242672861,242674.5,242689758,242856528,,grey,UT01KI10,26,m,5,2,freier Autor,0,0,0,0,0
Trial,flow.Sequence,2_84_0,2022-06-03T12:53:06.316Z,,,0,V,2468.7310000007565,completion,,,242842.30000000075,242840.30000000075,240354892,240369.40000000224,240371569,242856528,,grey,UT01KI10,26,m,5,2,freier Autor,0,0,0,0,0
Frame,canvas.Frame,2_84,2022-06-03T12:53:06.317Z,,,0,V,2470.9310000000114,,,,242842.70000000298,242842.5,240354892,240368.70000000298,240371569,242856528,,grey,UT01KI10,26,m,5,2,freier Autor,0,0,0,0,0
Fixation,canvas.Screen,2_85_0_0,2022-06-03T12:53:08.350Z,,,0,V,2034.8699999999953,timeout,,,244876.1000000015,244874719,242839851,242843.90000000224,242856528,244891398,,grey,UT01KI10,26,m,5,2,freier Autor,0,0,0,0,0
Stimulus,canvas.Screen,2_85_0_1,2022-06-03T12:53:08.451Z,,,0,V,99.77500000002328,timeout,,,244976.20000000298,244974497,244874719,244876.40000000224,244891398,244991173,,grey,UT01KI10,26,m,5,2,freier Autor,0,0,0,0,0
Reaction,canvas.Screen,2_85_0_2,2022-06-03T12:53:08.611Z,,,0,V,144.12700000073528,response,stim_detected,mousedown,245136.70000000298,245135.30000000075,244974497,244976.40000000224,244991173,245141402,,grey,UT01KI10,26,m,5,2,freier Autor,0,0,0,0,0
Trial,flow.Sequence,2_85_0,2022-06-03T12:53:08.611Z,,,0,V,2278.772000000754,completion,,,245137,245135.30000000075,242839851,242843.80000000075,242856528,245141402,,grey,UT01KI10,26,m,5,2,freier Autor,0,0,0,0,0
Frame,canvas.Frame,2_85,2022-06-03T12:53:08.612Z,,,0,V,2280.572000001499,,,,245137.30000000075,245137.1000000015,242839851,242842.90000000224,242856528,245141402,,grey,UT01KI10,26,m,5,2,freier Autor,0,0,0,0,0
Fixation,canvas.Screen,2_86_0_0,2022-06-03T12:53:10.135Z,,,1,A,1533.7649999999849,timeout,,,246660.20000000298,246658495,245124725,245138.40000000224,245141402,246675167,,black,UT01KI10,26,m,5,2,freier Autor,0,0,0,0,0
Stimulus,canvas.Screen,2_86_0_1,2022-06-03T12:53:10.235Z,,,1,A,100.5460000000021,timeout,,,246760.20000000298,246759037,246658495,246660.5,246675167,246775713,,black,UT01KI10,26,m,5,2,freier Autor,0,0,0,0,0
Reaction,canvas.Screen,2_86_0_2,2022-06-03T12:53:10.573Z,,,1,A,322.18700000224635,response,stim_detected,mousedown,247098.80000000075,247097.90000000224,246759037,246760.40000000224,246775713,247109.32,,black,UT01KI10,26,m,5,2,freier Autor,0,0,0,0,0
Trial,flow.Sequence,2_86_0,2022-06-03T12:53:10.573Z,,,1,A,1956.4980000022333,completion,,,247099,247097.90000000224,245124725,245138.30000000075,245141402,247109.32,,black,UT01KI10,26,m,5,2,freier Autor,0,0,0,0,0
Frame,canvas.Frame,2_86,2022-06-03T12:53:10.573Z,,,1,A,1957.6980000014883,,,,247099.20000000298,247099.1000000015,245124725,245137.5,245141402,247109.32,,black,UT01KI10,26,m,5,2,freier Autor,0,0,0,0,0
Fixation,canvas.Screen,2_87_0_0,2022-06-03T12:53:12.919Z,,,0,V,2350.8010000000068,timeout,,,249445,249443448,247092643,247100,247109.32,249460121,,grey,UT01KI10,26,m,5,2,freier Autor,0,0,0,0,0
Stimulus,canvas.Screen,2_87_0_1,2022-06-03T12:53:13.020Z,,,0,V,100.47099999999045,timeout,,,249545.5,249543917,249443448,249445.30000000075,249460121,249560592,,grey,UT01KI10,26,m,5,2,freier Autor,0,0,0,0,0
Reaction,canvas.Screen,2_87_0_2,2022-06-03T12:53:13.187Z,,,0,V,128.20800000074087,response,stim_detected,mousedown,249712.20000000298,249688.80000000075,249543917,249545.80000000075,249560592,249727716,,grey,UT01KI10,26,m,5,2,freier Autor,0,0,0,0,0
Trial,flow.Sequence,2_87_0,2022-06-03T12:53:13.187Z,,,0,V,2579.480000000738,completion,,,249712.6000000015,249688.80000000075,247092643,247099.90000000224,247109.32,249727716,,grey,UT01KI10,26,m,5,2,freier Autor,0,0,0,0,0
Frame,canvas.Frame,2_87,2022-06-03T12:53:13.187Z,,,0,V,2603.280000001483,,,,249712.70000000298,249712.6000000015,247092643,247099.20000000298,247109.32,249727716,,grey,UT01KI10,26,m,5,2,freier Autor,0,0,0,0,0
Fixation,canvas.Screen,2_88_0_0,2022-06-03T12:53:14.804Z,,,1,A,1617.3450000000012,timeout,,,251329.40000000224,251328387,249711039,249713.40000000224,249727716,251345061,,black,UT01KI10,26,m,5,2,freier Autor,0,0,0,0,0
Stimulus,canvas.Screen,2_88_0_1,2022-06-03T12:53:14.905Z,,,1,A,100.51400000002468,timeout,,,251430.40000000224,251428897,251328387,251329.70000000298,251345061,251445575,,black,UT01KI10,26,m,5,2,freier Autor,0,0,0,0,0
Reaction,canvas.Screen,2_88_0_2,2022-06-03T12:53:15.210Z,,,1,A,288.42499999998836,response,stim_detected,mousedown,251735.5,251734,251428897,251430.6000000015,251445575,251745.64,,black,UT01KI10,26,m,5,2,freier Autor,0,0,0,0,0
Trial,flow.Sequence,2_88_0,2022-06-03T12:53:15.210Z,,,1,A,2006.2840000000142,completion,,,251735.90000000224,251734,249711039,249713.40000000224,249727716,251745.64,,black,UT01KI10,26,m,5,2,freier Autor,0,0,0,0,0
Frame,canvas.Frame,2_88,2022-06-03T12:53:15.211Z,,,1,A,2008.2840000000142,,,,251736.20000000298,251736,249711039,249712.80000000075,249727716,251745.64,,black,UT01KI10,26,m,5,2,freier Autor,0,0,0,0,0
Fixation,canvas.Screen,2_89_0_0,2022-06-03T12:53:17.308Z,,,1,A,2102.7309999999998,timeout,,,253833.5,253831684,251728964,251737.20000000298,251745.64,253848371,,black,UT01KI10,26,m,5,2,freier Autor,0,0,0,0,0
Stimulus,canvas.Screen,2_89_0_1,2022-06-03T12:53:17.407Z,,,1,A,98.7949999999837,timeout,,,253932.80000000075,253930383,253831684,253833.80000000075,253848371,253947166,,black,UT01KI10,26,m,5,2,freier Autor,0,0,0,0,0
Reaction,canvas.Screen,2_89_0_2,2022-06-03T12:53:17.620Z,,,1,A,196.83400000000256,response,stim_detected,mousedown,254145.40000000224,254144,253930383,253933,253947166,254147.29,,black,UT01KI10,26,m,5,2,freier Autor,0,0,0,0,0
Trial,flow.Sequence,2_89_0,2022-06-03T12:53:17.620Z,,,1,A,2398.359999999986,completion,,,254145.80000000075,254144,251728964,251737.1000000015,251745.64,254147.29,,black,UT01KI10,26,m,5,2,freier Autor,0,0,0,0,0
Frame,canvas.Frame,2_89,2022-06-03T12:53:17.620Z,,,1,A,2400.260000002221,,,,254146.1000000015,254145.90000000224,251728964,251736.40000000224,251745.64,254147.29,,black,UT01KI10,26,m,5,2,freier Autor,0,0,0,0,0
Fixation,canvas.Screen,2_90_0_0,2022-06-03T12:53:20.041Z,,,1,A,2434.6870000000054,timeout,,,256566.6000000015,256565301,254130613,254147.1000000015,254147.29,256581977,,black,UT01KI10,26,m,5,2,freier Autor,0,0,0,0,0
Stimulus,canvas.Screen,2_90_0_1,2022-06-03T12:53:20.141Z,,,1,A,100.31699999998091,timeout,,,256666.90000000224,256665493,256565301,256566.80000000075,256581977,256682294,,black,UT01KI10,26,m,5,2,freier Autor,0,0,0,0,0
Reaction,canvas.Screen,2_90_0_2,2022-06-03T12:53:20.372Z,,,1,A,213.60600000224076,response,stim_detected,mousedown,256897.40000000224,256895.90000000224,256665493,256667.1000000015,256682294,256915772,,black,UT01KI10,26,m,5,2,freier Autor,0,0,0,0,0
Trial,flow.Sequence,2_90_0,2022-06-03T12:53:20.372Z,,,1,A,2748.610000002227,completion,,,256897.90000000224,256895.90000000224,254130613,254147,254147.29,256915772,,black,UT01KI10,26,m,5,2,freier Autor,0,0,0,0,0
Frame,canvas.Frame,2_90,2022-06-03T12:53:20.373Z,,,1,A,2750.709999999992,,,,256898.20000000298,256898,254130613,254146.30000000075,254147.29,256915772,,black,UT01KI10,26,m,5,2,freier Autor,0,0,0,0,0
Loop,flow.Loop,2,2022-06-03T12:53:20.373Z,,,,,205833288,completion,,,256898.6000000015,256898,51048029,51050.300000000745,51064712,256915772,,,UT01KI10,26,m,5,2,freier Autor,0,0,0,0,0
end,html.Page,3,2022-06-03T12:53:26.120Z,,,,,5729.728000000003,form submission,,,262646.1000000015,262645.5,256899095,256898.90000000224,256915772,262653601,,,UT01KI10,26,m,5,2,freier Autor,0,0,0,0,0
