sender,sender_type,sender_id,timestamp,meta,,aud,condition,duration,ended_on,response,response_action,time_commit,time_end,time_render,time_run,time_show,time_switch,url,vis,id,age,sex,edu,occ,ela,pat,ill,prt,pcr,pab
Instructions,html.Page,0,2022-06-10T15:40:31.904Z,"{""labjs_version"":""20.2.4"",""labjs_build"":{""flavor"":""production"",""commit"":""f5b4a49f956347addd546a832a3327688c2c0fef""},""location"":""file:///C:/Users/Proband%207/Desktop/RTE/index.html"",""userAgent"":""Mozilla/5.0 (Windows NT 6.1; Win64; x64) AppleWebKit/537.36 (KHTML, like Gecko) Chrome/102.0.5005.115 Safari/537.36"",""platform"":""Win32"",""language"":""de-DE"",""locale"":""de"",""timeZone"":""Europe/Berlin"",""timezoneOffset"":-120,""screen_width"":1366,""screen_height"":768,""scroll_width"":795,""scroll_height"":568,""window_innerWidth"":795,""window_innerHeight"":616,""devicePixelRatio"":1}",,,,1209702.3769999999,form submission,,,1213822.9,1213814.2,4061.79,4066.0999999999767,4111823,1214369969,{},,UT29PI01,31,m,4,0,Lehramt,0,0,0,0,0
Change Background,canvas.Screen,1,2022-06-10T15:40:35.497Z,,,,,3066.7689999998547,timeout,,,1217416.6,1217353438,1213669703,1213823.7,1214369969,1217436738,,,UT29PI01,31,m,4,0,Lehramt,0,0,0,0,0
Fixation,canvas.Screen,2_0_0_0,2022-06-10T15:40:37.586Z,,,1,AV,2200.693000000203,timeout,,,1219505.4,1219504103,1217353438,1217445.8,1217436738,1219637431,,grey,UT29PI01,31,m,4,0,Lehramt,0,0,0,0,0
Stimulus,canvas.Screen,2_0_0_1,2022-06-10T15:40:37.806Z,,,1,AV,203.01599999982864,timeout,,,1219725.3,1219723715,1219504103,1219505.8,1219637431,1219840447,,grey,UT29PI01,31,m,4,0,Lehramt,0,0,0,0,0
Reaction,canvas.Screen,2_0_0_2,2022-06-10T15:40:38.119Z,,,1,AV,192.4529999999795,response,stim_detected,mousedown,1220038.6,1220032.9,1219723715,1219725.5,1219840447,1220057.39,,grey,UT29PI01,31,m,4,0,Lehramt,0,0,0,0,0
Trial,flow.Sequence,2_0_0,2022-06-10T15:40:38.120Z,,,1,AV,2596.162000000011,completion,,,1220039.3,1220032.9,1217353438,1217445.7,1217436738,1220057.39,,grey,UT29PI01,31,m,4,0,Lehramt,0,0,0,0,0
Frame,canvas.Frame,2_0,2022-06-10T15:40:38.121Z,,,1,AV,2602.7620000001043,,,,1220039.9,1220039.5,1217353438,1217417,1217436738,1220057.39,,grey,UT29PI01,31,m,4,0,Lehramt,0,0,0,0,0
Fixation,canvas.Screen,2_1_0_0,2022-06-10T15:40:39.807Z,,,1,AV,1733.9150000000373,timeout,,,1221726,1221724613,1220024036,1220041.1,1220057.39,1221791305,,grey,UT29PI01,31,m,4,0,Lehramt,0,0,0,0,0
Stimulus,canvas.Screen,2_1_0_1,2022-06-10T15:40:39.957Z,,,1,AV,100.73200000007637,timeout,,,1221876.4,1221875358,1221724613,1221726.1,1221791305,1221892037,,grey,UT29PI01,31,m,4,0,Lehramt,0,0,0,0,0
Reaction,canvas.Screen,2_1_0_2,2022-06-10T15:40:40.187Z,,,1,AV,212.66299999994226,response,stim_detected,mousedown,1222106.4,1222104.7,1221875358,1221877,1221892037,1222108737,,grey,UT29PI01,31,m,4,0,Lehramt,0,0,0,0,0
Trial,flow.Sequence,2_1_0,2022-06-10T15:40:40.188Z,,,1,AV,2047.3100000000559,completion,,,1222107.2,1222104.7,1220024036,1220041,1220057.39,1222108737,,grey,UT29PI01,31,m,4,0,Lehramt,0,0,0,0,0
Frame,canvas.Frame,2_1,2022-06-10T15:40:40.189Z,,,1,AV,2050.1100000001024,,,,1222107.9,1222107.5,1220024036,1220040.1,1220057.39,1222108737,,grey,UT29PI01,31,m,4,0,Lehramt,0,0,0,0,0
Fixation,canvas.Screen,2_2_0_0,2022-06-10T15:40:42.360Z,,,1,A,2185.2690000000875,timeout,,,1224278.7,1224277325,1222092.06,1222109.3,1222108737,1224294006,,black,UT29PI01,31,m,4,0,Lehramt,0,0,0,0,0
Stimulus,canvas.Screen,2_2_0_1,2022-06-10T15:40:42.460Z,,,1,A,99.74899999983609,timeout,,,1224378.7,1224377076,1224277325,1224279,1224294006,1224393755,,black,UT29PI01,31,m,4,0,Lehramt,0,0,0,0,0
Reaction,canvas.Screen,2_2_0_2,2022-06-10T15:40:42.702Z,,,1,A,225.8450000002049,response,stim_detected,mousedown,1224621.5,1224619.6,1224377076,1224379,1224393755,1224627081,,black,UT29PI01,31,m,4,0,Lehramt,0,0,0,0,0
Trial,flow.Sequence,2_2_0,2022-06-10T15:40:42.703Z,,,1,A,2510.8630000001285,completion,,,1224622,1224619.6,1222092.06,1222109.2,1222108737,1224627081,,black,UT29PI01,31,m,4,0,Lehramt,0,0,0,0,0
Frame,canvas.Frame,2_2,2022-06-10T15:40:42.703Z,,,1,A,2513.462999999989,,,,1224622.4,1224622.2,1222092.06,1222108.1,1222108737,1224627081,,black,UT29PI01,31,m,4,0,Lehramt,0,0,0,0,0
Fixation,canvas.Screen,2_3_0_0,2022-06-10T15:40:44.695Z,,,1,AV,2002.34300000011,timeout,,,1226614.6,1226612739,1224610404,1224623.7,1224627081,1226629424,,grey,UT29PI01,31,m,4,0,Lehramt,0,0,0,0,0
Stimulus,canvas.Screen,2_3_0_1,2022-06-10T15:40:44.793Z,,,1,AV,98.75799999991432,timeout,,,1226712.7,1226711507,1226612739,1226614.9,1226629424,1226728182,,grey,UT29PI01,31,m,4,0,Lehramt,0,0,0,0,0
Reaction,canvas.Screen,2_3_0_2,2022-06-10T15:40:44.953Z,,,1,AV,142.41800000006333,response,stim_detected,mousedown,1226872.2,1226870.6,1226711507,1226712.9,1226728182,1226945278,,grey,UT29PI01,31,m,4,0,Lehramt,0,0,0,0,0
Trial,flow.Sequence,2_3_0,2022-06-10T15:40:44.953Z,,,1,AV,2243.5190000000875,completion,,,1226872.6,1226870.6,1224610404,1224623.6,1224627081,1226945278,,grey,UT29PI01,31,m,4,0,Lehramt,0,0,0,0,0
Frame,canvas.Frame,2_3,2022-06-10T15:40:44.954Z,,,1,AV,2245.618999999948,,,,1226873,1226872.7,1224610404,1224622.6,1224627081,1226945278,,grey,UT29PI01,31,m,4,0,Lehramt,0,0,0,0,0
Fixation,canvas.Screen,2_4_0_0,2022-06-10T15:40:46.563Z,,,0,V,1551.496999999974,timeout,,,1228481.7,1228480093,1226861893,1226874.1,1226945278,1228496775,,grey,UT29PI01,31,m,4,0,Lehramt,0,0,0,0,0
Stimulus,canvas.Screen,2_4_0_1,2022-06-10T15:40:46.661Z,,,0,V,99.63300000014715,timeout,,,1228580.6,1228579648,1228480093,1228482,1228496775,1228596408,,grey,UT29PI01,31,m,4,0,Lehramt,0,0,0,0,0
Reaction,canvas.Screen,2_4_0_2,2022-06-10T15:40:46.873Z,,,0,V,193.09199999994598,response,stim_detected,mousedown,1228792.4,1228789.5,1228579648,1228580.8,1228596408,1228796532,,grey,UT29PI01,31,m,4,0,Lehramt,0,0,0,0,0
Trial,flow.Sequence,2_4_0,2022-06-10T15:40:46.874Z,,,0,V,1844.222000000067,completion,,,1228792.8,1228789.5,1226861893,1226874,1226945278,1228796532,,grey,UT29PI01,31,m,4,0,Lehramt,0,0,0,0,0
Frame,canvas.Frame,2_4,2022-06-10T15:40:46.874Z,,,0,V,1847.621999999974,,,,1228793.1,1228792.9,1226861893,1226873.1,1226945278,1228796532,,grey,UT29PI01,31,m,4,0,Lehramt,0,0,0,0,0
Fixation,canvas.Screen,2_5_0_0,2022-06-10T15:40:48.713Z,,,1,A,1850.2620000001043,timeout,,,1230631.7,1230630124,1228779855,1228794.4,1228796532,1230646794,,black,UT29PI01,31,m,4,0,Lehramt,0,0,0,0,0
Stimulus,canvas.Screen,2_5_0_1,2022-06-10T15:40:48.814Z,,,1,A,101.08499999996275,timeout,,,1230732.7,1230731.2,1230630124,1230632.1,1230646794,1230747879,,black,UT29PI01,31,m,4,0,Lehramt,0,0,0,0,0
Reaction,canvas.Screen,2_5_0_2,2022-06-10T15:40:49.171Z,,,1,A,340.5209999999497,response,stim_detected,mousedown,1231090,1231088.4,1230731.2,1230733,1230747879,1231097975,,black,UT29PI01,31,m,4,0,Lehramt,0,0,0,0,0
Trial,flow.Sequence,2_5_0,2022-06-10T15:40:49.171Z,,,1,A,2291.8680000000168,completion,,,1231090.4,1231088.4,1228779855,1228794.3,1228796532,1231097975,,black,UT29PI01,31,m,4,0,Lehramt,0,0,0,0,0
Frame,canvas.Frame,2_5,2022-06-10T15:40:49.172Z,,,1,A,2293.96800000011,,,,1231090.7,1231090.5,1228779855,1228793.3,1228796532,1231097975,,black,UT29PI01,31,m,4,0,Lehramt,0,0,0,0,0
Fixation,canvas.Screen,2_6_0_0,2022-06-10T15:40:50.833Z,,,1,A,1668.7369999999646,timeout,,,1232751.9,1232750026,1231081299,1231091.9,1231097975,1232766712,,black,UT29PI01,31,m,4,0,Lehramt,0,0,0,0,0
Stimulus,canvas.Screen,2_6_0_1,2022-06-10T15:40:50.932Z,,,1,A,99.09199999994598,timeout,,,1232850.8,1232849128,1232750026,1232752.5,1232766712,1232865804,,black,UT29PI01,31,m,4,0,Lehramt,0,0,0,0,0
Reaction,canvas.Screen,2_6_0_2,2022-06-10T15:40:51.151Z,,,1,A,202.59599999990314,response,stim_detected,mousedown,1233070,1233068.4,1232849128,1232851.1,1232865804,1233132708,,black,UT29PI01,31,m,4,0,Lehramt,0,0,0,0,0
Trial,flow.Sequence,2_6_0,2022-06-10T15:40:51.151Z,,,1,A,1970.4249999998137,completion,,,1233070.4,1233068.4,1231081299,1231091.9,1231097975,1233132708,,black,UT29PI01,31,m,4,0,Lehramt,0,0,0,0,0
Frame,canvas.Frame,2_6,2022-06-10T15:40:51.152Z,,,1,A,1972.5249999999069,,,,1233070.7,1233070.5,1231081299,1231090.9,1231097975,1233132708,,black,UT29PI01,31,m,4,0,Lehramt,0,0,0,0,0
Fixation,canvas.Screen,2_7_0_0,2022-06-10T15:40:52.800Z,,,1,A,1601.4239999998827,timeout,,,1234718.8,1234717451,1233066,1233133.8,1233132708,1234734132,,black,UT29PI01,31,m,4,0,Lehramt,0,0,0,0,0
Stimulus,canvas.Screen,2_7_0_1,2022-06-10T15:40:52.900Z,,,1,A,99.70200000004843,timeout,,,1234818.8,1234817051,1234717451,1234719.1,1234734132,1234833834,,black,UT29PI01,31,m,4,0,Lehramt,0,0,0,0,0
Reaction,canvas.Screen,2_7_0_2,2022-06-10T15:40:53.147Z,,,1,A,230.66599999996834,response,stim_detected,mousedown,1235066,1235064.5,1234817051,1234819.1,1234833834,1235067312,,black,UT29PI01,31,m,4,0,Lehramt,0,0,0,0,0
Trial,flow.Sequence,2_7_0,2022-06-10T15:40:53.147Z,,,1,A,1931.7919999998994,completion,,,1235066.4,1235064.5,1233066,1233133.7,1233132708,1235067312,,black,UT29PI01,31,m,4,0,Lehramt,0,0,0,0,0
Frame,canvas.Frame,2_7,2022-06-10T15:40:53.148Z,,,1,A,1933.6919999998063,,,,1235066.7,1235066.4,1233066,1233070.8,1233132708,1235067312,,black,UT29PI01,31,m,4,0,Lehramt,0,0,0,0,0
Fixation,canvas.Screen,2_8_0_0,2022-06-10T15:40:54.935Z,,,1,A,1801.5879999999888,timeout,,,1236854,1236852219,1235050635,1235067.9,1235067312,1236868.9,,black,UT29PI01,31,m,4,0,Lehramt,0,0,0,0,0
Stimulus,canvas.Screen,2_8_0_1,2022-06-10T15:40:55.034Z,,,1,A,99.48800000012852,timeout,,,1236952.9,1236951712,1236852219,1236854.2,1236868.9,1236968388,,black,UT29PI01,31,m,4,0,Lehramt,0,0,0,0,0
Reaction,canvas.Screen,2_8_0_2,2022-06-10T15:40:55.308Z,,,1,A,257.1119999999646,response,stim_detected,mousedown,1237227,1237225.5,1236951712,1236953.1,1236968388,1237235428,,black,UT29PI01,31,m,4,0,Lehramt,0,0,0,0,0
Trial,flow.Sequence,2_8_0,2022-06-10T15:40:55.308Z,,,1,A,2158.188000000082,completion,,,1237227.4,1237225.5,1235050635,1235067.9,1235067312,1237235428,,black,UT29PI01,31,m,4,0,Lehramt,0,0,0,0,0
Frame,canvas.Frame,2_8,2022-06-10T15:40:55.309Z,,,1,A,2160.288000000175,,,,1237227.7,1237227.6,1235050635,1235066.8,1235067312,1237235428,,black,UT29PI01,31,m,4,0,Lehramt,0,0,0,0,0
Fixation,canvas.Screen,2_9_0_0,2022-06-10T15:40:56.935Z,,,1,A,1634.2360000000335,timeout,,,1238854,1238852988,1237218751,1237229.1,1237235428,1238869664,,black,UT29PI01,31,m,4,0,Lehramt,0,0,0,0,0
Stimulus,canvas.Screen,2_9_0_1,2022-06-10T15:40:57.036Z,,,1,A,100.27799999993294,timeout,,,1238955,1238953264,1238852988,1238854.2,1238869664,1238969942,,black,UT29PI01,31,m,4,0,Lehramt,0,0,0,0,0
Reaction,canvas.Screen,2_9_0_2,2022-06-10T15:40:57.205Z,,,1,A,152.45799999986775,response,stim_detected,mousedown,1239124,1239122.4,1238953264,1238955.3,1238969942,1239186682,,black,UT29PI01,31,m,4,0,Lehramt,0,0,0,0,0
Trial,flow.Sequence,2_9_0,2022-06-10T15:40:57.205Z,,,1,A,1886.9719999998342,completion,,,1239124.4,1239122.4,1237218751,1237228.9,1237235428,1239186682,,black,UT29PI01,31,m,4,0,Lehramt,0,0,0,0,0
Frame,canvas.Frame,2_9,2022-06-10T15:40:57.205Z,,,1,A,1889.0719999999274,,,,1239124.7,1239124.5,1237218751,1237228,1237235428,1239186682,,black,UT29PI01,31,m,4,0,Lehramt,0,0,0,0,0
Fixation,canvas.Screen,2_10_0_0,2022-06-10T15:40:59.520Z,,,1,AV,2267.9520000000484,timeout,,,1241439.3,1241437958,1239119978,1239125.8,1239186682,1241454634,,grey,UT29PI01,31,m,4,0,Lehramt,0,0,0,0,0
Stimulus,canvas.Screen,2_10_0_1,2022-06-10T15:40:59.620Z,,,1,AV,100.3159999998752,timeout,,,1241539.3,1241538273,1241437958,1241439.7,1241454634,1241554.95,,grey,UT29PI01,31,m,4,0,Lehramt,0,0,0,0,0
Reaction,canvas.Screen,2_10_0_2,2022-06-10T15:40:59.788Z,,,1,AV,149.44999999995343,response,stim_detected,mousedown,1241706.8,1241704.4,1241538273,1241539.5,1241554.95,1241721757,,grey,UT29PI01,31,m,4,0,Lehramt,0,0,0,0,0
Trial,flow.Sequence,2_10_0,2022-06-10T15:40:59.788Z,,,1,AV,2517.717999999877,completion,,,1241707.3,1241704.4,1239119978,1239125.8,1239186682,1241721757,,grey,UT29PI01,31,m,4,0,Lehramt,0,0,0,0,0
Frame,canvas.Frame,2_10,2022-06-10T15:40:59.789Z,,,1,AV,2520.81799999997,,,,1241707.7,1241707.5,1239119978,1239124.8,1239186682,1241721757,,grey,UT29PI01,31,m,4,0,Lehramt,0,0,0,0,0
Fixation,canvas.Screen,2_11_0_0,2022-06-10T15:41:01.388Z,,,0,V,1600.5570000000298,timeout,,,1243307.2,1243305641,1241705.08,1241709,1241721757,1243322314,,grey,UT29PI01,31,m,4,0,Lehramt,0,0,0,0,0
Stimulus,canvas.Screen,2_11_0_1,2022-06-10T15:41:01.488Z,,,0,V,100.56300000008196,timeout,,,1243407.2,1243406.2,1243305641,1243307.4,1243322314,1243422877,,grey,UT29PI01,31,m,4,0,Lehramt,0,0,0,0,0
Reaction,canvas.Screen,2_11_0_2,2022-06-10T15:41:01.811Z,,,0,V,305.42299999995157,response,stim_detected,mousedown,1243730,1243728.3,1243406.2,1243407.5,1243422877,1243739715,,grey,UT29PI01,31,m,4,0,Lehramt,0,0,0,0,0
Trial,flow.Sequence,2_11_0,2022-06-10T15:41:01.811Z,,,0,V,2006.5430000000633,completion,,,1243730.3,1243728.3,1241705.08,1241708.9,1241721757,1243739715,,grey,UT29PI01,31,m,4,0,Lehramt,0,0,0,0,0
Frame,canvas.Frame,2_11,2022-06-10T15:41:01.811Z,,,0,V,2008.6429999999236,,,,1243730.6,1243730.4,1241705.08,1241707.9,1241721757,1243739715,,grey,UT29PI01,31,m,4,0,Lehramt,0,0,0,0,0
Fixation,canvas.Screen,2_12_0_0,2022-06-10T15:41:03.706Z,,,1,A,1900.9199999999255,timeout,,,1245625.2,1245623.96,1243723038,1243732,1243739715,1245640635,,black,UT29PI01,31,m,4,0,Lehramt,0,0,0,0,0
Stimulus,canvas.Screen,2_12_0_1,2022-06-10T15:41:03.806Z,,,1,A,100.40999999991618,timeout,,,1245725.2,1245724368,1245623.96,1245625.6,1245640635,1245741045,,black,UT29PI01,31,m,4,0,Lehramt,0,0,0,0,0
Reaction,canvas.Screen,2_12_0_2,2022-06-10T15:41:04.003Z,,,1,A,179.25500000012107,response,stim_detected,mousedown,1245921.8,1245920.3,1245724368,1245725.5,1245741045,1245924496,,black,UT29PI01,31,m,4,0,Lehramt,0,0,0,0,0
Trial,flow.Sequence,2_12_0,2022-06-10T15:41:04.003Z,,,1,A,2180.5849999999627,completion,,,1245922.2,1245920.3,1243723038,1243731.8,1243739715,1245924496,,black,UT29PI01,31,m,4,0,Lehramt,0,0,0,0,0
Frame,canvas.Frame,2_12,2022-06-10T15:41:04.003Z,,,1,A,2182.5849999999627,,,,1245922.5,1245922.3,1243723038,1243730.7,1243739715,1245924496,,black,UT29PI01,31,m,4,0,Lehramt,0,0,0,0,0
Fixation,canvas.Screen,2_13_0_0,2022-06-10T15:41:06.224Z,,,1,AV,2234.570000000065,timeout,,,1248143.3,1248142.39,1245907819,1245923.6,1245924496,1248159066,,grey,UT29PI01,31,m,4,0,Lehramt,0,0,0,0,0
Stimulus,canvas.Screen,2_13_0_1,2022-06-10T15:41:06.324Z,,,1,AV,99.7699999997858,timeout,,,1248243.4,1248242162,1248142.39,1248143.6,1248159066,1248258836,,grey,UT29PI01,31,m,4,0,Lehramt,0,0,0,0,0
Reaction,canvas.Screen,2_13_0_2,2022-06-10T15:41:06.480Z,,,1,AV,138.46400000015274,response,stim_detected,mousedown,1248398.7,1248397.3,1248242162,1248243.7,1248258836,1248409445,,grey,UT29PI01,31,m,4,0,Lehramt,0,0,0,0,0
Trial,flow.Sequence,2_13_0,2022-06-10T15:41:06.480Z,,,1,AV,2472.8040000000037,completion,,,1248399.1,1248397.3,1245907819,1245923.5,1245924496,1248409445,,grey,UT29PI01,31,m,4,0,Lehramt,0,0,0,0,0
Frame,canvas.Frame,2_13,2022-06-10T15:41:06.480Z,,,1,AV,2474.8040000000037,,,,1248399.4,1248399.3,1245907819,1245922.7,1245924496,1248409445,,grey,UT29PI01,31,m,4,0,Lehramt,0,0,0,0,0
Fixation,canvas.Screen,2_14_0_0,2022-06-10T15:41:08.526Z,,,1,AV,2051.409999999916,timeout,,,1250445.5,1250444177,1248392768,1248400.4,1248409445,1250460855,,grey,UT29PI01,31,m,4,0,Lehramt,0,0,0,0,0
Stimulus,canvas.Screen,2_14_0_1,2022-06-10T15:41:08.626Z,,,1,AV,100.18100000009872,timeout,,,1250545.5,1250544354,1250444177,1250446.1,1250460855,1250561036,,grey,UT29PI01,31,m,4,0,Lehramt,0,0,0,0,0
Reaction,canvas.Screen,2_14_0_2,2022-06-10T15:41:08.810Z,,,1,AV,166.16399999987334,response,stim_detected,mousedown,1250728.6,1250727.2,1250544354,1250545.7,1250561036,1250744352,,grey,UT29PI01,31,m,4,0,Lehramt,0,0,0,0,0
Trial,flow.Sequence,2_14_0,2022-06-10T15:41:08.810Z,,,1,AV,2317.7549999998882,completion,,,1250729.2,1250727.2,1248392768,1248400.4,1248409445,1250744352,,grey,UT29PI01,31,m,4,0,Lehramt,0,0,0,0,0
Frame,canvas.Frame,2_14,2022-06-10T15:41:08.810Z,,,1,AV,2319.8549999999814,,,,1250729.5,1250729.3,1248392768,1248399.6,1248409445,1250744352,,grey,UT29PI01,31,m,4,0,Lehramt,0,0,0,0,0
Fixation,canvas.Screen,2_15_0_0,2022-06-10T15:41:11.095Z,,,1,AV,2284.8940000000875,timeout,,,1253013.7,1253012568,1250727675,1250730.6,1250744352,1253029246,,grey,UT29PI01,31,m,4,0,Lehramt,0,0,0,0,0
Stimulus,canvas.Screen,2_15_0_1,2022-06-10T15:41:11.194Z,,,1,AV,99.7839999999851,timeout,,,1253113.6,1253112354,1253012568,1253014,1253029246,1253129.03,,grey,UT29PI01,31,m,4,0,Lehramt,0,0,0,0,0
Reaction,canvas.Screen,2_15_0_2,2022-06-10T15:41:11.380Z,,,1,AV,168.1699999999255,response,stim_detected,mousedown,1253298.8,1253297.2,1253112354,1253113.9,1253129.03,1253312717,,grey,UT29PI01,31,m,4,0,Lehramt,0,0,0,0,0
Trial,flow.Sequence,2_15_0,2022-06-10T15:41:11.380Z,,,1,AV,2552.847999999998,completion,,,1253299.1,1253297.2,1250727675,1250730.5,1250744352,1253312717,,grey,UT29PI01,31,m,4,0,Lehramt,0,0,0,0,0
Frame,canvas.Frame,2_15,2022-06-10T15:41:11.380Z,,,1,AV,2554.9480000000913,,,,1253299.4,1253299.3,1250727675,1250729.8,1250744352,1253312717,,grey,UT29PI01,31,m,4,0,Lehramt,0,0,0,0,0
Fixation,canvas.Screen,2_16_0_0,2022-06-10T15:41:13.346Z,,,0,V,1967.4920000000857,timeout,,,1255264.6,1255263535,1253296.04,1253300.6,1253312717,1255280209,,grey,UT29PI01,31,m,4,0,Lehramt,0,0,0,0,0
Stimulus,canvas.Screen,2_16_0_1,2022-06-10T15:41:13.447Z,,,0,V,100.32400000002235,timeout,,,1255365.7,1255363857,1255263535,1255264.9,1255280209,1255380533,,grey,UT29PI01,31,m,4,0,Lehramt,0,0,0,0,0
Reaction,canvas.Screen,2_16_0_2,2022-06-10T15:41:13.671Z,,,0,V,208.56700000003912,response,stim_detected,mousedown,1255590.7,1255589.1,1255363857,1255366,1255380533,1255597522,,grey,UT29PI01,31,m,4,0,Lehramt,0,0,0,0,0
Trial,flow.Sequence,2_16_0,2022-06-10T15:41:13.672Z,,,0,V,2276.383000000147,completion,,,1255591.1,1255589.1,1253296.04,1253300.5,1253312717,1255597522,,grey,UT29PI01,31,m,4,0,Lehramt,0,0,0,0,0
Frame,canvas.Frame,2_16,2022-06-10T15:41:13.672Z,,,0,V,2278.4830000000075,,,,1255591.3,1255591.2,1253296.04,1253299.7,1253312717,1255597522,,grey,UT29PI01,31,m,4,0,Lehramt,0,0,0,0,0
Fixation,canvas.Screen,2_17_0_0,2022-06-10T15:41:15.916Z,,,0,V,2252.6159999999218,timeout,,,1257834.8,1257833453,1255580845,1255592.4,1255597522,1257850138,,grey,UT29PI01,31,m,4,0,Lehramt,0,0,0,0,0
Stimulus,canvas.Screen,2_17_0_1,2022-06-10T15:41:16.015Z,,,0,V,98.61599999992177,timeout,,,1257933.7,1257932079,1257833453,1257835,1257850138,1257948754,,grey,UT29PI01,31,m,4,0,Lehramt,0,0,0,0,0
Reaction,canvas.Screen,2_17_0_2,2022-06-10T15:41:16.198Z,,,0,V,166.84600000013597,response,stim_detected,mousedown,1258117.1,1258115.6,1257932079,1257934,1257948754,1258132563,,grey,UT29PI01,31,m,4,0,Lehramt,0,0,0,0,0
Trial,flow.Sequence,2_17_0,2022-06-10T15:41:16.198Z,,,0,V,2518.0779999999795,completion,,,1258117.5,1258115.6,1255580845,1255592.4,1255597522,1258132563,,grey,UT29PI01,31,m,4,0,Lehramt,0,0,0,0,0
Frame,canvas.Frame,2_17,2022-06-10T15:41:16.199Z,,,0,V,2520.0779999999795,,,,1258117.8,1258117.6,1255580845,1255591.6,1255597522,1258132563,,grey,UT29PI01,31,m,4,0,Lehramt,0,0,0,0,0
Fixation,canvas.Screen,2_18_0_0,2022-06-10T15:41:17.833Z,,,1,A,1634.5849999999627,timeout,,,1259751.8,1259750469,1258115886,1258118.8,1258132563,1259767148,,black,UT29PI01,31,m,4,0,Lehramt,0,0,0,0,0
Stimulus,canvas.Screen,2_18_0_1,2022-06-10T15:41:17.933Z,,,1,A,99.97399999992922,timeout,,,1259851.8,1259850444,1259750469,1259752.2,1259767148,1259867122,,black,UT29PI01,31,m,4,0,Lehramt,0,0,0,0,0
Reaction,canvas.Screen,2_18_0_2,2022-06-10T15:41:18.252Z,,,1,A,302.9780000001192,response,stim_detected,mousedown,1260171.5,1260170.1,1259850444,1259852.1,1259867122,1260183905,,black,UT29PI01,31,m,4,0,Lehramt,0,0,0,0,0
Trial,flow.Sequence,2_18_0,2022-06-10T15:41:18.253Z,,,1,A,2037.5370000000112,completion,,,1260171.9,1260170.1,1258115886,1258118.8,1258132563,1260183905,,black,UT29PI01,31,m,4,0,Lehramt,0,0,0,0,0
Frame,canvas.Frame,2_18,2022-06-10T15:41:18.253Z,,,1,A,2039.5370000000112,,,,1260172.2,1260172.1,1258115886,1258118,1258132563,1260183905,,black,UT29PI01,31,m,4,0,Lehramt,0,0,0,0,0
Fixation,canvas.Screen,2_19_0_0,2022-06-10T15:41:19.800Z,,,0,V,1551.2849999999162,timeout,,,1261719.6,1261718.51,1260167228,1260173.4,1260183905,1261735.19,,grey,UT29PI01,31,m,4,0,Lehramt,0,0,0,0,0
Stimulus,canvas.Screen,2_19_0_1,2022-06-10T15:41:19.901Z,,,0,V,99.87400000006892,timeout,,,1261819.9,1261818386,1261718.51,1261719.8,1261735.19,1261835064,,grey,UT29PI01,31,m,4,0,Lehramt,0,0,0,0,0
Reaction,canvas.Screen,2_19_0_2,2022-06-10T15:41:20.077Z,,,0,V,159.93599999998696,response,stim_detected,mousedown,1261996.5,1261995,1261818386,1261820.2,1261835064,1262001732,,grey,UT29PI01,31,m,4,0,Lehramt,0,0,0,0,0
Trial,flow.Sequence,2_19_0,2022-06-10T15:41:20.078Z,,,0,V,1811.094999999972,completion,,,1261996.9,1261995,1260167228,1260173.3,1260183905,1262001732,,grey,UT29PI01,31,m,4,0,Lehramt,0,0,0,0,0
Frame,canvas.Frame,2_19,2022-06-10T15:41:20.078Z,,,0,V,1813.1950000000652,,,,1261997.4,1261997.1,1260167228,1260172.4,1260183905,1262001732,,grey,UT29PI01,31,m,4,0,Lehramt,0,0,0,0,0
Fixation,canvas.Screen,2_20_0_0,2022-06-10T15:41:21.586Z,,,1,AV,1518.4839999999385,timeout,,,1263505,1263503.53,1261985056,1261998.9,1262001732,1263520216,,grey,UT29PI01,31,m,4,0,Lehramt,0,0,0,0,0
Stimulus,canvas.Screen,2_20_0_1,2022-06-10T15:41:21.685Z,,,1,AV,99.14599999994971,timeout,,,1263604,1263602686,1263503.53,1263505.3,1263520216,1263619362,,grey,UT29PI01,31,m,4,0,Lehramt,0,0,0,0,0
Reaction,canvas.Screen,2_20_0_2,2022-06-10T15:41:21.849Z,,,1,AV,146.6380000000354,response,stim_detected,mousedown,1263767.9,1263766,1263602686,1263604.3,1263619362,1263769619,,grey,UT29PI01,31,m,4,0,Lehramt,0,0,0,0,0
Trial,flow.Sequence,2_20_0,2022-06-10T15:41:21.849Z,,,1,AV,1764.2679999999236,completion,,,1263768.2,1263766,1261985056,1261998.8,1262001732,1263769619,,grey,UT29PI01,31,m,4,0,Lehramt,0,0,0,0,0
Frame,canvas.Frame,2_20,2022-06-10T15:41:21.849Z,,,1,AV,1766.6679999998305,,,,1263768.7,1263768.4,1261985056,1261997.6,1262001732,1263769619,,grey,UT29PI01,31,m,4,0,Lehramt,0,0,0,0,0
Fixation,canvas.Screen,2_21_0_0,2022-06-10T15:41:23.803Z,,,1,AV,1967.7630000000354,timeout,,,1265722,1265720706,1263752942,1263769.8,1263769619,1265737382,,grey,UT29PI01,31,m,4,0,Lehramt,0,0,0,0,0
Stimulus,canvas.Screen,2_21_0_1,2022-06-10T15:41:23.903Z,,,1,AV,100.30000000004657,timeout,,,1265822,1265821003,1265720706,1265722.2,1265737382,1265837682,,grey,UT29PI01,31,m,4,0,Lehramt,0,0,0,0,0
Reaction,canvas.Screen,2_21_0_2,2022-06-10T15:41:24.032Z,,,1,AV,112.21799999987707,response,stim_detected,mousedown,1265951.5,1265949.9,1265821003,1265822.3,1265837682,1265954393,,grey,UT29PI01,31,m,4,0,Lehramt,0,0,0,0,0
Trial,flow.Sequence,2_21_0,2022-06-10T15:41:24.033Z,,,1,AV,2180.280999999959,completion,,,1265951.8,1265949.9,1263752942,1263769.7,1263769619,1265954393,,grey,UT29PI01,31,m,4,0,Lehramt,0,0,0,0,0
Frame,canvas.Frame,2_21,2022-06-10T15:41:24.033Z,,,1,AV,2182.280999999959,,,,1265952.1,1265951.9,1263752942,1263768.8,1263769619,1265954393,,grey,UT29PI01,31,m,4,0,Lehramt,0,0,0,0,0
Fixation,canvas.Screen,2_22_0_0,2022-06-10T15:41:25.788Z,,,0,V,1767.6500000001397,timeout,,,1267707.1,1267705367,1265937716,1265953.3,1265954393,1267722043,,grey,UT29PI01,31,m,4,0,Lehramt,0,0,0,0,0
Stimulus,canvas.Screen,2_22_0_1,2022-06-10T15:41:25.888Z,,,0,V,100.2949999999255,timeout,,,1267807.1,1267805.66,1267705367,1267707.4,1267722043,1267822338,,grey,UT29PI01,31,m,4,0,Lehramt,0,0,0,0,0
Reaction,canvas.Screen,2_22_0_2,2022-06-10T15:41:26.070Z,,,0,V,165.56199999991804,response,stim_detected,mousedown,1267989.3,1267987.9,1267805.66,1267807.4,1267822338,1268005749,,grey,UT29PI01,31,m,4,0,Lehramt,0,0,0,0,0
Trial,flow.Sequence,2_22_0,2022-06-10T15:41:26.071Z,,,0,V,2033.5069999999832,completion,,,1267989.7,1267987.9,1265937716,1265953.2,1265954393,1268005749,,grey,UT29PI01,31,m,4,0,Lehramt,0,0,0,0,0
Frame,canvas.Frame,2_22,2022-06-10T15:41:26.071Z,,,0,V,2035.407000000123,,,,1267990,1267989.8,1265937716,1265952.3,1265954393,1268005749,,grey,UT29PI01,31,m,4,0,Lehramt,0,0,0,0,0
Fixation,canvas.Screen,2_23_0_0,2022-06-10T15:41:27.639Z,,,0,V,1567.8629999998957,timeout,,,1269558.2,1269556933,1267989072,1267991.4,1268005749,1269573612,,grey,UT29PI01,31,m,4,0,Lehramt,0,0,0,0,0
Stimulus,canvas.Screen,2_23_0_1,2022-06-10T15:41:27.739Z,,,0,V,99.79700000002049,timeout,,,1269658.2,1269656733,1269556933,1269558.5,1269573612,1269673409,,grey,UT29PI01,31,m,4,0,Lehramt,0,0,0,0,0
Reaction,canvas.Screen,2_23_0_2,2022-06-10T15:41:27.909Z,,,0,V,153.39100000006147,response,stim_detected,mousedown,1269828.3,1269826.8,1269656733,1269658.4,1269673409,1269840295,,grey,UT29PI01,31,m,4,0,Lehramt,0,0,0,0,0
Trial,flow.Sequence,2_23_0,2022-06-10T15:41:27.910Z,,,0,V,1821.0509999999776,completion,,,1269828.7,1269826.8,1267989072,1267991.3,1268005749,1269840295,,grey,UT29PI01,31,m,4,0,Lehramt,0,0,0,0,0
Frame,canvas.Frame,2_23,2022-06-10T15:41:27.910Z,,,0,V,1823.0509999999776,,,,1269829,1269828.8,1267989072,1267990.2,1268005749,1269840295,,grey,UT29PI01,31,m,4,0,Lehramt,0,0,0,0,0
Fixation,canvas.Screen,2_24_0_0,2022-06-10T15:41:29.924Z,,,1,A,2018.190000000177,timeout,,,1271843.3,1271841806,1269823618,1269830.2,1269840295,1271858485,,black,UT29PI01,31,m,4,0,Lehramt,0,0,0,0,0
Stimulus,canvas.Screen,2_24_0_1,2022-06-10T15:41:30.024Z,,,1,A,99.79699999978766,timeout,,,1271943.3,1271941606,1271841806,1271843.6,1271858485,1271958282,,black,UT29PI01,31,m,4,0,Lehramt,0,0,0,0,0
Reaction,canvas.Screen,2_24_0_2,2022-06-10T15:41:30.229Z,,,1,A,188.41800000006333,response,stim_detected,mousedown,1272148.2,1272146.7,1271941606,1271943.6,1271958282,1272175155,,black,UT29PI01,31,m,4,0,Lehramt,0,0,0,0,0
Trial,flow.Sequence,2_24_0,2022-06-10T15:41:30.230Z,,,1,A,2306.405000000028,completion,,,1272148.6,1272146.7,1269823618,1269830,1269840295,1272175155,,black,UT29PI01,31,m,4,0,Lehramt,0,0,0,0,0
Frame,canvas.Frame,2_24,2022-06-10T15:41:30.230Z,,,1,A,2308.505000000121,,,,1272148.9,1272148.8,1269823618,1269829.2,1269840295,1272175155,,black,UT29PI01,31,m,4,0,Lehramt,0,0,0,0,0
Fixation,canvas.Screen,2_25_0_0,2022-06-10T15:41:31.993Z,,,1,A,1751.219000000041,timeout,,,1273911.4,1273909696,1272141801,1272150.1,1272175155,1273926374,,black,UT29PI01,31,m,4,0,Lehramt,0,0,0,0,0
Stimulus,canvas.Screen,2_25_0_1,2022-06-10T15:41:32.093Z,,,1,A,100.07499999995343,timeout,,,1274011.4,1274009771,1273909696,1273911.8,1273926374,1274026449,,black,UT29PI01,31,m,4,0,Lehramt,0,0,0,0,0
Reaction,canvas.Screen,2_25_0_2,2022-06-10T15:41:32.266Z,,,1,A,156.35100000002421,response,stim_detected,mousedown,1274184.3,1274182.8,1274009771,1274011.7,1274026449,1274193149,,black,UT29PI01,31,m,4,0,Lehramt,0,0,0,0,0
Trial,flow.Sequence,2_25_0,2022-06-10T15:41:32.266Z,,,1,A,2007.6450000000186,completion,,,1274184.8,1274182.8,1272141801,1272150,1272175155,1274193149,,black,UT29PI01,31,m,4,0,Lehramt,0,0,0,0,0
Frame,canvas.Frame,2_25,2022-06-10T15:41:32.266Z,,,1,A,2009.844999999972,,,,1274185.3,1274185,1272141801,1272149.1,1272175155,1274193149,,black,UT29PI01,31,m,4,0,Lehramt,0,0,0,0,0
Fixation,canvas.Screen,2_26_0_0,2022-06-10T15:41:33.911Z,,,0,V,1651.6840000001248,timeout,,,1275829.5,1275828.15,1274176472,1274186.3,1274193149,1275844833,,grey,UT29PI01,31,m,4,0,Lehramt,0,0,0,0,0
Stimulus,canvas.Screen,2_26_0_1,2022-06-10T15:41:34.010Z,,,0,V,99.23099999991246,timeout,,,1275928.5,1275927389,1275828.15,1275829.7,1275844833,1275944064,,grey,UT29PI01,31,m,4,0,Lehramt,0,0,0,0,0
Reaction,canvas.Screen,2_26_0_2,2022-06-10T15:41:34.183Z,,,0,V,155.6359999999404,response,stim_detected,mousedown,1276101.4,1276099.7,1275927389,1275928.6,1275944064,1276111086,,grey,UT29PI01,31,m,4,0,Lehramt,0,0,0,0,0
Trial,flow.Sequence,2_26_0,2022-06-10T15:41:34.183Z,,,0,V,1906.5509999999776,completion,,,1276101.8,1276099.7,1274176472,1274186.3,1274193149,1276111086,,grey,UT29PI01,31,m,4,0,Lehramt,0,0,0,0,0
Frame,canvas.Frame,2_26,2022-06-10T15:41:34.183Z,,,0,V,1908.8510000000242,,,,1276102.1,1276102,1274176472,1274185.5,1274193149,1276111086,,grey,UT29PI01,31,m,4,0,Lehramt,0,0,0,0,0
Fixation,canvas.Screen,2_27_0_0,2022-06-10T15:41:35.912Z,,,1,AV,1734.877000000095,timeout,,,1277830.5,1277829282,1276094409,1276103.4,1276111086,1277845963,,grey,UT29PI01,31,m,4,0,Lehramt,0,0,0,0,0
Stimulus,canvas.Screen,2_27_0_1,2022-06-10T15:41:36.012Z,,,1,AV,99.5590000001248,timeout,,,1277930.5,1277928846,1277829282,1277830.7,1277845963,1277945522,,grey,UT29PI01,31,m,4,0,Lehramt,0,0,0,0,0
Reaction,canvas.Screen,2_27_0_2,2022-06-10T15:41:36.150Z,,,1,AV,122.27799999993294,response,stim_detected,mousedown,1278069.2,1278067.8,1277928846,1277930.8,1277945522,1278079073,,grey,UT29PI01,31,m,4,0,Lehramt,0,0,0,0,0
Trial,flow.Sequence,2_27_0,2022-06-10T15:41:36.151Z,,,1,AV,1956.7140000001527,completion,,,1278069.6,1278067.8,1276094409,1276103.2,1276111086,1278079073,,grey,UT29PI01,31,m,4,0,Lehramt,0,0,0,0,0
Frame,canvas.Frame,2_27,2022-06-10T15:41:36.151Z,,,1,AV,1958.6140000000596,,,,1278069.9,1278069.7,1276094409,1276102.3,1276111086,1278079073,,grey,UT29PI01,31,m,4,0,Lehramt,0,0,0,0,0
Fixation,canvas.Screen,2_28_0_0,2022-06-10T15:41:37.880Z,,,1,A,1734.5270000000019,timeout,,,1279798.6,1279796922,1278062396,1278071.1,1278079073,1279813.6,,black,UT29PI01,31,m,4,0,Lehramt,0,0,0,0,0
Stimulus,canvas.Screen,2_28_0_1,2022-06-10T15:41:37.980Z,,,1,A,100.02099999994971,timeout,,,1279898.6,1279896944,1279796922,1279798.9,1279813.6,1279913621,,black,UT29PI01,31,m,4,0,Lehramt,0,0,0,0,0
Reaction,canvas.Screen,2_28_0_2,2022-06-10T15:41:38.232Z,,,1,A,235.0789999999106,response,stim_detected,mousedown,1280150.5,1280148.7,1279896944,1279898.8,1279913621,1280163774,,black,UT29PI01,31,m,4,0,Lehramt,0,0,0,0,0
Trial,flow.Sequence,2_28_0,2022-06-10T15:41:38.232Z,,,1,A,2069.626999999862,completion,,,1280151,1280148.7,1278062396,1278071,1278079073,1280163774,,black,UT29PI01,31,m,4,0,Lehramt,0,0,0,0,0
Frame,canvas.Frame,2_28,2022-06-10T15:41:38.233Z,,,1,A,2072.027000000002,,,,1280151.3,1280151.1,1278062396,1278070.1,1278079073,1280163774,,black,UT29PI01,31,m,4,0,Lehramt,0,0,0,0,0
Fixation,canvas.Screen,2_29_0_0,2022-06-10T15:41:40.615Z,,,1,A,2385.276000000071,timeout,,,1282533.8,1282532.37,1280147097,1280152.6,1280163774,1282549.05,,black,UT29PI01,31,m,4,0,Lehramt,0,0,0,0,0
Stimulus,canvas.Screen,2_29_0_1,2022-06-10T15:41:40.714Z,,,1,A,99.4660000000149,timeout,,,1282632.8,1282631.84,1282532.37,1282534.1,1282549.05,1282648516,,black,UT29PI01,31,m,4,0,Lehramt,0,0,0,0,0
Reaction,canvas.Screen,2_29_0_2,2022-06-10T15:41:40.911Z,,,1,A,180.08400000003166,response,stim_detected,mousedown,1282830.2,1282828.6,1282631.84,1282633.1,1282648516,1282832198,,black,UT29PI01,31,m,4,0,Lehramt,0,0,0,0,0
Trial,flow.Sequence,2_29_0,2022-06-10T15:41:40.912Z,,,1,A,2664.8260000001173,completion,,,1282830.6,1282828.6,1280147097,1280152.4,1280163774,1282832198,,black,UT29PI01,31,m,4,0,Lehramt,0,0,0,0,0
Frame,canvas.Frame,2_29,2022-06-10T15:41:40.912Z,,,1,A,2667.026000000071,,,,1282830.9,1282830.8,1280147097,1280151.6,1280163774,1282832198,,black,UT29PI01,31,m,4,0,Lehramt,0,0,0,0,0
Fixation,canvas.Screen,2_30_0_0,2022-06-10T15:41:42.449Z,,,1,AV,1550.746999999974,timeout,,,1284367.9,1284366.27,1282815521,1282832.1,1282832198,1284382945,,grey,UT29PI01,31,m,4,0,Lehramt,0,0,0,0,0
Stimulus,canvas.Screen,2_30_0_1,2022-06-10T15:41:42.549Z,,,1,AV,100.42299999995157,timeout,,,1284467.7,1284466.69,1284366.27,1284368.1,1284382945,1284483368,,grey,UT29PI01,31,m,4,0,Lehramt,0,0,0,0,0
Reaction,canvas.Screen,2_30_0_2,2022-06-10T15:41:42.729Z,,,1,AV,163.23200000007637,response,stim_detected,mousedown,1284648.1,1284646.6,1284466.69,1284467.9,1284483368,1284666761,,grey,UT29PI01,31,m,4,0,Lehramt,0,0,0,0,0
Trial,flow.Sequence,2_30_0,2022-06-10T15:41:42.730Z,,,1,AV,1814.4020000000019,completion,,,1284648.5,1284646.6,1282815521,1282832,1282832198,1284666761,,grey,UT29PI01,31,m,4,0,Lehramt,0,0,0,0,0
Frame,canvas.Frame,2_30,2022-06-10T15:41:42.730Z,,,1,AV,1816.5019999998622,,,,1284648.8,1284648.7,1282815521,1282831.1,1282832198,1284666761,,grey,UT29PI01,31,m,4,0,Lehramt,0,0,0,0,0
Fixation,canvas.Screen,2_31_0_0,2022-06-10T15:41:44.700Z,,,1,A,1967.3670000000857,timeout,,,1286618.9,1286617455,1284633407,1284650.2,1284666761,1286634128,,black,UT29PI01,31,m,4,0,Lehramt,0,0,0,0,0
Stimulus,canvas.Screen,2_31_0_1,2022-06-10T15:41:44.800Z,,,1,A,100.65399999986403,timeout,,,1286718.9,1286717628,1286617455,1286619.2,1286634128,1286734782,,black,UT29PI01,31,m,4,0,Lehramt,0,0,0,0,0
Reaction,canvas.Screen,2_31_0_2,2022-06-10T15:41:44.989Z,,,1,A,171.7180000001099,response,stim_detected,mousedown,1286908,1286906.5,1286717628,1286719.2,1286734782,1286918229,,black,UT29PI01,31,m,4,0,Lehramt,0,0,0,0,0
Trial,flow.Sequence,2_31_0,2022-06-10T15:41:44.990Z,,,1,A,2239.7390000000596,completion,,,1286908.5,1286906.5,1284633407,1284650.1,1284666761,1286918229,,black,UT29PI01,31,m,4,0,Lehramt,0,0,0,0,0
Frame,canvas.Frame,2_31,2022-06-10T15:41:44.990Z,,,1,A,2241.8390000001527,,,,1286908.9,1286908.6,1284633407,1284649,1284666761,1286918229,,black,UT29PI01,31,m,4,0,Lehramt,0,0,0,0,0
Fixation,canvas.Screen,2_32_0_0,2022-06-10T15:41:46.535Z,,,1,AV,1551.2879999999423,timeout,,,1288453.9,1288452837,1286901552,1286910,1286918229,1288469517,,grey,UT29PI01,31,m,4,0,Lehramt,0,0,0,0,0
Stimulus,canvas.Screen,2_32_0_1,2022-06-10T15:41:46.635Z,,,1,AV,99.65200000000186,timeout,,,1288553.5,1288552493,1288452837,1288454.2,1288469517,1288569169,,grey,UT29PI01,31,m,4,0,Lehramt,0,0,0,0,0
Reaction,canvas.Screen,2_32_0_2,2022-06-10T15:41:46.856Z,,,1,AV,204.3310000000056,response,stim_detected,mousedown,1288775,1288773.5,1288552493,1288553.6,1288569169,1288786096,,grey,UT29PI01,31,m,4,0,Lehramt,0,0,0,0,0
Trial,flow.Sequence,2_32_0,2022-06-10T15:41:46.857Z,,,1,AV,1855.2709999999497,completion,,,1288775.5,1288773.5,1286901552,1286909.9,1286918229,1288786096,,grey,UT29PI01,31,m,4,0,Lehramt,0,0,0,0,0
Frame,canvas.Frame,2_32,2022-06-10T15:41:46.857Z,,,1,AV,1857.3710000000428,,,,1288775.8,1288775.6,1286901552,1286909.1,1286918229,1288786096,,grey,UT29PI01,31,m,4,0,Lehramt,0,0,0,0,0
Fixation,canvas.Screen,2_33_0_0,2022-06-10T15:41:48.687Z,,,0,V,1835.2290000000503,timeout,,,1290606.1,1290604642,1288769419,1288777,1288786096,1290621325,,grey,UT29PI01,31,m,4,0,Lehramt,0,0,0,0,0
Stimulus,canvas.Screen,2_33_0_1,2022-06-10T15:41:48.786Z,,,0,V,99.21200000005774,timeout,,,1290704.9,1290703861,1290604642,1290606.3,1290621325,1290720537,,grey,UT29PI01,31,m,4,0,Lehramt,0,0,0,0,0
Reaction,canvas.Screen,2_33_0_2,2022-06-10T15:41:48.997Z,,,0,V,193.96299999998882,response,stim_detected,mousedown,1290916.2,1290914.5,1290703861,1290705.2,1290720537,1290920889,,grey,UT29PI01,31,m,4,0,Lehramt,0,0,0,0,0
Trial,flow.Sequence,2_33_0,2022-06-10T15:41:48.998Z,,,0,V,2128.404000000097,completion,,,1290916.6,1290914.5,1288769419,1288777,1288786096,1290920889,,grey,UT29PI01,31,m,4,0,Lehramt,0,0,0,0,0
Frame,canvas.Frame,2_33,2022-06-10T15:41:48.998Z,,,0,V,2130.6040000000503,,,,1290916.9,1290916.7,1288769419,1288776,1288786096,1290920889,,grey,UT29PI01,31,m,4,0,Lehramt,0,0,0,0,0
Fixation,canvas.Screen,2_34_0_0,2022-06-10T15:41:50.537Z,,,1,A,1550.527999999933,timeout,,,1292456.1,1292454744,1290904212,1290918.1,1290920889,1292471417,,black,UT29PI01,31,m,4,0,Lehramt,0,0,0,0,0
Stimulus,canvas.Screen,2_34_0_1,2022-06-10T15:41:50.637Z,,,1,A,100.56900000013411,timeout,,,1292556.2,1292555308,1292454744,1292456.4,1292471417,1292571986,,black,UT29PI01,31,m,4,0,Lehramt,0,0,0,0,0
Reaction,canvas.Screen,2_34_0_2,2022-06-10T15:41:50.860Z,,,1,A,205.51399999996647,response,stim_detected,mousedown,1292778.9,1292777.5,1292555308,1292556.5,1292571986,1292788735,,black,UT29PI01,31,m,4,0,Lehramt,0,0,0,0,0
Trial,flow.Sequence,2_34_0,2022-06-10T15:41:50.860Z,,,1,A,1856.6110000000335,completion,,,1292779.3,1292777.5,1290904212,1290918.1,1290920889,1292788735,,black,UT29PI01,31,m,4,0,Lehramt,0,0,0,0,0
Frame,canvas.Frame,2_34,2022-06-10T15:41:50.861Z,,,1,A,1858.5109999999404,,,,1292779.6,1292779.4,1290904212,1290917.1,1290920889,1292788735,,black,UT29PI01,31,m,4,0,Lehramt,0,0,0,0,0
Fixation,canvas.Screen,2_35_0_0,2022-06-10T15:41:53.341Z,,,1,AV,2486.315999999875,timeout,,,1295259.3,1295258365,1292772059,1292781.1,1292788735,1295275051,,grey,UT29PI01,31,m,4,0,Lehramt,0,0,0,0,0
Stimulus,canvas.Screen,2_35_0_1,2022-06-10T15:41:53.440Z,,,1,AV,98.52200000011362,timeout,,,1295358.4,1295356897,1295258365,1295259.6,1295275051,1295373573,,grey,UT29PI01,31,m,4,0,Lehramt,0,0,0,0,0
Reaction,canvas.Screen,2_35_0_2,2022-06-10T15:41:53.594Z,,,1,AV,137.8269999998156,response,stim_detected,mousedown,1295513,1295511.4,1295356897,1295358.8,1295373573,1295523933,,grey,UT29PI01,31,m,4,0,Lehramt,0,0,0,0,0
Trial,flow.Sequence,2_35_0,2022-06-10T15:41:53.595Z,,,1,AV,2722.6649999998044,completion,,,1295513.4,1295511.4,1292772059,1292781,1292788735,1295523933,,grey,UT29PI01,31,m,4,0,Lehramt,0,0,0,0,0
Frame,canvas.Frame,2_35,2022-06-10T15:41:53.595Z,,,1,AV,2724.7649999998976,,,,1295513.8,1295513.5,1292772059,1292779.8,1292788735,1295523933,,grey,UT29PI01,31,m,4,0,Lehramt,0,0,0,0,0
Fixation,canvas.Screen,2_36_0_0,2022-06-10T15:41:55.958Z,,,0,V,2367.5130000000354,timeout,,,1297876.9,1297874773,1295507256,1295515,1295523933,1297891446,,grey,UT29PI01,31,m,4,0,Lehramt,0,0,0,0,0
Stimulus,canvas.Screen,2_36_0_1,2022-06-10T15:41:56.059Z,,,0,V,100.82499999995343,timeout,,,1297977.5,1297975592,1297874773,1297877,1297891446,1297992271,,grey,UT29PI01,31,m,4,0,Lehramt,0,0,0,0,0
Reaction,canvas.Screen,2_36_0_2,2022-06-10T15:41:56.222Z,,,0,V,147.12899999995716,response,stim_detected,mousedown,1298140.9,1298139.4,1297975592,1297977.7,1297992271,1298158951,,grey,UT29PI01,31,m,4,0,Lehramt,0,0,0,0,0
Trial,flow.Sequence,2_36_0,2022-06-10T15:41:56.222Z,,,0,V,2615.466999999946,completion,,,1298141.3,1298139.4,1295507256,1295514.9,1295523933,1298158951,,grey,UT29PI01,31,m,4,0,Lehramt,0,0,0,0,0
Frame,canvas.Frame,2_36,2022-06-10T15:41:56.223Z,,,0,V,2617.567000000039,,,,1298141.6,1298141.5,1295507256,1295514.1,1295523933,1298158951,,grey,UT29PI01,31,m,4,0,Lehramt,0,0,0,0,0
Fixation,canvas.Screen,2_37_0_0,2022-06-10T15:41:58.595Z,,,1,A,2369.3390000001527,timeout,,,1300513.8,1300511605,1298125599,1298143,1298158951,1300528.29,,black,UT29PI01,31,m,4,0,Lehramt,0,0,0,0,0
Stimulus,canvas.Screen,2_37_0_1,2022-06-10T15:41:58.693Z,,,1,A,98.60899999993853,timeout,,,1300611.6,1300610224,1300511605,1300514.1,1300528.29,1300626899,,black,UT29PI01,31,m,4,0,Lehramt,0,0,0,0,0
Reaction,canvas.Screen,2_37_0_2,2022-06-10T15:41:58.888Z,,,1,A,178.50099999993108,response,stim_detected,mousedown,1300806.9,1300805.4,1300610224,1300611.7,1300626899,1300810749,,black,UT29PI01,31,m,4,0,Lehramt,0,0,0,0,0
Trial,flow.Sequence,2_37_0,2022-06-10T15:41:58.888Z,,,1,A,2646.4490000000224,completion,,,1300807.3,1300805.4,1298125599,1298142.9,1298158951,1300810749,,black,UT29PI01,31,m,4,0,Lehramt,0,0,0,0,0
Frame,canvas.Frame,2_37,2022-06-10T15:41:58.889Z,,,1,A,2648.4490000000224,,,,1300807.6,1300807.4,1298125599,1298141.8,1298158951,1300810749,,black,UT29PI01,31,m,4,0,Lehramt,0,0,0,0,0
Fixation,canvas.Screen,2_38_0_0,2022-06-10T15:42:01.162Z,,,0,V,2285.034999999916,timeout,,,1303080.7,1303079105,1300794072,1300808.7,1300810749,1303095784,,grey,UT29PI01,31,m,4,0,Lehramt,0,0,0,0,0
Stimulus,canvas.Screen,2_38_0_1,2022-06-10T15:42:01.261Z,,,0,V,99.38100000005215,timeout,,,1303179.7,1303178491,1303079105,1303081,1303095784,1303195165,,grey,UT29PI01,31,m,4,0,Lehramt,0,0,0,0,0
Reaction,canvas.Screen,2_38_0_2,2022-06-10T15:42:01.458Z,,,0,V,180.03499999991618,response,stim_detected,mousedown,1303376.8,1303375.2,1303178491,1303180,1303195165,1303379.1,,grey,UT29PI01,31,m,4,0,Lehramt,0,0,0,0,0
Trial,flow.Sequence,2_38_0,2022-06-10T15:42:01.458Z,,,0,V,2564.4509999998845,completion,,,1303377.2,1303375.2,1300794072,1300808.6,1300810749,1303379.1,,grey,UT29PI01,31,m,4,0,Lehramt,0,0,0,0,0
Frame,canvas.Frame,2_38,2022-06-10T15:42:01.459Z,,,0,V,2566.5509999999776,,,,1303377.6,1303377.3,1300794072,1300807.8,1300810749,1303379.1,,grey,UT29PI01,31,m,4,0,Lehramt,0,0,0,0,0
Fixation,canvas.Screen,2_39_0_0,2022-06-10T15:42:03.480Z,,,0,V,2034.7330000000075,timeout,,,1305398.6,1305397155,1303362423,1303378.7,1303379.1,1305413833,,grey,UT29PI01,31,m,4,0,Lehramt,0,0,0,0,0
Stimulus,canvas.Screen,2_39_0_1,2022-06-10T15:42:03.580Z,,,0,V,99.80599999986589,timeout,,,1305498.6,1305496963,1305397155,1305398.8,1305413833,1305513639,,grey,UT29PI01,31,m,4,0,Lehramt,0,0,0,0,0
Reaction,canvas.Screen,2_39_0_2,2022-06-10T15:42:03.782Z,,,0,V,185.56099999998696,response,stim_detected,mousedown,1305700.7,1305699.2,1305496963,1305498.8,1305513639,1305713.96,,grey,UT29PI01,31,m,4,0,Lehramt,0,0,0,0,0
Trial,flow.Sequence,2_39_0,2022-06-10T15:42:03.782Z,,,0,V,2320.0999999998603,completion,,,1305701.1,1305699.2,1303362423,1303378.6,1303379.1,1305713.96,,grey,UT29PI01,31,m,4,0,Lehramt,0,0,0,0,0
Frame,canvas.Frame,2_39,2022-06-10T15:42:03.783Z,,,0,V,2322.1999999999534,,,,1305701.5,1305701.3,1303362423,1303377.8,1303379.1,1305713.96,,grey,UT29PI01,31,m,4,0,Lehramt,0,0,0,0,0
Fixation,canvas.Screen,2_40_0_0,2022-06-10T15:42:06.116Z,,,1,AV,2335.9469999999274,timeout,,,1308034.8,1308033222,1305697283,1305702.9,1305713.96,1308049907,,grey,UT29PI01,31,m,4,0,Lehramt,0,0,0,0,0
Stimulus,canvas.Screen,2_40_0_1,2022-06-10T15:42:06.215Z,,,1,AV,98.66500000003725,timeout,,,1308133.8,1308131897,1308033222,1308035,1308049907,1308148572,,grey,UT29PI01,31,m,4,0,Lehramt,0,0,0,0,0
Reaction,canvas.Screen,2_40_0_2,2022-06-10T15:42:06.353Z,,,1,AV,121.62800000002608,response,stim_detected,mousedown,1308271.7,1308270.2,1308131897,1308134,1308148572,1308282359,,grey,UT29PI01,31,m,4,0,Lehramt,0,0,0,0,0
Trial,flow.Sequence,2_40_0,2022-06-10T15:42:06.353Z,,,1,AV,2556.2399999999907,completion,,,1308272,1308270.2,1305697283,1305702.7,1305713.96,1308282359,,grey,UT29PI01,31,m,4,0,Lehramt,0,0,0,0,0
Frame,canvas.Frame,2_40,2022-06-10T15:42:06.354Z,,,1,AV,2558.340000000084,,,,1308272.4,1308272.3,1305697283,1305701.7,1305713.96,1308282359,,grey,UT29PI01,31,m,4,0,Lehramt,0,0,0,0,0
Fixation,canvas.Screen,2_41_0_0,2022-06-10T15:42:08.049Z,,,1,A,1700.4850000001024,timeout,,,1309967.8,1309966172,1308265682,1308273.5,1308282359,1309982844,,black,UT29PI01,31,m,4,0,Lehramt,0,0,0,0,0
Stimulus,canvas.Screen,2_41_0_1,2022-06-10T15:42:08.150Z,,,1,A,100.7589999998454,timeout,,,1310068.8,1310066922,1309966172,1309968,1309982844,1310083603,,black,UT29PI01,31,m,4,0,Lehramt,0,0,0,0,0
Reaction,canvas.Screen,2_41_0_2,2022-06-10T15:42:08.339Z,,,1,A,172.49700000020675,response,stim_detected,mousedown,1310257.6,1310256.1,1310066922,1310068.9,1310083603,1310266996,,black,UT29PI01,31,m,4,0,Lehramt,0,0,0,0,0
Trial,flow.Sequence,2_41_0,2022-06-10T15:42:08.339Z,,,1,A,1973.7410000001546,completion,,,1310258.1,1310256.1,1308265682,1308273.5,1308282359,1310266996,,black,UT29PI01,31,m,4,0,Lehramt,0,0,0,0,0
Frame,canvas.Frame,2_41,2022-06-10T15:42:08.339Z,,,1,A,1975.7410000001546,,,,1310258.3,1310258.1,1308265682,1308272.6,1308282359,1310266996,,black,UT29PI01,31,m,4,0,Lehramt,0,0,0,0,0
Fixation,canvas.Screen,2_42_0_0,2022-06-10T15:42:10.251Z,,,1,A,1917.7409999999218,timeout,,,1312170,1312168061,1310250319,1310259.8,1310266996,1312184737,,black,UT29PI01,31,m,4,0,Lehramt,0,0,0,0,0
Stimulus,canvas.Screen,2_42_0_1,2022-06-10T15:42:10.350Z,,,1,A,99.83600000012666,timeout,,,1312269,1312267899,1312168061,1312170.2,1312184737,1312284573,,black,UT29PI01,31,m,4,0,Lehramt,0,0,0,0,0
Reaction,canvas.Screen,2_42_0_2,2022-06-10T15:42:10.513Z,,,1,A,145.62699999986216,response,stim_detected,mousedown,1312431.8,1312430.2,1312267899,1312269.3,1312284573,1312435074,,black,UT29PI01,31,m,4,0,Lehramt,0,0,0,0,0
Trial,flow.Sequence,2_42_0,2022-06-10T15:42:10.513Z,,,1,A,2163.2039999999106,completion,,,1312432.3,1312430.2,1310250319,1310259.8,1310266996,1312435074,,black,UT29PI01,31,m,4,0,Lehramt,0,0,0,0,0
Frame,canvas.Frame,2_42,2022-06-10T15:42:10.514Z,,,1,A,2165.403999999864,,,,1312432.7,1312432.4,1310250319,1310258.6,1310266996,1312435074,,black,UT29PI01,31,m,4,0,Lehramt,0,0,0,0,0
Fixation,canvas.Screen,2_43_0_0,2022-06-10T15:42:12.770Z,,,1,AV,2268.966000000015,timeout,,,1314689,1314687357,1312418397,1312433.8,1312435074,1314704.04,,grey,UT29PI01,31,m,4,0,Lehramt,0,0,0,0,0
Stimulus,canvas.Screen,2_43_0_1,2022-06-10T15:42:12.869Z,,,1,AV,99.36800000001676,timeout,,,1314788,1314786.73,1314687357,1314689.3,1314704.04,1314803408,,grey,UT29PI01,31,m,4,0,Lehramt,0,0,0,0,0
Reaction,canvas.Screen,2_43_0_2,2022-06-10T15:42:13.029Z,,,1,AV,142.69200000003912,response,stim_detected,mousedown,1314947.6,1314946.1,1314786.73,1314788.4,1314803408,1314953415,,grey,UT29PI01,31,m,4,0,Lehramt,0,0,0,0,0
Trial,flow.Sequence,2_43_0,2022-06-10T15:42:13.029Z,,,1,AV,2511.026000000071,completion,,,1314948,1314946.1,1312418397,1312433.7,1312435074,1314953415,,grey,UT29PI01,31,m,4,0,Lehramt,0,0,0,0,0
Frame,canvas.Frame,2_43,2022-06-10T15:42:13.029Z,,,1,AV,2513.026000000071,,,,1314948.3,1314948.1,1312418397,1312432.8,1312435074,1314953415,,grey,UT29PI01,31,m,4,0,Lehramt,0,0,0,0,0
Fixation,canvas.Screen,2_44_0_0,2022-06-10T15:42:14.771Z,,,1,A,1751.558999999892,timeout,,,1316690.1,1316688293,1314936738,1314949.4,1314953415,1316704974,,black,UT29PI01,31,m,4,0,Lehramt,0,0,0,0,0
Stimulus,canvas.Screen,2_44_0_1,2022-06-10T15:42:14.870Z,,,1,A,99.49200000008568,timeout,,,1316789.1,1316787.79,1316688293,1316690.4,1316704974,1316804466,,black,UT29PI01,31,m,4,0,Lehramt,0,0,0,0,0
Reaction,canvas.Screen,2_44_0_2,2022-06-10T15:42:15.092Z,,,1,A,204.63400000007823,response,stim_detected,mousedown,1317010.6,1317009.1,1316787.79,1316789.3,1316804466,1317021448,,black,UT29PI01,31,m,4,0,Lehramt,0,0,0,0,0
Trial,flow.Sequence,2_44_0,2022-06-10T15:42:15.092Z,,,1,A,2055.685000000056,completion,,,1317010.9,1317009.1,1314936738,1314949.3,1314953415,1317021448,,black,UT29PI01,31,m,4,0,Lehramt,0,0,0,0,0
Frame,canvas.Frame,2_44,2022-06-10T15:42:15.092Z,,,1,A,2057.685000000056,,,,1317011.3,1317011.1,1314936738,1314948.5,1314953415,1317021448,,black,UT29PI01,31,m,4,0,Lehramt,0,0,0,0,0
Fixation,canvas.Screen,2_45_0_0,2022-06-10T15:42:17.538Z,,,1,A,2451.033999999985,timeout,,,1319457.3,1319455808,1317004771,1317012.4,1317021448,1319472482,,black,UT29PI01,31,m,4,0,Lehramt,0,0,0,0,0
Stimulus,canvas.Screen,2_45_0_1,2022-06-10T15:42:17.640Z,,,1,A,100.6679999998305,timeout,,,1319558.4,1319556472,1319455808,1319457.5,1319472482,1319573.15,,black,UT29PI01,31,m,4,0,Lehramt,0,0,0,0,0
Reaction,canvas.Screen,2_45_0_2,2022-06-10T15:42:17.786Z,,,1,A,129.85000000009313,response,stim_detected,mousedown,1319704.5,1319703,1319556472,1319558.6,1319573.15,1319706523,,black,UT29PI01,31,m,4,0,Lehramt,0,0,0,0,0
Trial,flow.Sequence,2_45_0,2022-06-10T15:42:17.786Z,,,1,A,2681.5519999999087,completion,,,1319704.9,1319703,1317004771,1317012.4,1317021448,1319706523,,black,UT29PI01,31,m,4,0,Lehramt,0,0,0,0,0
Frame,canvas.Frame,2_45,2022-06-10T15:42:17.787Z,,,1,A,2683.5519999999087,,,,1319705.3,1319705,1317004771,1317011.5,1317021448,1319706523,,black,UT29PI01,31,m,4,0,Lehramt,0,0,0,0,0
Fixation,canvas.Screen,2_46_0_0,2022-06-10T15:42:19.374Z,,,1,A,1601.9469999999274,timeout,,,1321293.3,1321291784,1319689846,1319706.6,1319706523,1321308.47,,black,UT29PI01,31,m,4,0,Lehramt,0,0,0,0,0
Stimulus,canvas.Screen,2_46_0_1,2022-06-10T15:42:19.473Z,,,1,A,99.27600000007078,timeout,,,1321392.3,1321391068,1321291784,1321293.4,1321308.47,1321407746,,black,UT29PI01,31,m,4,0,Lehramt,0,0,0,0,0
Reaction,canvas.Screen,2_46_0_2,2022-06-10T15:42:19.679Z,,,1,A,188.25399999995716,response,stim_detected,mousedown,1321597.5,1321596,1321391068,1321392.6,1321407746,1321607814,,black,UT29PI01,31,m,4,0,Lehramt,0,0,0,0,0
Trial,flow.Sequence,2_46_0,2022-06-10T15:42:19.679Z,,,1,A,1889.4769999999553,completion,,,1321597.8,1321596,1319689846,1319706.5,1319706523,1321607814,,black,UT29PI01,31,m,4,0,Lehramt,0,0,0,0,0
Frame,canvas.Frame,2_46,2022-06-10T15:42:19.679Z,,,1,A,1891.3769999998622,,,,1321598.2,1321597.9,1319689846,1319705.5,1319706523,1321607814,,black,UT29PI01,31,m,4,0,Lehramt,0,0,0,0,0
Fixation,canvas.Screen,2_47_0_0,2022-06-10T15:42:21.960Z,,,1,AV,2285.530000000028,timeout,,,1323878.6,1323876662,1321591137,1321599.3,1321607814,1323893344,,grey,UT29PI01,31,m,4,0,Lehramt,0,0,0,0,0
Stimulus,canvas.Screen,2_47_0_1,2022-06-10T15:42:22.059Z,,,1,AV,99.03799999994226,timeout,,,1323977.5,1323975707,1323876662,1323878.8,1323893344,1323992382,,grey,UT29PI01,31,m,4,0,Lehramt,0,0,0,0,0
Reaction,canvas.Screen,2_47_0_2,2022-06-10T15:42:22.193Z,,,1,AV,117.51799999992363,response,stim_detected,mousedown,1324111.5,1324109.9,1323975707,1323977.8,1323992382,1324126139,,grey,UT29PI01,31,m,4,0,Lehramt,0,0,0,0,0
Trial,flow.Sequence,2_47_0,2022-06-10T15:42:22.193Z,,,1,AV,2502.085999999894,completion,,,1324111.9,1324109.9,1321591137,1321599.2,1321607814,1324126139,,grey,UT29PI01,31,m,4,0,Lehramt,0,0,0,0,0
Frame,canvas.Frame,2_47,2022-06-10T15:42:22.193Z,,,1,AV,2504.28600000008,,,,1324112.3,1324112.1,1321591137,1321598.3,1321607814,1324126139,,grey,UT29PI01,31,m,4,0,Lehramt,0,0,0,0,0
Fixation,canvas.Screen,2_48_0_0,2022-06-10T15:42:24.011Z,,,1,AV,1818.375999999931,timeout,,,1325929.4,1325927833,1324109462,1324113.6,1324126139,1325944515,,grey,UT29PI01,31,m,4,0,Lehramt,0,0,0,0,0
Stimulus,canvas.Screen,2_48_0_1,2022-06-10T15:42:24.110Z,,,1,AV,99.38300000014715,timeout,,,1326028.5,1326027222,1325927833,1325929.8,1325944515,1326043898,,grey,UT29PI01,31,m,4,0,Lehramt,0,0,0,0,0
Reaction,canvas.Screen,2_48_0_2,2022-06-10T15:42:24.248Z,,,1,AV,121.90200000000186,response,stim_detected,mousedown,1326167.3,1326165.8,1326027222,1326028.7,1326043898,1326177503,,grey,UT29PI01,31,m,4,0,Lehramt,0,0,0,0,0
Trial,flow.Sequence,2_48_0,2022-06-10T15:42:24.249Z,,,1,AV,2039.66100000008,completion,,,1326167.6,1326165.8,1324109462,1324113.4,1324126139,1326177503,,grey,UT29PI01,31,m,4,0,Lehramt,0,0,0,0,0
Frame,canvas.Frame,2_48,2022-06-10T15:42:24.249Z,,,1,AV,2041.66100000008,,,,1326167.9,1326167.8,1324109462,1324112.6,1324126139,1326177503,,grey,UT29PI01,31,m,4,0,Lehramt,0,0,0,0,0
Fixation,canvas.Screen,2_49_0_0,2022-06-10T15:42:26.512Z,,,0,V,2267.9250000000466,timeout,,,1328430.5,1328428752,1326160826,1326169.1,1326177503,1328445428,,grey,UT29PI01,31,m,4,0,Lehramt,0,0,0,0,0
Stimulus,canvas.Screen,2_49_0_1,2022-06-10T15:42:26.612Z,,,0,V,100.34400000004098,timeout,,,1328530.7,1328529094,1328428752,1328430.8,1328445428,1328545772,,grey,UT29PI01,31,m,4,0,Lehramt,0,0,0,0,0
Reaction,canvas.Screen,2_49_0_2,2022-06-10T15:42:26.776Z,,,0,V,148.02799999993294,response,stim_detected,mousedown,1328695.3,1328693.8,1328529094,1328531.1,1328545772,1328712507,,grey,UT29PI01,31,m,4,0,Lehramt,0,0,0,0,0
Trial,flow.Sequence,2_49_0,2022-06-10T15:42:26.777Z,,,0,V,2516.2970000000205,completion,,,1328695.9,1328693.8,1326160826,1326169,1326177503,1328712507,,grey,UT29PI01,31,m,4,0,Lehramt,0,0,0,0,0
Frame,canvas.Frame,2_49,2022-06-10T15:42:26.777Z,,,0,V,2518.597000000067,,,,1328696.2,1328696.1,1326160826,1326168.2,1326177503,1328712507,,grey,UT29PI01,31,m,4,0,Lehramt,0,0,0,0,0
Fixation,canvas.Screen,2_50_0_0,2022-06-10T15:42:28.498Z,,,0,V,1718.0730000000913,timeout,,,1330416.4,1330413.9,1328695.83,1328697.7,1328712507,1330430.58,,grey,UT29PI01,31,m,4,0,Lehramt,0,0,0,0,0
Stimulus,canvas.Screen,2_50_0_1,2022-06-10T15:42:28.596Z,,,0,V,99.63199999998324,timeout,,,1330514.6,1330513536,1330413.9,1330416.6,1330430.58,1330530212,,grey,UT29PI01,31,m,4,0,Lehramt,0,0,0,0,0
Reaction,canvas.Screen,2_50_0_2,2022-06-10T15:42:28.758Z,,,0,V,145.58799999998882,response,stim_detected,mousedown,1330677.2,1330675.8,1330513536,1330514.8,1330530212,1330680506,,grey,UT29PI01,31,m,4,0,Lehramt,0,0,0,0,0
Trial,flow.Sequence,2_50_0,2022-06-10T15:42:28.759Z,,,0,V,1963.2930000000633,completion,,,1330677.8,1330675.8,1328695.83,1328697.6,1328712507,1330680506,,grey,UT29PI01,31,m,4,0,Lehramt,0,0,0,0,0
Frame,canvas.Frame,2_50,2022-06-10T15:42:28.759Z,,,0,V,1965.3929999999236,,,,1330678.1,1330677.9,1328695.83,1328696.5,1328712507,1330680506,,grey,UT29PI01,31,m,4,0,Lehramt,0,0,0,0,0
Fixation,canvas.Screen,2_51_0_0,2022-06-10T15:42:30.281Z,,,1,AV,1533.6629999999423,timeout,,,1332198.5,1332197498,1330663829,1330679.5,1330680506,1332214169,,grey,UT29PI01,31,m,4,0,Lehramt,0,0,0,0,0
Stimulus,canvas.Screen,2_51_0_1,2022-06-10T15:42:30.382Z,,,1,AV,100.6929999999702,timeout,,,1332299.6,1332298185,1332197498,1332198.8,1332214169,1332314862,,grey,UT29PI01,31,m,4,0,Lehramt,0,0,0,0,0
Reaction,canvas.Screen,2_51_0_2,2022-06-10T15:42:30.498Z,,,1,AV,98.93800000008196,response,stim_detected,mousedown,1332415.3,1332413.8,1332298185,1332299.9,1332314862,1332431586,,grey,UT29PI01,31,m,4,0,Lehramt,0,0,0,0,0
Trial,flow.Sequence,2_51_0,2022-06-10T15:42:30.498Z,,,1,AV,1733.2939999999944,completion,,,1332415.9,1332413.8,1330663829,1330679.4,1330680506,1332431586,,grey,UT29PI01,31,m,4,0,Lehramt,0,0,0,0,0
Frame,canvas.Frame,2_51,2022-06-10T15:42:30.498Z,,,1,AV,1735.4939999999478,,,,1332416.2,1332416,1330663829,1330678.4,1330680506,1332431586,,grey,UT29PI01,31,m,4,0,Lehramt,0,0,0,0,0
Fixation,canvas.Screen,2_52_0_0,2022-06-10T15:42:32.868Z,,,1,AV,2369.80700000003,timeout,,,1334786.3,1334784705,1332414.91,1332417.4,1332431586,1334801393,,grey,UT29PI01,31,m,4,0,Lehramt,0,0,0,0,0
Stimulus,canvas.Screen,2_52_0_1,2022-06-10T15:42:32.966Z,,,1,AV,97.38100000005215,timeout,,,1334883.9,1334882104,1334784705,1334786.6,1334801393,1334898774,,grey,UT29PI01,31,m,4,0,Lehramt,0,0,0,0,0
Reaction,canvas.Screen,2_52_0_2,2022-06-10T15:42:33.105Z,,,1,AV,122.92599999997765,response,stim_detected,mousedown,1335023.3,1335021.7,1334882104,1334884.2,1334898774,1335033313,,grey,UT29PI01,31,m,4,0,Lehramt,0,0,0,0,0
Trial,flow.Sequence,2_52_0,2022-06-10T15:42:33.106Z,,,1,AV,2590.1140000000596,completion,,,1335023.7,1335021.7,1332414.91,1332417.3,1332431586,1335033313,,grey,UT29PI01,31,m,4,0,Lehramt,0,0,0,0,0
Frame,canvas.Frame,2_52,2022-06-10T15:42:33.106Z,,,1,AV,2592.2140000001527,,,,1335024,1335023.8,1332414.91,1332416.4,1332431586,1335033313,,grey,UT29PI01,31,m,4,0,Lehramt,0,0,0,0,0
Fixation,canvas.Screen,2_53_0_0,2022-06-10T15:42:34.852Z,,,0,V,1751.6709999998566,timeout,,,1336769.8,1336768302,1335016636,1335025.4,1335033313,1336784984,,grey,UT29PI01,31,m,4,0,Lehramt,0,0,0,0,0
Stimulus,canvas.Screen,2_53_0_1,2022-06-10T15:42:34.951Z,,,0,V,99.44500000006519,timeout,,,1336868.7,1336867753,1336768302,1336770.1,1336784984,1336884429,,grey,UT29PI01,31,m,4,0,Lehramt,0,0,0,0,0
Reaction,canvas.Screen,2_53_0_2,2022-06-10T15:42:35.105Z,,,0,V,136.2709999999497,response,stim_detected,mousedown,1337022.4,1337020.7,1336867753,1336869.1,1336884429,1337034679,,grey,UT29PI01,31,m,4,0,Lehramt,0,0,0,0,0
Trial,flow.Sequence,2_53_0,2022-06-10T15:42:35.105Z,,,0,V,1987.3869999998715,completion,,,1337022.7,1337020.7,1335016636,1335025.3,1335033313,1337034679,,grey,UT29PI01,31,m,4,0,Lehramt,0,0,0,0,0
Frame,canvas.Frame,2_53,2022-06-10T15:42:35.105Z,,,0,V,1989.586999999825,,,,1337023,1337022.9,1335016636,1335024.2,1335033313,1337034679,,grey,UT29PI01,31,m,4,0,Lehramt,0,0,0,0,0
Fixation,canvas.Screen,2_54_0_0,2022-06-10T15:42:37.386Z,,,1,AV,2284.899999999907,timeout,,,1339303.9,1339302901,1337018002,1337024.3,1337034679,1339319579,,grey,UT29PI01,31,m,4,0,Lehramt,0,0,0,0,0
Stimulus,canvas.Screen,2_54_0_1,2022-06-10T15:42:37.486Z,,,1,AV,99.78000000002794,timeout,,,1339403.8,1339402683,1339302901,1339304.3,1339319579,1339419359,,grey,UT29PI01,31,m,4,0,Lehramt,0,0,0,0,0
Reaction,canvas.Screen,2_54_0_2,2022-06-10T15:42:37.638Z,,,1,AV,135.2410000001546,response,stim_detected,mousedown,1339556.1,1339554.6,1339402683,1339404.1,1339419359,1339569668,,grey,UT29PI01,31,m,4,0,Lehramt,0,0,0,0,0
Trial,flow.Sequence,2_54_0,2022-06-10T15:42:37.639Z,,,1,AV,2519.9210000000894,completion,,,1339556.5,1339554.6,1337018002,1337024.2,1337034679,1339569668,,grey,UT29PI01,31,m,4,0,Lehramt,0,0,0,0,0
Frame,canvas.Frame,2_54,2022-06-10T15:42:37.639Z,,,1,AV,2522.0209999999497,,,,1339556.8,1339556.7,1337018002,1337023.3,1337034679,1339569668,,grey,UT29PI01,31,m,4,0,Lehramt,0,0,0,0,0
Fixation,canvas.Screen,2_55_0_0,2022-06-10T15:42:40.054Z,,,1,A,2418.0149999998976,timeout,,,1341972.2,1341971007,1339552991,1339558.1,1339569668,1341987683,,black,UT29PI01,31,m,4,0,Lehramt,0,0,0,0,0
Stimulus,canvas.Screen,2_55_0_1,2022-06-10T15:42:40.155Z,,,1,A,100.3300000000745,timeout,,,1342073.2,1342071335,1341971007,1341972.4,1341987683,1342088013,,black,UT29PI01,31,m,4,0,Lehramt,0,0,0,0,0
Reaction,canvas.Screen,2_55_0_2,2022-06-10T15:42:40.318Z,,,1,A,146.58700000005774,response,stim_detected,mousedown,1342236.1,1342234.6,1342071335,1342073.4,1342088013,1342238101,,black,UT29PI01,31,m,4,0,Lehramt,0,0,0,0,0
Trial,flow.Sequence,2_55_0,2022-06-10T15:42:40.319Z,,,1,A,2664.93200000003,completion,,,1342236.6,1342234.6,1339552991,1339558,1339569668,1342238101,,black,UT29PI01,31,m,4,0,Lehramt,0,0,0,0,0
Frame,canvas.Frame,2_55,2022-06-10T15:42:40.319Z,,,1,A,2666.93200000003,,,,1342236.8,1342236.6,1339552991,1339557,1339569668,1342238101,,black,UT29PI01,31,m,4,0,Lehramt,0,0,0,0,0
Fixation,canvas.Screen,2_56_0_0,2022-06-10T15:42:42.690Z,,,1,AV,2384.2039999999106,timeout,,,1344607.4,1344605632,1342221424,1342238,1342238101,1344622305,,grey,UT29PI01,31,m,4,0,Lehramt,0,0,0,0,0
Stimulus,canvas.Screen,2_56_0_1,2022-06-10T15:42:42.790Z,,,1,AV,100.77099999994971,timeout,,,1344707.4,1344706142,1344605632,1344607.5,1344622305,1344723076,,grey,UT29PI01,31,m,4,0,Lehramt,0,0,0,0,0
Reaction,canvas.Screen,2_56_0_2,2022-06-10T15:42:42.964Z,,,1,AV,157.42400000011548,response,stim_detected,mousedown,1344882.1,1344880.5,1344706142,1344707.6,1344723076,1344889846,,grey,UT29PI01,31,m,4,0,Lehramt,0,0,0,0,0
Trial,flow.Sequence,2_56_0,2022-06-10T15:42:42.965Z,,,1,AV,2642.398999999976,completion,,,1344882.5,1344880.5,1342221424,1342237.8,1342238101,1344889846,,grey,UT29PI01,31,m,4,0,Lehramt,0,0,0,0,0
Frame,canvas.Frame,2_56,2022-06-10T15:42:42.965Z,,,1,AV,2644.499000000069,,,,1344882.8,1344882.6,1342221424,1342237,1342238101,1344889846,,grey,UT29PI01,31,m,4,0,Lehramt,0,0,0,0,0
Fixation,canvas.Screen,2_57_0_0,2022-06-10T15:42:44.958Z,,,1,A,2000.8540000000503,timeout,,,1346875.3,1346874026,1344873169,1344883.8,1344889846,1346890.7,,black,UT29PI01,31,m,4,0,Lehramt,0,0,0,0,0
Stimulus,canvas.Screen,2_57_0_1,2022-06-10T15:42:45.058Z,,,1,A,100.6610000000801,timeout,,,1346976.3,1346974683,1346874026,1346875.6,1346890.7,1346991361,,black,UT29PI01,31,m,4,0,Lehramt,0,0,0,0,0
Reaction,canvas.Screen,2_57_0_2,2022-06-10T15:42:45.233Z,,,1,A,158.2390000000596,response,stim_detected,mousedown,1347151,1347149.6,1346974683,1346976.5,1346991361,1347158018,,black,UT29PI01,31,m,4,0,Lehramt,0,0,0,0,0
Trial,flow.Sequence,2_57_0,2022-06-10T15:42:45.234Z,,,1,A,2259.75400000019,completion,,,1347151.4,1347149.6,1344873169,1344883.7,1344889846,1347158018,,black,UT29PI01,31,m,4,0,Lehramt,0,0,0,0,0
Frame,canvas.Frame,2_57,2022-06-10T15:42:45.234Z,,,1,A,2261.654000000097,,,,1347151.7,1347151.5,1344873169,1344882.9,1344889846,1347158018,,black,UT29PI01,31,m,4,0,Lehramt,0,0,0,0,0
Fixation,canvas.Screen,2_58_0_0,2022-06-10T15:42:47.378Z,,,0,V,2151.6170000000857,timeout,,,1349295.8,1349292956,1347141341,1347152.8,1347158018,1349309635,,grey,UT29PI01,31,m,4,0,Lehramt,0,0,0,0,0
Stimulus,canvas.Screen,2_58_0_1,2022-06-10T15:42:47.477Z,,,0,V,99.89899999997579,timeout,,,1349394.5,1349392857,1349292956,1349296,1349309635,1349409534,,grey,UT29PI01,31,m,4,0,Lehramt,0,0,0,0,0
Reaction,canvas.Screen,2_58_0_2,2022-06-10T15:42:47.695Z,,,0,V,201.76600000006147,response,stim_detected,mousedown,1349612.9,1349611.3,1349392857,1349394.8,1349409534,1349626302,,grey,UT29PI01,31,m,4,0,Lehramt,0,0,0,0,0
Trial,flow.Sequence,2_58_0,2022-06-10T15:42:47.695Z,,,0,V,2453.282000000123,completion,,,1349613.2,1349611.3,1347141341,1347152.8,1347158018,1349626302,,grey,UT29PI01,31,m,4,0,Lehramt,0,0,0,0,0
Frame,canvas.Frame,2_58,2022-06-10T15:42:47.696Z,,,0,V,2455.282000000123,,,,1349613.5,1349613.3,1347141341,1347151.8,1347158018,1349626302,,grey,UT29PI01,31,m,4,0,Lehramt,0,0,0,0,0
Fixation,canvas.Screen,2_59_0_0,2022-06-10T15:42:49.779Z,,,1,AV,2085.344000000041,timeout,,,1351696.4,1351694964,1349609625,1349614.8,1349626302,1351711646,,grey,UT29PI01,31,m,4,0,Lehramt,0,0,0,0,0
Stimulus,canvas.Screen,2_59_0_1,2022-06-10T15:42:49.878Z,,,1,AV,99.36000000010245,timeout,,,1351795.3,1351794.33,1351694964,1351696.6,1351711646,1351811006,,grey,UT29PI01,31,m,4,0,Lehramt,0,0,0,0,0
Reaction,canvas.Screen,2_59_0_2,2022-06-10T15:42:50.112Z,,,1,AV,217.49399999994785,response,stim_detected,mousedown,1352030.1,1352028.5,1351794.33,1351795.6,1351811006,1352044581,,grey,UT29PI01,31,m,4,0,Lehramt,0,0,0,0,0
Trial,flow.Sequence,2_59_0,2022-06-10T15:42:50.113Z,,,1,AV,2402.1980000000913,completion,,,1352030.7,1352028.5,1349609625,1349614.6,1349626302,1352044581,,grey,UT29PI01,31,m,4,0,Lehramt,0,0,0,0,0
Frame,canvas.Frame,2_59,2022-06-10T15:42:50.113Z,,,1,AV,2404.498000000138,,,,1352031,1352030.8,1349609625,1349613.7,1349626302,1352044581,,grey,UT29PI01,31,m,4,0,Lehramt,0,0,0,0,0
Fixation,canvas.Screen,2_60_0_0,2022-06-10T15:42:52.212Z,,,1,AV,2100.3030000000726,timeout,,,1354129.6,1354128214,1352027904,1352032.2,1352044581,1354144884,,grey,UT29PI01,31,m,4,0,Lehramt,0,0,0,0,0
Stimulus,canvas.Screen,2_60_0_1,2022-06-10T15:42:52.313Z,,,1,AV,101.22299999999814,timeout,,,1354230.7,1354229429,1354128214,1354129.8,1354144884,1354246107,,grey,UT29PI01,31,m,4,0,Lehramt,0,0,0,0,0
Reaction,canvas.Screen,2_60_0_2,2022-06-10T15:42:52.470Z,,,1,AV,140.2929999998305,response,stim_detected,mousedown,1354387.8,1354386.4,1354229429,1354230.9,1354246107,1354396116,,grey,UT29PI01,31,m,4,0,Lehramt,0,0,0,0,0
Trial,flow.Sequence,2_60_0,2022-06-10T15:42:52.470Z,,,1,AV,2341.8189999999013,completion,,,1354388.3,1354386.4,1352027904,1352032.1,1352044581,1354396116,,grey,UT29PI01,31,m,4,0,Lehramt,0,0,0,0,0
Frame,canvas.Frame,2_60,2022-06-10T15:42:52.471Z,,,1,AV,2343.8189999999013,,,,1354388.6,1354388.4,1352027904,1352031.2,1352044581,1354396116,,grey,UT29PI01,31,m,4,0,Lehramt,0,0,0,0,0
Fixation,canvas.Screen,2_61_0_0,2022-06-10T15:42:54.381Z,,,1,A,1918.1080000000075,timeout,,,1356298.5,1356297545,1354379439,1354389.7,1354396116,1356314224,,black,UT29PI01,31,m,4,0,Lehramt,0,0,0,0,0
Stimulus,canvas.Screen,2_61_0_1,2022-06-10T15:42:54.481Z,,,1,A,99.9570000001695,timeout,,,1356398.5,1356397503,1356297545,1356298.8,1356314224,1356414181,,black,UT29PI01,31,m,4,0,Lehramt,0,0,0,0,0
Reaction,canvas.Screen,2_61_0_2,2022-06-10T15:42:54.839Z,,,1,A,341.11899999994785,response,stim_detected,mousedown,1356756.8,1356755.3,1356397503,1356398.8,1356414181,1356764343,,black,UT29PI01,31,m,4,0,Lehramt,0,0,0,0,0
Trial,flow.Sequence,2_61_0,2022-06-10T15:42:54.839Z,,,1,A,2359.184000000125,completion,,,1356757.2,1356755.3,1354379439,1354389.7,1354396116,1356764343,,black,UT29PI01,31,m,4,0,Lehramt,0,0,0,0,0
Frame,canvas.Frame,2_61,2022-06-10T15:42:54.840Z,,,1,A,2361.184000000125,,,,1356757.5,1356757.3,1354379439,1354388.7,1354396116,1356764343,,black,UT29PI01,31,m,4,0,Lehramt,0,0,0,0,0
Fixation,canvas.Screen,2_62_0_0,2022-06-10T15:42:57.049Z,,,0,V,2217.8859999999404,timeout,,,1358966.8,1358965553,1356747666,1356758.8,1356764343,1358982229,,grey,UT29PI01,31,m,4,0,Lehramt,0,0,0,0,0
Stimulus,canvas.Screen,2_62_0_1,2022-06-10T15:42:57.150Z,,,0,V,100.38100000005215,timeout,,,1359067.9,1359065932,1358965553,1358967.1,1358982229,1359082.61,,grey,UT29PI01,31,m,4,0,Lehramt,0,0,0,0,0
Reaction,canvas.Screen,2_62_0_2,2022-06-10T15:42:57.362Z,,,0,V,195.68999999994412,response,stim_detected,mousedown,1359279.8,1359278.3,1359065932,1359068.2,1359082.61,1359282688,,grey,UT29PI01,31,m,4,0,Lehramt,0,0,0,0,0
Trial,flow.Sequence,2_62_0,2022-06-10T15:42:57.362Z,,,0,V,2513.9569999999367,completion,,,1359280.1,1359278.3,1356747666,1356758.7,1356764343,1359282688,,grey,UT29PI01,31,m,4,0,Lehramt,0,0,0,0,0
Frame,canvas.Frame,2_62,2022-06-10T15:42:57.363Z,,,0,V,2515.8569999998435,,,,1359280.5,1359280.2,1356747666,1356757.7,1356764343,1359282688,,grey,UT29PI01,31,m,4,0,Lehramt,0,0,0,0,0
Fixation,canvas.Screen,2_63_0_0,2022-06-10T15:42:59.768Z,,,1,A,2418.787000000011,timeout,,,1361685.7,1361684794,1359266011,1359281.6,1359282688,1361701475,,black,UT29PI01,31,m,4,0,Lehramt,0,0,0,0,0
Stimulus,canvas.Screen,2_63_0_1,2022-06-10T15:42:59.868Z,,,1,A,99.44699999992736,timeout,,,1361785.8,1361784246,1361684794,1361686,1361701475,1361800922,,black,UT29PI01,31,m,4,0,Lehramt,0,0,0,0,0
Reaction,canvas.Screen,2_63_0_2,2022-06-10T15:43:00.091Z,,,1,A,206.27799999993294,response,stim_detected,mousedown,1362008.6,1362007.2,1361784246,1361785.9,1361800922,1362017798,,black,UT29PI01,31,m,4,0,Lehramt,0,0,0,0,0
Trial,flow.Sequence,2_63_0,2022-06-10T15:43:00.091Z,,,1,A,2724.5119999998715,completion,,,1362009.1,1362007.2,1359266011,1359281.5,1359282688,1362017798,,black,UT29PI01,31,m,4,0,Lehramt,0,0,0,0,0
Frame,canvas.Frame,2_63,2022-06-10T15:43:00.092Z,,,1,A,2726.412000000011,,,,1362009.3,1362009.1,1359266011,1359280.7,1359282688,1362017798,,black,UT29PI01,31,m,4,0,Lehramt,0,0,0,0,0
Fixation,canvas.Screen,2_64_0_0,2022-06-10T15:43:02.254Z,,,0,V,2169.908999999985,timeout,,,1364171.9,1364171017,1362001121,1362010.5,1362017798,1364187707,,grey,UT29PI01,31,m,4,0,Lehramt,0,0,0,0,0
Stimulus,canvas.Screen,2_64_0_1,2022-06-10T15:43:02.352Z,,,0,V,97.81600000010803,timeout,,,1364270,1364268849,1364171017,1364172.2,1364187707,1364285523,,grey,UT29PI01,31,m,4,0,Lehramt,0,0,0,0,0
Reaction,canvas.Screen,2_64_0_2,2022-06-10T15:43:02.574Z,,,0,V,204.67699999990873,response,stim_detected,mousedown,1364491.7,1364490.2,1364268849,1364270.3,1364285523,1364519491,,grey,UT29PI01,31,m,4,0,Lehramt,0,0,0,0,0
Trial,flow.Sequence,2_64_0,2022-06-10T15:43:02.574Z,,,0,V,2472.402000000002,completion,,,1364492.2,1364490.2,1362001121,1362010.4,1362017798,1364519491,,grey,UT29PI01,31,m,4,0,Lehramt,0,0,0,0,0
Frame,canvas.Frame,2_64,2022-06-10T15:43:02.575Z,,,0,V,2474.502000000095,,,,1364492.4,1364492.3,1362001121,1362009.4,1362017798,1364519491,,grey,UT29PI01,31,m,4,0,Lehramt,0,0,0,0,0
Fixation,canvas.Screen,2_65_0_0,2022-06-10T15:43:04.971Z,,,0,V,2384.974000000162,timeout,,,1366889,1366887787,1364486137,1364493.6,1364519491,1366904465,,grey,UT29PI01,31,m,4,0,Lehramt,0,0,0,0,0
Stimulus,canvas.Screen,2_65_0_1,2022-06-10T15:43:05.071Z,,,0,V,99.98699999996461,timeout,,,1366989,1366987679,1366887787,1366889.5,1366904465,1367004452,,grey,UT29PI01,31,m,4,0,Lehramt,0,0,0,0,0
Reaction,canvas.Screen,2_65_0_2,2022-06-10T15:43:05.289Z,,,0,V,200.6480000000447,response,stim_detected,mousedown,1367206.6,1367205.1,1366987679,1366989.2,1367004452,1367221253,,grey,UT29PI01,31,m,4,0,Lehramt,0,0,0,0,0
Trial,flow.Sequence,2_65_0,2022-06-10T15:43:05.289Z,,,0,V,2685.6090000001714,completion,,,1367207.1,1367205.1,1364486137,1364493.5,1364519491,1367221253,,grey,UT29PI01,31,m,4,0,Lehramt,0,0,0,0,0
Frame,canvas.Frame,2_65,2022-06-10T15:43:05.290Z,,,0,V,2687.6090000001714,,,,1367207.3,1367207.1,1364486137,1364492.7,1364519491,1367221253,,grey,UT29PI01,31,m,4,0,Lehramt,0,0,0,0,0
Fixation,canvas.Screen,2_66_0_0,2022-06-10T15:43:07.007Z,,,1,A,1718.902999999933,timeout,,,1368925.1,1368923468,1367204576,1367208.6,1367221253,1368940156,,black,UT29PI01,31,m,4,0,Lehramt,0,0,0,0,0
Stimulus,canvas.Screen,2_66_0_1,2022-06-10T15:43:07.105Z,,,1,A,98.58499999996275,timeout,,,1369023.2,1369022067,1368923468,1368925.3,1368940156,1369038741,,black,UT29PI01,31,m,4,0,Lehramt,0,0,0,0,0
Reaction,canvas.Screen,2_66_0_2,2022-06-10T15:43:07.583Z,,,1,A,460.45900000003166,response,stim_detected,mousedown,1369501.3,1369499.2,1369022067,1369023.3,1369038741,1369506098,,black,UT29PI01,31,m,4,0,Lehramt,0,0,0,0,0
Trial,flow.Sequence,2_66_0,2022-06-10T15:43:07.584Z,,,1,A,2277.9469999999274,completion,,,1369501.6,1369499.2,1367204576,1367208.5,1367221253,1369506098,,black,UT29PI01,31,m,4,0,Lehramt,0,0,0,0,0
Frame,canvas.Frame,2_66,2022-06-10T15:43:07.584Z,,,1,A,2280.4469999999274,,,,1369501.9,1369501.7,1367204576,1367207.6,1367221253,1369506098,,black,UT29PI01,31,m,4,0,Lehramt,0,0,0,0,0
Fixation,canvas.Screen,2_67_0_0,2022-06-10T15:43:10.076Z,,,0,V,2502.2039999999106,timeout,,,1371993.4,1371991621,1369489421,1369503.1,1369506098,1372008302,,grey,UT29PI01,31,m,4,0,Lehramt,0,0,0,0,0
Stimulus,canvas.Screen,2_67_0_1,2022-06-10T15:43:10.175Z,,,0,V,99.41400000010617,timeout,,,1372092.4,1372091.04,1371991621,1371993.7,1372008302,1372107716,,grey,UT29PI01,31,m,4,0,Lehramt,0,0,0,0,0
Reaction,canvas.Screen,2_67_0_2,2022-06-10T15:43:10.515Z,,,0,V,323.38400000007823,response,stim_detected,mousedown,1372432.9,1372431.1,1372091.04,1372092.7,1372107716,1372441385,,grey,UT29PI01,31,m,4,0,Lehramt,0,0,0,0,0
Trial,flow.Sequence,2_67_0,2022-06-10T15:43:10.516Z,,,0,V,2925.002000000095,completion,,,1372433.4,1372431.1,1369489421,1369503,1369506098,1372441385,,grey,UT29PI01,31,m,4,0,Lehramt,0,0,0,0,0
Frame,canvas.Frame,2_67,2022-06-10T15:43:10.516Z,,,0,V,2927.402000000002,,,,1372433.7,1372433.5,1369489421,1369502.1,1369506098,1372441385,,grey,UT29PI01,31,m,4,0,Lehramt,0,0,0,0,0
Fixation,canvas.Screen,2_68_0_0,2022-06-10T15:43:12.442Z,,,0,V,1933.3009999999776,timeout,,,1374359.3,1374358018,1372424708,1372435,1372441385,1374374686,,grey,UT29PI01,31,m,4,0,Lehramt,0,0,0,0,0
Stimulus,canvas.Screen,2_68_0_1,2022-06-10T15:43:12.542Z,,,0,V,101.1480000000447,timeout,,,1374460.3,1374459158,1374358018,1374359.5,1374374686,1374475834,,grey,UT29PI01,31,m,4,0,Lehramt,0,0,0,0,0
Reaction,canvas.Screen,2_68_0_2,2022-06-10T15:43:12.746Z,,,0,V,186.26600000006147,response,stim_detected,mousedown,1374663.5,1374662.1,1374459158,1374460.5,1374475834,1374676192,,grey,UT29PI01,31,m,4,0,Lehramt,0,0,0,0,0
Trial,flow.Sequence,2_68_0,2022-06-10T15:43:12.746Z,,,0,V,2220.715000000084,completion,,,1374663.9,1374662.1,1372424708,1372434.9,1372441385,1374676192,,grey,UT29PI01,31,m,4,0,Lehramt,0,0,0,0,0
Frame,canvas.Frame,2_68,2022-06-10T15:43:12.747Z,,,0,V,2222.6149999999907,,,,1374664.3,1374664,1372424708,1372433.9,1372441385,1374676192,,grey,UT29PI01,31,m,4,0,Lehramt,0,0,0,0,0
Fixation,canvas.Screen,2_69_0_0,2022-06-10T15:43:14.912Z,,,0,V,2168.314000000013,timeout,,,1376829.4,1376827827,1374659515,1374665.8,1374676192,1376844506,,grey,UT29PI01,31,m,4,0,Lehramt,0,0,0,0,0
Stimulus,canvas.Screen,2_69_0_1,2022-06-10T15:43:15.011Z,,,0,V,99.62999999988824,timeout,,,1376928.4,1376927.46,1376827827,1376829.7,1376844506,1376944136,,grey,UT29PI01,31,m,4,0,Lehramt,0,0,0,0,0
Reaction,canvas.Screen,2_69_0_2,2022-06-10T15:43:15.243Z,,,0,V,214.8640000000596,response,stim_detected,mousedown,1377160.5,1377159,1376927.46,1376928.6,1376944136,1377177806,,grey,UT29PI01,31,m,4,0,Lehramt,0,0,0,0,0
Trial,flow.Sequence,2_69_0,2022-06-10T15:43:15.243Z,,,0,V,2482.807999999961,completion,,,1377160.9,1377159,1374659515,1374665.6,1374676192,1377177806,,grey,UT29PI01,31,m,4,0,Lehramt,0,0,0,0,0
Frame,canvas.Frame,2_69,2022-06-10T15:43:15.243Z,,,0,V,2484.807999999961,,,,1377161.2,1377161,1374659515,1374664.6,1374676192,1377177806,,grey,UT29PI01,31,m,4,0,Lehramt,0,0,0,0,0
Fixation,canvas.Screen,2_70_0_0,2022-06-10T15:43:17.615Z,,,0,V,2369.8559999999125,timeout,,,1379532.5,1379530973,1377161129,1377162.3,1377177806,1379547662,,grey,UT29PI01,31,m,4,0,Lehramt,0,0,0,0,0
Stimulus,canvas.Screen,2_70_0_1,2022-06-10T15:43:17.713Z,,,0,V,98.17200000002049,timeout,,,1379630.5,1379629159,1379530973,1379532.8,1379547662,1379645834,,grey,UT29PI01,31,m,4,0,Lehramt,0,0,0,0,0
Reaction,canvas.Screen,2_70_0_2,2022-06-10T15:43:17.995Z,,,0,V,265.0659999998752,response,stim_detected,mousedown,1379912.5,1379910.9,1379629159,1379630.8,1379645834,1379929614,,grey,UT29PI01,31,m,4,0,Lehramt,0,0,0,0,0
Trial,flow.Sequence,2_70_0,2022-06-10T15:43:17.995Z,,,0,V,2733.093999999808,completion,,,1379912.9,1379910.9,1377161129,1377162.3,1377177806,1379929614,,grey,UT29PI01,31,m,4,0,Lehramt,0,0,0,0,0
Frame,canvas.Frame,2_70,2022-06-10T15:43:17.995Z,,,0,V,2735.2939999999944,,,,1379913.2,1379913.1,1377161129,1377161.3,1377177806,1379929614,,grey,UT29PI01,31,m,4,0,Lehramt,0,0,0,0,0
Fixation,canvas.Screen,2_71_0_0,2022-06-10T15:43:20.116Z,,,1,A,2119.594999999972,timeout,,,1382033.7,1382032521,1379912937,1379914.3,1379929614,1382049209,,black,UT29PI01,31,m,4,0,Lehramt,0,0,0,0,0
Stimulus,canvas.Screen,2_71_0_1,2022-06-10T15:43:20.215Z,,,1,A,98.66599999996834,timeout,,,1382132.7,1382131197,1382032521,1382034,1382049209,1382147875,,black,UT29PI01,31,m,4,0,Lehramt,0,0,0,0,0
Reaction,canvas.Screen,2_71_0_2,2022-06-10T15:43:20.390Z,,,1,A,158.02499999990687,response,stim_detected,mousedown,1382307.4,1382305.9,1382131197,1382132.9,1382147875,1382314553,,black,UT29PI01,31,m,4,0,Lehramt,0,0,0,0,0
Trial,flow.Sequence,2_71_0,2022-06-10T15:43:20.390Z,,,1,A,2376.2859999998473,completion,,,1382307.8,1382305.9,1379912937,1379914.3,1379929614,1382314553,,black,UT29PI01,31,m,4,0,Lehramt,0,0,0,0,0
Frame,canvas.Frame,2_71,2022-06-10T15:43:20.390Z,,,1,A,2378.2859999998473,,,,1382308.1,1382307.9,1379912937,1379913.4,1379929614,1382314553,,black,UT29PI01,31,m,4,0,Lehramt,0,0,0,0,0
Fixation,canvas.Screen,2_72_0_0,2022-06-10T15:43:22.616Z,,,0,V,2234.7299999999814,timeout,,,1384533.7,1384532606,1382297876,1382309.1,1382314553,1384549283,,grey,UT29PI01,31,m,4,0,Lehramt,0,0,0,0,0
Stimulus,canvas.Screen,2_72_0_1,2022-06-10T15:43:22.718Z,,,0,V,100.25399999995716,timeout,,,1384635.4,1384632859,1384532606,1384533.9,1384549283,1384649537,,grey,UT29PI01,31,m,4,0,Lehramt,0,0,0,0,0
Reaction,canvas.Screen,2_72_0_2,2022-06-10T15:43:22.922Z,,,0,V,188.3629999998957,response,stim_detected,mousedown,1384839.6,1384837.9,1384632859,1384635.7,1384649537,1384849.59,,grey,UT29PI01,31,m,4,0,Lehramt,0,0,0,0,0
Trial,flow.Sequence,2_72_0,2022-06-10T15:43:22.922Z,,,0,V,2523.346999999834,completion,,,1384840,1384837.9,1382297876,1382309.1,1382314553,1384849.59,,grey,UT29PI01,31,m,4,0,Lehramt,0,0,0,0,0
Frame,canvas.Frame,2_72,2022-06-10T15:43:22.923Z,,,0,V,2525.646999999881,,,,1384840.3,1384840.2,1382297876,1382308.3,1382314553,1384849.59,,grey,UT29PI01,31,m,4,0,Lehramt,0,0,0,0,0
Fixation,canvas.Screen,2_73_0_0,2022-06-10T15:43:25.034Z,,,1,AV,2117.557999999961,timeout,,,1386951.8,1386950474,1384832913,1384841.5,1384849.59,1386967148,,grey,UT29PI01,31,m,4,0,Lehramt,0,0,0,0,0
Stimulus,canvas.Screen,2_73_0_1,2022-06-10T15:43:25.134Z,,,1,AV,100.4769999999553,timeout,,,1387051.9,1387050948,1386950474,1386952.1,1386967148,1387067625,,grey,UT29PI01,31,m,4,0,Lehramt,0,0,0,0,0
Reaction,canvas.Screen,2_73_0_2,2022-06-10T15:43:25.354Z,,,1,AV,202.27499999990687,response,stim_detected,mousedown,1387271.2,1387269.9,1387050948,1387052.2,1387067625,1387284501,,grey,UT29PI01,31,m,4,0,Lehramt,0,0,0,0,0
Trial,flow.Sequence,2_73_0,2022-06-10T15:43:25.354Z,,,1,AV,2420.309999999823,completion,,,1387271.7,1387269.9,1384832913,1384841.4,1384849.59,1387284501,,grey,UT29PI01,31,m,4,0,Lehramt,0,0,0,0,0
Frame,canvas.Frame,2_73,2022-06-10T15:43:25.354Z,,,1,AV,2422.2099999999627,,,,1387272,1387271.8,1384832913,1384840.5,1384849.59,1387284501,,grey,UT29PI01,31,m,4,0,Lehramt,0,0,0,0,0
Fixation,canvas.Screen,2_74_0_0,2022-06-10T15:43:27.169Z,,,1,AV,1817.3020000001416,timeout,,,1389086.8,1389085.13,1387267824,1387273,1387284501,1389101803,,grey,UT29PI01,31,m,4,0,Lehramt,0,0,0,0,0
Stimulus,canvas.Screen,2_74_0_1,2022-06-10T15:43:27.269Z,,,1,AV,100.58799999998882,timeout,,,1389186.9,1389185714,1389085.13,1389087.2,1389101803,1389202391,,grey,UT29PI01,31,m,4,0,Lehramt,0,0,0,0,0
Reaction,canvas.Screen,2_74_0_2,2022-06-10T15:43:27.434Z,,,1,AV,147.4089999999851,response,stim_detected,mousedown,1389351.5,1389349.8,1389185714,1389187.1,1389202391,1389369221,,grey,UT29PI01,31,m,4,0,Lehramt,0,0,0,0,0
Trial,flow.Sequence,2_74_0,2022-06-10T15:43:27.434Z,,,1,AV,2065.2990000001155,completion,,,1389351.8,1389349.8,1387267824,1387272.9,1387284501,1389369221,,grey,UT29PI01,31,m,4,0,Lehramt,0,0,0,0,0
Frame,canvas.Frame,2_74,2022-06-10T15:43:27.434Z,,,1,AV,2067.398999999976,,,,1389352.1,1389351.9,1387267824,1387272.2,1387284501,1389369221,,grey,UT29PI01,31,m,4,0,Lehramt,0,0,0,0,0
Fixation,canvas.Screen,2_75_0_0,2022-06-10T15:43:29.120Z,,,0,V,1684.157000000123,timeout,,,1391038,1391036703,1389352544,1389353.4,1389369221,1391053378,,grey,UT29PI01,31,m,4,0,Lehramt,0,0,0,0,0
Stimulus,canvas.Screen,2_75_0_1,2022-06-10T15:43:29.221Z,,,0,V,100.43500000005588,timeout,,,1391138.9,1391137135,1391036703,1391038.4,1391053378,1391153813,,grey,UT29PI01,31,m,4,0,Lehramt,0,0,0,0,0
Reaction,canvas.Screen,2_75_0_2,2022-06-10T15:43:29.431Z,,,0,V,193.9869999999646,response,stim_detected,mousedown,1391349.3,1391347.8,1391137135,1391139.2,1391153813,1391370501,,grey,UT29PI01,31,m,4,0,Lehramt,0,0,0,0,0
Trial,flow.Sequence,2_75_0,2022-06-10T15:43:29.432Z,,,0,V,1978.5790000001434,completion,,,1391349.7,1391347.8,1389352544,1389353.3,1389369221,1391370501,,grey,UT29PI01,31,m,4,0,Lehramt,0,0,0,0,0
Frame,canvas.Frame,2_75,2022-06-10T15:43:29.432Z,,,0,V,1980.5790000001434,,,,1391349.9,1391349.8,1389352544,1389352.3,1389369221,1391370501,,grey,UT29PI01,31,m,4,0,Lehramt,0,0,0,0,0
Fixation,canvas.Screen,2_76_0_0,2022-06-10T15:43:31.758Z,,,1,AV,2319.773999999976,timeout,,,1393675.1,1393673586,1391337149,1391351.2,1391370501,1393690275,,grey,UT29PI01,31,m,4,0,Lehramt,0,0,0,0,0
Stimulus,canvas.Screen,2_76_0_1,2022-06-10T15:43:31.856Z,,,1,AV,98.54399999999441,timeout,,,1393773,1393771575,1393673586,1393675.4,1393690275,1393788819,,grey,UT29PI01,31,m,4,0,Lehramt,0,0,0,0,0
Reaction,canvas.Screen,2_76_0_2,2022-06-10T15:43:32.051Z,,,1,AV,176.78100000019185,response,stim_detected,mousedown,1393967.3,1393965.6,1393771575,1393773.4,1393788819,1393972266,,grey,UT29PI01,31,m,4,0,Lehramt,0,0,0,0,0
Trial,flow.Sequence,2_76_0,2022-06-10T15:43:32.051Z,,,1,AV,2595.099000000162,completion,,,1393967.7,1393965.6,1391337149,1391351.2,1391370501,1393972266,,grey,UT29PI01,31,m,4,0,Lehramt,0,0,0,0,0
Frame,canvas.Frame,2_76,2022-06-10T15:43:32.051Z,,,1,AV,2597.2990000001155,,,,1393968,1393967.8,1391337149,1391350.2,1391370501,1393972266,,grey,UT29PI01,31,m,4,0,Lehramt,0,0,0,0,0
Fixation,canvas.Screen,2_77_0_0,2022-06-10T15:43:34.041Z,,,1,A,2000.3009999999776,timeout,,,1395957.3,1395955897,1393955589,1393969.2,1393972266,1395972567,,black,UT29PI01,31,m,4,0,Lehramt,0,0,0,0,0
Stimulus,canvas.Screen,2_77_0_1,2022-06-10T15:43:34.141Z,,,1,A,101.26000000000931,timeout,,,1396058.2,1396057148,1395955897,1395957.4,1395972567,1396073827,,black,UT29PI01,31,m,4,0,Lehramt,0,0,0,0,0
Reaction,canvas.Screen,2_77_0_2,2022-06-10T15:43:34.461Z,,,1,A,301.872999999905,response,stim_detected,mousedown,1396377.2,1396375.7,1396057148,1396058.4,1396073827,1396390493,,black,UT29PI01,31,m,4,0,Lehramt,0,0,0,0,0
Trial,flow.Sequence,2_77_0,2022-06-10T15:43:34.461Z,,,1,A,2403.433999999892,completion,,,1396377.7,1396375.7,1393955589,1393969.1,1393972266,1396390493,,black,UT29PI01,31,m,4,0,Lehramt,0,0,0,0,0
Frame,canvas.Frame,2_77,2022-06-10T15:43:34.461Z,,,1,A,2405.433999999892,,,,1396377.9,1396377.7,1393955589,1393968.2,1393972266,1396390493,,black,UT29PI01,31,m,4,0,Lehramt,0,0,0,0,0
Fixation,canvas.Screen,2_78_0_0,2022-06-10T15:43:36.577Z,,,1,A,2118.5479999999516,timeout,,,1398493.4,1398492.36,1396373816,1396379,1396390493,1398509041,,black,UT29PI01,31,m,4,0,Lehramt,0,0,0,0,0
Stimulus,canvas.Screen,2_78_0_1,2022-06-10T15:43:36.677Z,,,1,A,99.44100000010803,timeout,,,1398593.5,1398591806,1398492.36,1398493.6,1398509041,1398608482,,black,UT29PI01,31,m,4,0,Lehramt,0,0,0,0,0
Reaction,canvas.Screen,2_78_0_2,2022-06-10T15:43:36.998Z,,,1,A,305.21799999987707,response,stim_detected,mousedown,1398915.1,1398913.7,1398591806,1398593.7,1398608482,1398925498,,black,UT29PI01,31,m,4,0,Lehramt,0,0,0,0,0
Trial,flow.Sequence,2_78_0,2022-06-10T15:43:36.999Z,,,1,A,2523.2069999999367,completion,,,1398915.5,1398913.7,1396373816,1396379,1396390493,1398925498,,black,UT29PI01,31,m,4,0,Lehramt,0,0,0,0,0
Frame,canvas.Frame,2_78,2022-06-10T15:43:36.999Z,,,1,A,2525.2069999999367,,,,1398915.9,1398915.7,1396373816,1396378.1,1396390493,1398925498,,black,UT29PI01,31,m,4,0,Lehramt,0,0,0,0,0
Fixation,canvas.Screen,2_79_0_0,2022-06-10T15:43:38.663Z,,,0,V,1669.288000000175,timeout,,,1400579.3,1400578096,1398908821,1398917,1398925498,1400594786,,grey,UT29PI01,31,m,4,0,Lehramt,0,0,0,0,0
Stimulus,canvas.Screen,2_79_0_1,2022-06-10T15:43:38.762Z,,,0,V,98.52199999988079,timeout,,,1400678.2,1400676632,1400578096,1400579.6,1400594786,1400693308,,grey,UT29PI01,31,m,4,0,Lehramt,0,0,0,0,0
Reaction,canvas.Screen,2_79_0_2,2022-06-10T15:43:38.971Z,,,0,V,192.29200000013225,response,stim_detected,mousedown,1400887.2,1400885.6,1400676632,1400678.5,1400693308,1400893513,,grey,UT29PI01,31,m,4,0,Lehramt,0,0,0,0,0
Trial,flow.Sequence,2_79_0,2022-06-10T15:43:38.971Z,,,0,V,1960.1020000001881,completion,,,1400887.6,1400885.6,1398908821,1398916.9,1398925498,1400893513,,grey,UT29PI01,31,m,4,0,Lehramt,0,0,0,0,0
Frame,canvas.Frame,2_79,2022-06-10T15:43:38.971Z,,,0,V,1962.3020000001416,,,,1400888,1400887.8,1398908821,1398916.1,1398925498,1400893513,,grey,UT29PI01,31,m,4,0,Lehramt,0,0,0,0,0
Fixation,canvas.Screen,2_80_0_0,2022-06-10T15:43:41.113Z,,,0,V,2151.19299999997,timeout,,,1403029.4,1403028.03,1400876836,1400889.2,1400893513,1403044706,,grey,UT29PI01,31,m,4,0,Lehramt,0,0,0,0,0
Stimulus,canvas.Screen,2_80_0_1,2022-06-10T15:43:41.213Z,,,0,V,100.19200000003912,timeout,,,1403129.5,1403128222,1403028.03,1403029.6,1403044706,1403144898,,grey,UT29PI01,31,m,4,0,Lehramt,0,0,0,0,0
Reaction,canvas.Screen,2_80_0_2,2022-06-10T15:43:41.404Z,,,0,V,174.70200000004843,response,stim_detected,mousedown,1403321,1403319.6,1403128222,1403129.7,1403144898,1403328.44,,grey,UT29PI01,31,m,4,0,Lehramt,0,0,0,0,0
Trial,flow.Sequence,2_80_0,2022-06-10T15:43:41.405Z,,,0,V,2426.0870000000577,completion,,,1403321.4,1403319.6,1400876836,1400889.1,1400893513,1403328.44,,grey,UT29PI01,31,m,4,0,Lehramt,0,0,0,0,0
Frame,canvas.Frame,2_80,2022-06-10T15:43:41.405Z,,,0,V,2428.0870000000577,,,,1403321.8,1403321.6,1400876836,1400888.1,1400893513,1403328.44,,grey,UT29PI01,31,m,4,0,Lehramt,0,0,0,0,0
Fixation,canvas.Screen,2_81_0_0,2022-06-10T15:43:43.114Z,,,1,A,1717.501000000164,timeout,,,1405030.5,1405029266,1403311763,1403322.8,1403328.44,1405045941,,black,UT29PI01,31,m,4,0,Lehramt,0,0,0,0,0
Stimulus,canvas.Screen,2_81_0_1,2022-06-10T15:43:43.214Z,,,1,A,100.27999999979511,timeout,,,1405130.7,1405129545,1405029266,1405030.7,1405045941,1405146221,,black,UT29PI01,31,m,4,0,Lehramt,0,0,0,0,0
Reaction,canvas.Screen,2_81_0_2,2022-06-10T15:43:43.606Z,,,1,A,375.27900000009686,response,stim_detected,mousedown,1405523,1405521.5,1405129545,1405130.9,1405146221,1405546568,,black,UT29PI01,31,m,4,0,Lehramt,0,0,0,0,0
Trial,flow.Sequence,2_81_0,2022-06-10T15:43:43.607Z,,,1,A,2193.060000000056,completion,,,1405523.4,1405521.5,1403311763,1403322.7,1403328.44,1405546568,,black,UT29PI01,31,m,4,0,Lehramt,0,0,0,0,0
Frame,canvas.Frame,2_81,2022-06-10T15:43:43.607Z,,,1,A,2195.160000000149,,,,1405524.1,1405523.6,1403311763,1403321.9,1403328.44,1405546568,,black,UT29PI01,31,m,4,0,Lehramt,0,0,0,0,0
Fixation,canvas.Screen,2_82_0_0,2022-06-10T15:43:45.582Z,,,1,AV,1967.3090000001248,timeout,,,1407498.6,1407497204,1405513214,1405525.6,1405546568,1407513877,,grey,UT29PI01,31,m,4,0,Lehramt,0,0,0,0,0
Stimulus,canvas.Screen,2_82_0_1,2022-06-10T15:43:45.682Z,,,1,AV,100.50299999979325,timeout,,,1407598.8,1407597704,1407497204,1407498.9,1407513877,1407614.38,,grey,UT29PI01,31,m,4,0,Lehramt,0,0,0,0,0
Reaction,canvas.Screen,2_82_0_2,2022-06-10T15:43:45.959Z,,,1,AV,259.0200000000186,response,stim_detected,mousedown,1407875.3,1407873.4,1407597704,1407599,1407614.38,1407881443,,grey,UT29PI01,31,m,4,0,Lehramt,0,0,0,0,0
Trial,flow.Sequence,2_82_0,2022-06-10T15:43:45.959Z,,,1,AV,2326.8319999999367,completion,,,1407875.7,1407873.4,1405513214,1405525.5,1405546568,1407881443,,grey,UT29PI01,31,m,4,0,Lehramt,0,0,0,0,0
Frame,canvas.Frame,2_82,2022-06-10T15:43:45.959Z,,,1,AV,2329.3319999999367,,,,1407876.1,1407875.9,1405513214,1405524.2,1405546568,1407881443,,grey,UT29PI01,31,m,4,0,Lehramt,0,0,0,0,0
Fixation,canvas.Screen,2_83_0_0,2022-06-10T15:43:47.551Z,,,0,V,1601.4189999999944,timeout,,,1409467.7,1409466181,1407864766,1407877.2,1407881443,1409482862,,grey,UT29PI01,31,m,4,0,Lehramt,0,0,0,0,0
Stimulus,canvas.Screen,2_83_0_1,2022-06-10T15:43:47.651Z,,,0,V,99.69200000003912,timeout,,,1409567.6,1409565877,1409466181,1409467.9,1409482862,1409582554,,grey,UT29PI01,31,m,4,0,Lehramt,0,0,0,0,0
Reaction,canvas.Screen,2_83_0_2,2022-06-10T15:43:47.833Z,,,0,V,165.84599999990314,response,stim_detected,mousedown,1409749.9,1409748.4,1409565877,1409567.9,1409582554,1409766039,,grey,UT29PI01,31,m,4,0,Lehramt,0,0,0,0,0
Trial,flow.Sequence,2_83_0,2022-06-10T15:43:47.834Z,,,0,V,1866.9569999999367,completion,,,1409750.3,1409748.4,1407864766,1407877.1,1407881443,1409766039,,grey,UT29PI01,31,m,4,0,Lehramt,0,0,0,0,0
Frame,canvas.Frame,2_83,2022-06-10T15:43:47.834Z,,,0,V,1868.9569999999367,,,,1409750.6,1409750.4,1407864766,1407876.2,1407881443,1409766039,,grey,UT29PI01,31,m,4,0,Lehramt,0,0,0,0,0
Fixation,canvas.Screen,2_84_0_0,2022-06-10T15:43:50.235Z,,,1,A,2401.5,timeout,,,1412152.1,1412150862,1409749362,1409751.7,1409766039,1412167539,,black,UT29PI01,31,m,4,0,Lehramt,0,0,0,0,0
Stimulus,canvas.Screen,2_84_0_1,2022-06-10T15:43:50.336Z,,,1,A,100.05799999996088,timeout,,,1412252.8,1412250.92,1412150862,1412152.4,1412167539,1412267597,,black,UT29PI01,31,m,4,0,Lehramt,0,0,0,0,0
Reaction,canvas.Screen,2_84_0_2,2022-06-10T15:43:50.544Z,,,1,A,191.7029999999795,response,stim_detected,mousedown,1412460.8,1412459.3,1412250.92,1412253,1412267597,1412467839,,black,UT29PI01,31,m,4,0,Lehramt,0,0,0,0,0
Trial,flow.Sequence,2_84_0,2022-06-10T15:43:50.544Z,,,1,A,2693.2609999999404,completion,,,1412461.2,1412459.3,1409749362,1409751.6,1409766039,1412467839,,black,UT29PI01,31,m,4,0,Lehramt,0,0,0,0,0
Frame,canvas.Frame,2_84,2022-06-10T15:43:50.545Z,,,1,A,2695.2609999999404,,,,1412461.4,1412461.3,1409749362,1409750.8,1409766039,1412467839,,black,UT29PI01,31,m,4,0,Lehramt,0,0,0,0,0
Fixation,canvas.Screen,2_85_0_0,2022-06-10T15:43:52.320Z,,,1,AV,1784.0770000000484,timeout,,,1414236.8,1414235242,1412451162,1412462.6,1412467839,1414251916,,grey,UT29PI01,31,m,4,0,Lehramt,0,0,0,0,0
Stimulus,canvas.Screen,2_85_0_1,2022-06-10T15:43:52.420Z,,,1,AV,100.45999999996275,timeout,,,1414336.9,1414335699,1414235242,1414237.1,1414251916,1414352376,,grey,UT29PI01,31,m,4,0,Lehramt,0,0,0,0,0
Reaction,canvas.Screen,2_85_0_2,2022-06-10T15:43:52.619Z,,,1,AV,181.82400000002235,response,stim_detected,mousedown,1414535.7,1414534.2,1414335699,1414337.2,1414352376,1414552478,,grey,UT29PI01,31,m,4,0,Lehramt,0,0,0,0,0
Trial,flow.Sequence,2_85_0,2022-06-10T15:43:52.619Z,,,1,AV,2066.3610000000335,completion,,,1414536.1,1414534.2,1412451162,1412462.5,1412467839,1414552478,,grey,UT29PI01,31,m,4,0,Lehramt,0,0,0,0,0
Frame,canvas.Frame,2_85,2022-06-10T15:43:52.620Z,,,1,AV,2068.3610000000335,,,,1414536.4,1414536.2,1412451162,1412461.7,1412467839,1414552478,,grey,UT29PI01,31,m,4,0,Lehramt,0,0,0,0,0
Fixation,canvas.Screen,2_86_0_0,2022-06-10T15:43:54.956Z,,,1,AV,2335.57200000016,timeout,,,1416873.2,1416871368,1414535802,1414537.5,1414552478,1416888.05,,grey,UT29PI01,31,m,4,0,Lehramt,0,0,0,0,0
Stimulus,canvas.Screen,2_86_0_1,2022-06-10T15:43:55.055Z,,,1,AV,99.48300000000745,timeout,,,1416971.8,1416970855,1416871368,1416873.9,1416888.05,1416987533,,grey,UT29PI01,31,m,4,0,Lehramt,0,0,0,0,0
Reaction,canvas.Screen,2_86_0_2,2022-06-10T15:43:55.208Z,,,1,AV,135.76699999999255,response,stim_detected,mousedown,1417124.9,1417123.3,1416970855,1416972,1416987533,1417137566,,grey,UT29PI01,31,m,4,0,Lehramt,0,0,0,0,0
Trial,flow.Sequence,2_86_0,2022-06-10T15:43:55.209Z,,,1,AV,2570.82200000016,completion,,,1417125.3,1417123.3,1414535802,1414537.4,1414552478,1417137566,,grey,UT29PI01,31,m,4,0,Lehramt,0,0,0,0,0
Frame,canvas.Frame,2_86,2022-06-10T15:43:55.209Z,,,1,AV,2572.9220000000205,,,,1417125.6,1417125.4,1414535802,1414536.6,1414552478,1417137566,,grey,UT29PI01,31,m,4,0,Lehramt,0,0,0,0,0
Fixation,canvas.Screen,2_87_0_0,2022-06-10T15:43:57.222Z,,,1,A,2017.123999999836,timeout,,,1419139,1419138019,1417120889,1417126.7,1417137566,1419154.69,,black,UT29PI01,31,m,4,0,Lehramt,0,0,0,0,0
Stimulus,canvas.Screen,2_87_0_1,2022-06-10T15:43:57.323Z,,,1,A,100.9910000001546,timeout,,,1419240.1,1419239002,1419138019,1419139.3,1419154.69,1419255681,,black,UT29PI01,31,m,4,0,Lehramt,0,0,0,0,0
Reaction,canvas.Screen,2_87_0_2,2022-06-10T15:43:57.511Z,,,1,A,170.71899999980815,response,stim_detected,mousedown,1419427.9,1419426.4,1419239002,1419240.3,1419255681,1419455727,,black,UT29PI01,31,m,4,0,Lehramt,0,0,0,0,0
Trial,flow.Sequence,2_87_0,2022-06-10T15:43:57.512Z,,,1,A,2288.833999999799,completion,,,1419428.3,1419426.4,1417120889,1417126.6,1417137566,1419455727,,black,UT29PI01,31,m,4,0,Lehramt,0,0,0,0,0
Frame,canvas.Frame,2_87,2022-06-10T15:43:57.512Z,,,1,A,2290.833999999799,,,,1419428.6,1419428.4,1417120889,1417125.7,1417137566,1419455727,,black,UT29PI01,31,m,4,0,Lehramt,0,0,0,0,0
Fixation,canvas.Screen,2_88_0_0,2022-06-10T15:43:59.108Z,,,0,V,1585.094999999972,timeout,,,1421025.1,1421024137,1419422373,1419429.7,1419455727,1421040822,,grey,UT29PI01,31,m,4,0,Lehramt,0,0,0,0,0
Stimulus,canvas.Screen,2_88_0_1,2022-06-10T15:43:59.208Z,,,0,V,99.09400000004098,timeout,,,1421124.2,1421123241,1421024137,1421025.4,1421040822,1421139916,,grey,UT29PI01,31,m,4,0,Lehramt,0,0,0,0,0
Reaction,canvas.Screen,2_88_0_2,2022-06-10T15:43:59.524Z,,,0,V,299.2839999999851,response,stim_detected,mousedown,1421440.7,1421439.2,1421123241,1421124.5,1421139916,1421457092,,grey,UT29PI01,31,m,4,0,Lehramt,0,0,0,0,0
Trial,flow.Sequence,2_88_0,2022-06-10T15:43:59.524Z,,,0,V,1983.4729999999981,completion,,,1421441.1,1421439.2,1419422373,1419429.6,1419455727,1421457092,,grey,UT29PI01,31,m,4,0,Lehramt,0,0,0,0,0
Frame,canvas.Frame,2_88,2022-06-10T15:43:59.525Z,,,0,V,1985.4729999999981,,,,1421441.5,1421441.2,1419422373,1419428.7,1419455727,1421457092,,grey,UT29PI01,31,m,4,0,Lehramt,0,0,0,0,0
Fixation,canvas.Screen,2_89_0_0,2022-06-10T15:44:01.644Z,,,0,V,2117.9860000000335,timeout,,,1423560.2,1423558401,1421440415,1421442.6,1421457092,1423575078,,grey,UT29PI01,31,m,4,0,Lehramt,0,0,0,0,0
Stimulus,canvas.Screen,2_89_0_1,2022-06-10T15:44:01.744Z,,,0,V,100.11100000003353,timeout,,,1423660.2,1423658512,1423558401,1423560.4,1423575078,1423675189,,grey,UT29PI01,31,m,4,0,Lehramt,0,0,0,0,0
Reaction,canvas.Screen,2_89_0_2,2022-06-10T15:44:01.941Z,,,0,V,181.0109999999404,response,stim_detected,mousedown,1423857.7,1423856.2,1423658512,1423660.5,1423675189,1423875363,,grey,UT29PI01,31,m,4,0,Lehramt,0,0,0,0,0
Trial,flow.Sequence,2_89_0,2022-06-10T15:44:01.941Z,,,0,V,2399.1080000000075,completion,,,1423858.1,1423856.2,1421440415,1421442.5,1421457092,1423875363,,grey,UT29PI01,31,m,4,0,Lehramt,0,0,0,0,0
Frame,canvas.Frame,2_89,2022-06-10T15:44:01.942Z,,,0,V,2401.2080000001006,,,,1423858.4,1423858.3,1421440415,1421441.6,1421457092,1423875363,,grey,UT29PI01,31,m,4,0,Lehramt,0,0,0,0,0
Fixation,canvas.Screen,2_90_0_0,2022-06-10T15:44:03.578Z,,,1,AV,1634.130000000121,timeout,,,1425494.3,1425492818,1423858686,1423859.6,1423875363,1425509493,,grey,UT29PI01,31,m,4,0,Lehramt,0,0,0,0,0
Stimulus,canvas.Screen,2_90_0_1,2022-06-10T15:44:03.678Z,,,1,AV,100.21799999987707,timeout,,,1425594.3,1425593035,1425492818,1425494.6,1425509493,1425609711,,grey,UT29PI01,31,m,4,0,Lehramt,0,0,0,0,0
Reaction,canvas.Screen,2_90_0_2,2022-06-10T15:44:03.982Z,,,1,AV,287.3890000001993,response,stim_detected,mousedown,1425898.6,1425897.1,1425593035,1425594.5,1425609711,1426226888,,grey,UT29PI01,31,m,4,0,Lehramt,0,0,0,0,0
Trial,flow.Sequence,2_90_0,2022-06-10T15:44:03.982Z,,,1,AV,2021.7370000001974,completion,,,1425899,1425897.1,1423858686,1423859.4,1423875363,1426226888,,grey,UT29PI01,31,m,4,0,Lehramt,0,0,0,0,0
Frame,canvas.Frame,2_90,2022-06-10T15:44:03.983Z,,,1,AV,2023.7370000001974,,,,1425899.3,1425899.1,1423858686,1423858.6,1423875363,1426226888,,grey,UT29PI01,31,m,4,0,Lehramt,0,0,0,0,0
Loop,flow.Loop,2,2022-06-10T15:44:03.983Z,,,,,208462.3620000002,completion,,,1425899.7,1425899.1,1217353438,1217416.9,1217436738,1426226888,,,UT29PI01,31,m,4,0,Lehramt,0,0,0,0,0
end,html.Page,3,2022-06-10T15:44:29.993Z,,,,,25681.712000000058,form submission,,,1451909.2,1451908.6,1426210211,1425899.9,1426226888,1452033717,,,UT29PI01,31,m,4,0,Lehramt,0,0,0,0,0
root,flow.Sequence,,2022-06-10T15:44:30.052Z,,,,,1447796777,completion,,,1451968.3,1451908.6,4061.79,4065.7999999999884,4111823,1452033717,,,UT29PI01,31,m,4,0,Lehramt,0,0,0,0,0
