sender,sender_type,sender_id,timestamp,meta,,aud,condition,duration,ended_on,response,response_action,time_commit,time_end,time_render,time_run,time_show,time_switch,url,vis,id,age,sex,edu,occ,ela,pat,ill,prt,pcr,pab
Instructions,html.Page,0,2022-06-24T11:35:02.790Z,"{""labjs_version"":""20.2.4"",""labjs_build"":{""flavor"":""production"",""commit"":""f5b4a49f956347addd546a832a3327688c2c0fef""},""location"":""file:///C:/Users/Proband%207/Desktop/RTE/index.html"",""userAgent"":""Mozilla/5.0 (Windows NT 6.1; Win64; x64) AppleWebKit/537.36 (KHTML, like Gecko) Chrome/102.0.0.0 Safari/537.36"",""platform"":""Win32"",""language"":""de-DE"",""locale"":""de"",""timeZone"":""Europe/Berlin"",""timezoneOffset"":-120,""screen_width"":1366,""screen_height"":768,""scroll_width"":1366,""scroll_height"":609,""window_innerWidth"":1366,""window_innerHeight"":657,""devicePixelRatio"":1}",,,,3432.6949999999533,form submission,,,4829.399999999907,4828.699999999953,1379329,1385.7999999998137,1396005,4831512,{},,XXXXIRXX,26,f,1,0,Psychologie,0,0,0,0,0
Change Background,canvas.Screen,1,2022-06-24T11:35:05.781Z,,,,,3003.1850000000004,timeout,,,7820.09999999986,7818011,4814837,4829.899999999907,4831512,7834697,,,XXXXIRXX,26,f,1,0,Psychologie,0,0,0,0,0
Fixation,canvas.Screen,2_0_0_0,2022-06-24T11:35:07.515Z,,,1,AV,1734.1270000000004,timeout,,,9554.199999999953,9552.14,7818011,7821.59999999986,7834697,9568824,,grey,XXXXIRXX,26,f,1,0,Psychologie,0,0,0,0,0
Stimulus,canvas.Screen,2_0_0_1,2022-06-24T11:35:07.613Z,,,1,AV,99.41399999999885,timeout,,,9652.399999999907,9651561,9552.14,9554.399999999907,9568824,9668238,,grey,XXXXIRXX,26,f,1,0,Psychologie,0,0,0,0,0
Reaction,canvas.Screen,2_0_0_2,2022-06-24T11:35:07.855Z,,,1,AV,224.36199999986093,response,stim_detected,mousedown,9894.699999999953,9892.59999999986,9651561,9652.5,9668238,9901683,,grey,XXXXIRXX,26,f,1,0,Psychologie,0,0,0,0,0
Trial,flow.Sequence,2_0_0,2022-06-24T11:35:07.856Z,,,1,AV,2057.90299999986,completion,,,9895.199999999953,9892.59999999986,7818011,7821.5,7834697,9901683,,grey,XXXXIRXX,26,f,1,0,Psychologie,0,0,0,0,0
Frame,canvas.Frame,2_0,2022-06-24T11:35:07.856Z,,,1,AV,2060.7029999999068,,,,9895.799999999814,9895.399999999907,7818011,7820.5,7834697,9901683,,grey,XXXXIRXX,26,f,1,0,Psychologie,0,0,0,0,0
Fixation,canvas.Screen,2_1_0_0,2022-06-24T11:35:10.266Z,,,0,V,2418.3409999999985,timeout,,,12305.699999999953,12303346,9885006,9897,9901683,12320024,,grey,XXXXIRXX,26,f,1,0,Psychologie,0,0,0,0,0
Stimulus,canvas.Screen,2_1_0_1,2022-06-24T11:35:10.366Z,,,0,V,100.10800000000017,timeout,,,12405.699999999953,12403452,12303346,12305.899999999907,12320024,12420132,,grey,XXXXIRXX,26,f,1,0,Psychologie,0,0,0,0,0
Reaction,canvas.Screen,2_1_0_2,2022-06-24T11:35:10.560Z,,,0,V,177.3680000000004,response,stim_detected,mousedown,12599.299999999814,12597.5,12403452,12406.199999999953,12420132,12603497,,grey,XXXXIRXX,26,f,1,0,Psychologie,0,0,0,0,0
Trial,flow.Sequence,2_1_0,2022-06-24T11:35:10.560Z,,,0,V,2695.816999999999,completion,,,12600.09999999986,12597.5,9885006,9896.899999999907,9901683,12603497,,grey,XXXXIRXX,26,f,1,0,Psychologie,0,0,0,0,0
Frame,canvas.Frame,2_1,2022-06-24T11:35:10.561Z,,,0,V,2698.5169999999525,,,,12600.59999999986,12600.199999999953,9885006,9896,9901683,12603497,,grey,XXXXIRXX,26,f,1,0,Psychologie,0,0,0,0,0
Fixation,canvas.Screen,2_2_0_0,2022-06-24T11:35:12.418Z,,,0,V,1868.9670000000006,timeout,,,14457.199999999953,14455777,12586.82,12601.899999999907,12603497,14472464,,grey,XXXXIRXX,26,f,1,0,Psychologie,0,0,0,0,0
Stimulus,canvas.Screen,2_2_0_1,2022-06-24T11:35:12.516Z,,,0,V,98.4940000000006,timeout,,,14555.199999999953,14554285,14455777,14457.5,14472464,14570958,,grey,XXXXIRXX,26,f,1,0,Psychologie,0,0,0,0,0
Reaction,canvas.Screen,2_2_0_2,2022-06-24T11:35:12.674Z,,,0,V,140.54199999999946,response,stim_detected,mousedown,14713.399999999907,14711.5,14554285,14555.5,14570958,14721617,,grey,XXXXIRXX,26,f,1,0,Psychologie,0,0,0,0,0
Trial,flow.Sequence,2_2_0,2022-06-24T11:35:12.674Z,,,0,V,2108.0030000000006,completion,,,14713.899999999907,14711.5,12586.82,12601.699999999953,12603497,14721617,,grey,XXXXIRXX,26,f,1,0,Psychologie,0,0,0,0,0
Frame,canvas.Frame,2_2,2022-06-24T11:35:12.675Z,,,0,V,2110.5030000000006,,,,14714.299999999814,14714,12586.82,12600.799999999814,12603497,14721617,,grey,XXXXIRXX,26,f,1,0,Psychologie,0,0,0,0,0
Fixation,canvas.Screen,2_3_0_0,2022-06-24T11:35:15.036Z,,,1,A,2368.7559999999994,timeout,,,17075.299999999814,17073692,14704.94,14715.59999999986,14721617,17090373,,black,XXXXIRXX,26,f,1,0,Psychologie,0,0,0,0,0
Stimulus,canvas.Screen,2_3_0_1,2022-06-24T11:35:15.135Z,,,1,A,99.33699999999953,timeout,,,17174.199999999953,17173034,17073692,17075.5,17090373,17189.71,,black,XXXXIRXX,26,f,1,0,Psychologie,0,0,0,0,0
Reaction,canvas.Screen,2_3_0_2,2022-06-24T11:35:15.336Z,,,1,A,182.5899999998146,response,stim_detected,mousedown,17375.59999999986,17372.299999999814,17173034,17174.399999999907,17189.71,17406708,,black,XXXXIRXX,26,f,1,0,Psychologie,0,0,0,0,0
Trial,flow.Sequence,2_3_0,2022-06-24T11:35:15.336Z,,,1,A,2650.6829999998135,completion,,,17375.899999999907,17372.299999999814,14704.94,14715.5,14721617,17406708,,black,XXXXIRXX,26,f,1,0,Psychologie,0,0,0,0,0
Frame,canvas.Frame,2_3,2022-06-24T11:35:15.337Z,,,1,A,2654383,,,,17376.299999999814,17376,14704.94,14714.5,14721617,17406708,,black,XXXXIRXX,26,f,1,0,Psychologie,0,0,0,0,0
Fixation,canvas.Screen,2_4_0_0,2022-06-24T11:35:17.337Z,,,1,AV,1985.117000000002,timeout,,,19376.59999999986,19375144,17373354,17377.399999999907,17406708,19391825,,grey,XXXXIRXX,26,f,1,0,Psychologie,0,0,0,0,0
Stimulus,canvas.Screen,2_4_0_1,2022-06-24T11:35:17.437Z,,,1,AV,99.72099999999773,timeout,,,19476.399999999907,19474868,19375144,19377,19391825,19491546,,grey,XXXXIRXX,26,f,1,0,Psychologie,0,0,0,0,0
Reaction,canvas.Screen,2_4_0_2,2022-06-24T11:35:17.590Z,,,1,AV,135.8539999999084,response,stim_detected,mousedown,19629.899999999907,19627.399999999907,19474868,19476.59999999986,19491546,19641555,,grey,XXXXIRXX,26,f,1,0,Psychologie,0,0,0,0,0
Trial,flow.Sequence,2_4_0,2022-06-24T11:35:17.591Z,,,1,AV,2220.691999999908,completion,,,19630.299999999814,19627.399999999907,17373354,17377.199999999953,17406708,19641555,,grey,XXXXIRXX,26,f,1,0,Psychologie,0,0,0,0,0
Frame,canvas.Frame,2_4,2022-06-24T11:35:17.591Z,,,1,AV,2223.691999999908,,,,19630.699999999953,19630.399999999907,17373354,17376.399999999907,17406708,19641555,,grey,XXXXIRXX,26,f,1,0,Psychologie,0,0,0,0,0
Fixation,canvas.Screen,2_5_0_0,2022-06-24T11:35:19.405Z,,,1,AV,1818.4939999999988,timeout,,,21444.5,21443366,19624878,19632,19641555,21460049,,grey,XXXXIRXX,26,f,1,0,Psychologie,0,0,0,0,0
Stimulus,canvas.Screen,2_5_0_1,2022-06-24T11:35:19.504Z,,,1,AV,99.03399999999965,timeout,,,21543.699999999953,21542409,21443366,21444.799999999814,21460049,21559083,,grey,XXXXIRXX,26,f,1,0,Psychologie,0,0,0,0,0
Reaction,canvas.Screen,2_5_0_2,2022-06-24T11:35:19.646Z,,,1,AV,125.41700000000128,response,stim_detected,mousedown,21686,21684.5,21542409,21543.899999999907,21559083,21692937,,grey,XXXXIRXX,26,f,1,0,Psychologie,0,0,0,0,0
Trial,flow.Sequence,2_5_0,2022-06-24T11:35:19.647Z,,,1,AV,2042.9449999999997,completion,,,21686.399999999907,21684.5,19624878,19631.699999999953,19641555,21692937,,grey,XXXXIRXX,26,f,1,0,Psychologie,0,0,0,0,0
Frame,canvas.Frame,2_5,2022-06-24T11:35:19.647Z,,,1,AV,2045.04499999986,,,,21686.799999999814,21686.59999999986,19624878,19630.799999999814,19641555,21692937,,grey,XXXXIRXX,26,f,1,0,Psychologie,0,0,0,0,0
Fixation,canvas.Screen,2_6_0_0,2022-06-24T11:35:21.273Z,,,1,AV,1634.895999999997,timeout,,,23312.5,23311151,21676.26,21688.09999999986,21692937,23327833,,grey,XXXXIRXX,26,f,1,0,Psychologie,0,0,0,0,0
Stimulus,canvas.Screen,2_6_0_1,2022-06-24T11:35:21.372Z,,,1,AV,99.12000000000262,timeout,,,23411.59999999986,23410.28,23311151,23313,23327833,23426953,,grey,XXXXIRXX,26,f,1,0,Psychologie,0,0,0,0,0
Reaction,canvas.Screen,2_6_0_2,2022-06-24T11:35:21.533Z,,,1,AV,144.44699999990553,response,stim_detected,mousedown,23573.09999999986,23571.399999999907,23410.28,23411.899999999907,23426953,23577552,,grey,XXXXIRXX,26,f,1,0,Psychologie,0,0,0,0,0
Trial,flow.Sequence,2_6_0,2022-06-24T11:35:21.534Z,,,1,AV,1878.4629999999052,completion,,,23573.5,23571.399999999907,21676.26,21688,21692937,23577552,,grey,XXXXIRXX,26,f,1,0,Psychologie,0,0,0,0,0
Frame,canvas.Frame,2_6,2022-06-24T11:35:21.534Z,,,1,AV,1880.6629999998586,,,,23573.799999999814,23573.59999999986,21676.26,21686.899999999907,21692937,23577552,,grey,XXXXIRXX,26,f,1,0,Psychologie,0,0,0,0,0
Fixation,canvas.Screen,2_7_0_0,2022-06-24T11:35:23.156Z,,,1,AV,1633.6929999999993,timeout,,,25195.59999999986,25194574,23560875,23574.899999999907,23577552,25211245,,grey,XXXXIRXX,26,f,1,0,Psychologie,0,0,0,0,0
Stimulus,canvas.Screen,2_7_0_1,2022-06-24T11:35:23.257Z,,,1,AV,100.88899999999921,timeout,,,25296.59999999986,25295454,25194574,25195.899999999907,25211245,25312134,,grey,XXXXIRXX,26,f,1,0,Psychologie,0,0,0,0,0
Reaction,canvas.Screen,2_7_0_2,2022-06-24T11:35:23.416Z,,,1,AV,142.16599999981554,response,stim_detected,mousedown,25456,25454.299999999814,25295454,25296.799999999814,25312134,25462099,,grey,XXXXIRXX,26,f,1,0,Psychologie,0,0,0,0,0
Trial,flow.Sequence,2_7_0,2022-06-24T11:35:23.417Z,,,1,AV,1876.747999999814,completion,,,25456.299999999814,25454.299999999814,23560875,23574.799999999814,23577552,25462099,,grey,XXXXIRXX,26,f,1,0,Psychologie,0,0,0,0,0
Frame,canvas.Frame,2_7,2022-06-24T11:35:23.417Z,,,1,AV,1878.9480000000003,,,,25456.699999999953,25456.5,23560875,23574,23577552,25462099,,grey,XXXXIRXX,26,f,1,0,Psychologie,0,0,0,0,0
Fixation,canvas.Screen,2_8_0_0,2022-06-24T11:35:25.409Z,,,1,AV,2002.5020000000004,timeout,,,27448.899999999907,27447914,25445422,25457.899999999907,25462099,27464601,,grey,XXXXIRXX,26,f,1,0,Psychologie,0,0,0,0,0
Stimulus,canvas.Screen,2_8_0_1,2022-06-24T11:35:25.508Z,,,1,AV,98.35100000000239,timeout,,,27547.799999999814,27546279,27447914,27449.199999999953,27464601,27562952,,grey,XXXXIRXX,26,f,1,0,Psychologie,0,0,0,0,0
Reaction,canvas.Screen,2_8_0_2,2022-06-24T11:35:25.648Z,,,1,AV,123.3479999998126,response,stim_detected,mousedown,27688.09999999986,27686.299999999814,27546279,27548.299999999814,27562952,27696962,,grey,XXXXIRXX,26,f,1,0,Psychologie,0,0,0,0,0
Trial,flow.Sequence,2_8_0,2022-06-24T11:35:25.649Z,,,1,AV,2224.2009999998154,completion,,,27688.5,27686.299999999814,25445422,25457.799999999814,25462099,27696962,,grey,XXXXIRXX,26,f,1,0,Psychologie,0,0,0,0,0
Frame,canvas.Frame,2_8,2022-06-24T11:35:25.649Z,,,1,AV,2226.500999999862,,,,27688.799999999814,27688.59999999986,25445422,25456.899999999907,25462099,27696962,,grey,XXXXIRXX,26,f,1,0,Psychologie,0,0,0,0,0
Fixation,canvas.Screen,2_9_0_0,2022-06-24T11:35:27.559Z,,,1,AV,1917.2210000000014,timeout,,,29598.899999999907,29597511,27680285,27690.199999999953,27696962,29614183,,grey,XXXXIRXX,26,f,1,0,Psychologie,0,0,0,0,0
Stimulus,canvas.Screen,2_9_0_1,2022-06-24T11:35:27.660Z,,,1,AV,100.83599999999933,timeout,,,29699.899999999907,29698341,29597511,29599.09999999986,29614183,29715019,,grey,XXXXIRXX,26,f,1,0,Psychologie,0,0,0,0,0
Reaction,canvas.Screen,2_9_0_2,2022-06-24T11:35:27.823Z,,,1,AV,146.38099999990663,response,stim_detected,mousedown,29863,29861.399999999907,29698341,29700.199999999953,29715019,29865045,,grey,XXXXIRXX,26,f,1,0,Psychologie,0,0,0,0,0
Trial,flow.Sequence,2_9_0,2022-06-24T11:35:27.824Z,,,1,AV,2164.4379999999073,completion,,,29863.299999999814,29861.399999999907,27680285,27690.09999999986,27696962,29865045,,grey,XXXXIRXX,26,f,1,0,Psychologie,0,0,0,0,0
Frame,canvas.Frame,2_9,2022-06-24T11:35:27.824Z,,,1,AV,2166.5380000000005,,,,29863.699999999953,29863.5,27680285,27689.09999999986,27696962,29865045,,grey,XXXXIRXX,26,f,1,0,Psychologie,0,0,0,0,0
Fixation,canvas.Screen,2_10_0_0,2022-06-24T11:35:29.378Z,,,0,V,1568.7310000000034,timeout,,,31417.899999999907,31417088,29848368,29865.09999999986,29865045,31433776,,grey,XXXXIRXX,26,f,1,0,Psychologie,0,0,0,0,0
Stimulus,canvas.Screen,2_10_0_1,2022-06-24T11:35:29.477Z,,,0,V,98.71099999999933,timeout,,,31517,31515813,31417088,31418.09999999986,31433776,31532487,,grey,XXXXIRXX,26,f,1,0,Psychologie,0,0,0,0,0
Reaction,canvas.Screen,2_10_0_2,2022-06-24T11:35:29.668Z,,,0,V,172.81299999981275,response,stim_detected,mousedown,31707.399999999907,31705.299999999814,31515813,31517.199999999953,31532487,31716318,,grey,XXXXIRXX,26,f,1,0,Psychologie,0,0,0,0,0
Trial,flow.Sequence,2_10_0,2022-06-24T11:35:29.668Z,,,0,V,1840.2549999998155,completion,,,31707.699999999953,31705.299999999814,29848368,29865,29865045,31716318,,grey,XXXXIRXX,26,f,1,0,Psychologie,0,0,0,0,0
Frame,canvas.Frame,2_10,2022-06-24T11:35:29.668Z,,,0,V,1842.8549999999086,,,,31708.09999999986,31707.899999999907,29848368,29863.799999999814,29865045,31716318,,grey,XXXXIRXX,26,f,1,0,Psychologie,0,0,0,0,0
Fixation,canvas.Screen,2_11_0_0,2022-06-24T11:35:31.962Z,,,1,A,2301589,timeout,,,34002,34001229,31699641,31709.199999999953,31716318,34017907,,black,XXXXIRXX,26,f,1,0,Psychologie,0,0,0,0,0
Stimulus,canvas.Screen,2_11_0_1,2022-06-24T11:35:32.062Z,,,1,A,99.84900000000198,timeout,,,34102,34101.08,34001229,34002.299999999814,34017907,34117756,,black,XXXXIRXX,26,f,1,0,Psychologie,0,0,0,0,0
Reaction,canvas.Screen,2_11_0_2,2022-06-24T11:35:32.656Z,,,1,A,576.5439999998125,response,stim_detected,mousedown,34695.89999999991,34694.299999999814,34101.08,34102.19999999995,34117756,34701635,,black,XXXXIRXX,26,f,1,0,Psychologie,0,0,0,0,0
Trial,flow.Sequence,2_11_0,2022-06-24T11:35:32.657Z,,,1,A,2977.9819999998144,completion,,,34696.299999999814,34694.299999999814,31699641,31709.09999999986,31716318,34701635,,black,XXXXIRXX,26,f,1,0,Psychologie,0,0,0,0,0
Frame,canvas.Frame,2_11,2022-06-24T11:35:32.657Z,,,1,A,2980.1820000000007,,,,34696.59999999986,34696.5,31699641,31708.199999999953,31716318,34701635,,black,XXXXIRXX,26,f,1,0,Psychologie,0,0,0,0,0
Fixation,canvas.Screen,2_12_0_0,2022-06-24T11:35:35.081Z,,,0,V,2434.3229999999967,timeout,,,37120.59999999986,37119284,34684958,34697.799999999814,34701635,37135958,,grey,XXXXIRXX,26,f,1,0,Psychologie,0,0,0,0,0
Stimulus,canvas.Screen,2_12_0_1,2022-06-24T11:35:35.182Z,,,0,V,100.67199999999866,timeout,,,37221.299999999814,37219953,37119284,37120.799999999814,37135958,37236.63,,grey,XXXXIRXX,26,f,1,0,Psychologie,0,0,0,0,0
Reaction,canvas.Screen,2_12_0_2,2022-06-24T11:35:35.402Z,,,0,V,203.66999999981635,response,stim_detected,mousedown,37442,37440.299999999814,37219953,37221.59999999986,37236.63,37453444,,grey,XXXXIRXX,26,f,1,0,Psychologie,0,0,0,0,0
Trial,flow.Sequence,2_12_0,2022-06-24T11:35:35.403Z,,,0,V,2738.6649999998117,completion,,,37442.39999999991,37440.299999999814,34684958,34697.69999999995,34701635,37453444,,grey,XXXXIRXX,26,f,1,0,Psychologie,0,0,0,0,0
Frame,canvas.Frame,2_12,2022-06-24T11:35:35.403Z,,,0,V,2740.9649999998583,,,,37442.799999999814,37442.59999999986,34684958,34696.799999999814,34701635,37453444,,grey,XXXXIRXX,26,f,1,0,Psychologie,0,0,0,0,0
Fixation,canvas.Screen,2_13_0_0,2022-06-24T11:35:37.600Z,,,0,V,2201.3719999999958,timeout,,,39639.299999999814,39638139,37436767,37444,37453444,39654816,,grey,XXXXIRXX,26,f,1,0,Psychologie,0,0,0,0,0
Stimulus,canvas.Screen,2_13_0_1,2022-06-24T11:35:37.700Z,,,0,V,100.22499999999854,timeout,,,39739.299999999814,39738363,39638139,39639.5,39654816,39755041,,grey,XXXXIRXX,26,f,1,0,Psychologie,0,0,0,0,0
Reaction,canvas.Screen,2_13_0_2,2022-06-24T11:35:37.875Z,,,0,V,158.158999999956,response,stim_detected,mousedown,39915,39913.19999999995,39738363,39739.5,39755041,39921.81,,grey,XXXXIRXX,26,f,1,0,Psychologie,0,0,0,0,0
Trial,flow.Sequence,2_13_0,2022-06-24T11:35:37.876Z,,,0,V,2459.7559999999503,completion,,,39915.39999999991,39913.19999999995,37436767,37443.89999999991,37453444,39921.81,,grey,XXXXIRXX,26,f,1,0,Psychologie,0,0,0,0,0
Frame,canvas.Frame,2_13,2022-06-24T11:35:37.876Z,,,0,V,2462.155999999857,,,,39915.69999999995,39915.59999999986,37436767,37443,37453444,39921.81,,grey,XXXXIRXX,26,f,1,0,Psychologie,0,0,0,0,0
Fixation,canvas.Screen,2_14_0_0,2022-06-24T11:35:39.434Z,,,0,V,1567.425000000003,timeout,,,41473.59999999986,41472.56,39905133,39916.799999999814,39921.81,41489235,,grey,XXXXIRXX,26,f,1,0,Psychologie,0,0,0,0,0
Stimulus,canvas.Screen,2_14_0_1,2022-06-24T11:35:39.535Z,,,0,V,100.36499999999796,timeout,,,41574.39999999991,41572923,41472.56,41473.69999999995,41489235,41589.6,,grey,XXXXIRXX,26,f,1,0,Psychologie,0,0,0,0,0
Reaction,canvas.Screen,2_14_0_2,2022-06-24T11:35:39.832Z,,,0,V,280.49999999986176,response,stim_detected,mousedown,41871.89999999991,41870.09999999986,41572923,41574.5,41589.6,41889744,,grey,XXXXIRXX,26,f,1,0,Psychologie,0,0,0,0,0
Trial,flow.Sequence,2_14_0,2022-06-24T11:35:39.833Z,,,0,V,1948.2899999998626,completion,,,41872.19999999995,41870.09999999986,39905133,39916.69999999995,39921.81,41889744,,grey,XXXXIRXX,26,f,1,0,Psychologie,0,0,0,0,0
Frame,canvas.Frame,2_14,2022-06-24T11:35:39.833Z,,,0,V,1950.5899999999092,,,,41872.59999999986,41872.39999999991,39905133,39915.89999999991,39921.81,41889744,,grey,XXXXIRXX,26,f,1,0,Psychologie,0,0,0,0,0
Fixation,canvas.Screen,2_15_0_0,2022-06-24T11:35:41.387Z,,,0,V,1551.8499999999985,timeout,,,43426.5,43424908,41873067,41874,41889744,43441594,,grey,XXXXIRXX,26,f,1,0,Psychologie,0,0,0,0,0
Stimulus,canvas.Screen,2_15_0_1,2022-06-24T11:35:41.486Z,,,0,V,99.13300000000163,timeout,,,43525.39999999991,43524051,43424908,43426.799999999814,43441594,43540727,,grey,XXXXIRXX,26,f,1,0,Psychologie,0,0,0,0,0
Reaction,canvas.Screen,2_15_0_2,2022-06-24T11:35:41.687Z,,,0,V,184.37299999986135,response,stim_detected,mousedown,43726.69999999995,43725.09999999986,43524051,43525.69999999995,43540727,43741024,,grey,XXXXIRXX,26,f,1,0,Psychologie,0,0,0,0,0
Trial,flow.Sequence,2_15_0,2022-06-24T11:35:41.687Z,,,0,V,1835.3559999998615,completion,,,43727.09999999986,43725.09999999986,41873067,41873.89999999991,41889744,43741024,,grey,XXXXIRXX,26,f,1,0,Psychologie,0,0,0,0,0
Frame,canvas.Frame,2_15,2022-06-24T11:35:41.688Z,,,0,V,1837.4559999999547,,,,43727.39999999991,43727.19999999995,41873067,41872.69999999995,41889744,43741024,,grey,XXXXIRXX,26,f,1,0,Psychologie,0,0,0,0,0
Fixation,canvas.Screen,2_16_0_0,2022-06-24T11:35:43.704Z,,,0,V,2018.2920000000013,timeout,,,45743.59999999986,45742636,43724347,43728.5,43741024,45759316,,grey,XXXXIRXX,26,f,1,0,Psychologie,0,0,0,0,0
Stimulus,canvas.Screen,2_16_0_1,2022-06-24T11:35:43.804Z,,,0,V,99.30299999999988,timeout,,,45843.59999999986,45841945,45742636,45744,45759316,45858619,,grey,XXXXIRXX,26,f,1,0,Psychologie,0,0,0,0,0
Reaction,canvas.Screen,2_16_0_2,2022-06-24T11:35:44.034Z,,,0,V,213.58099999995466,response,stim_detected,mousedown,46073.89999999991,46072.19999999995,45841945,45843.89999999991,45858619,46075922,,grey,XXXXIRXX,26,f,1,0,Psychologie,0,0,0,0,0
Trial,flow.Sequence,2_16_0,2022-06-24T11:35:44.035Z,,,0,V,2331.175999999956,completion,,,46074.299999999814,46072.19999999995,43724347,43728.39999999991,43741024,46075922,,grey,XXXXIRXX,26,f,1,0,Psychologie,0,0,0,0,0
Frame,canvas.Frame,2_16,2022-06-24T11:35:44.035Z,,,0,V,2333.3759999999093,,,,46074.59999999986,46074.39999999991,43724347,43727.59999999986,43741024,46075922,,grey,XXXXIRXX,26,f,1,0,Psychologie,0,0,0,0,0
Fixation,canvas.Screen,2_17_0_0,2022-06-24T11:35:45.639Z,,,1,AV,1617.9429999999993,timeout,,,47678.69999999995,47677185,46059245,46075.89999999991,46075922,47693865,,grey,XXXXIRXX,26,f,1,0,Psychologie,0,0,0,0,0
Stimulus,canvas.Screen,2_17_0_1,2022-06-24T11:35:45.738Z,,,1,AV,99.71800000000076,timeout,,,47777.69999999995,47776907,47677185,47679,47693865,47793583,,grey,XXXXIRXX,26,f,1,0,Psychologie,0,0,0,0,0
Reaction,canvas.Screen,2_17_0_2,2022-06-24T11:35:45.885Z,,,1,AV,129.61699999995471,response,stim_detected,mousedown,47925,47923.19999999995,47776907,47777.89999999991,47793583,47927145,,grey,XXXXIRXX,26,f,1,0,Psychologie,0,0,0,0,0
Trial,flow.Sequence,2_17_0,2022-06-24T11:35:45.886Z,,,1,AV,1847.2779999999548,completion,,,47925.39999999991,47923.19999999995,46059245,46075.799999999814,46075922,47927145,,grey,XXXXIRXX,26,f,1,0,Psychologie,0,0,0,0,0
Frame,canvas.Frame,2_17,2022-06-24T11:35:45.886Z,,,1,AV,1849.5780000000013,,,,47925.69999999995,47925.5,46059245,46074.799999999814,46075922,47927145,,grey,XXXXIRXX,26,f,1,0,Psychologie,0,0,0,0,0
Fixation,canvas.Screen,2_18_0_0,2022-06-24T11:35:47.574Z,,,1,AV,1701.7400000000052,timeout,,,49613.89999999991,49612202,47910468,47926.69999999995,47927145,49628885,,grey,XXXXIRXX,26,f,1,0,Psychologie,0,0,0,0,0
Stimulus,canvas.Screen,2_18_0_1,2022-06-24T11:35:47.673Z,,,1,AV,99.26799999999639,timeout,,,49712.799999999814,49711478,49612202,49614.19999999995,49628885,49728153,,grey,XXXXIRXX,26,f,1,0,Psychologie,0,0,0,0,0
Reaction,canvas.Screen,2_18_0_2,2022-06-24T11:35:47.814Z,,,1,AV,123.94699999986187,response,stim_detected,mousedown,49854.09999999986,49852.09999999986,49711478,49713,49728153,49861792,,grey,XXXXIRXX,26,f,1,0,Psychologie,0,0,0,0,0
Trial,flow.Sequence,2_18_0,2022-06-24T11:35:47.815Z,,,1,AV,1924.9549999998635,completion,,,49854.5,49852.09999999986,47910468,47926.59999999986,47927145,49861792,,grey,XXXXIRXX,26,f,1,0,Psychologie,0,0,0,0,0
Frame,canvas.Frame,2_18,2022-06-24T11:35:47.815Z,,,1,AV,1927.4549999998635,,,,49854.89999999991,49854.59999999986,47910468,47925.799999999814,47927145,49861792,,grey,XXXXIRXX,26,f,1,0,Psychologie,0,0,0,0,0
Fixation,canvas.Screen,2_19_0_0,2022-06-24T11:35:49.757Z,,,1,A,1950.9530000000013,timeout,,,51797,51796.07,49845115,49856.19999999995,49861792,51812745,,black,XXXXIRXX,26,f,1,0,Psychologie,0,0,0,0,0
Stimulus,canvas.Screen,2_19_0_1,2022-06-24T11:35:49.857Z,,,1,A,99.81899999999587,timeout,,,51896.799999999814,51895891,51796.07,51797.299999999814,51812745,51912564,,black,XXXXIRXX,26,f,1,0,Psychologie,0,0,0,0,0
Reaction,canvas.Screen,2_19_0_2,2022-06-24T11:35:50.009Z,,,1,A,134.53599999986182,response,stim_detected,mousedown,52048.59999999986,52047.09999999986,51895891,51897.09999999986,51912564,52063223,,black,XXXXIRXX,26,f,1,0,Psychologie,0,0,0,0,0
Trial,flow.Sequence,2_19_0,2022-06-24T11:35:50.009Z,,,1,A,2185.307999999859,completion,,,52049.09999999986,52047.09999999986,49845115,49856.09999999986,49861792,52063223,,black,XXXXIRXX,26,f,1,0,Psychologie,0,0,0,0,0
Frame,canvas.Frame,2_19,2022-06-24T11:35:50.010Z,,,1,A,2187.407999999952,,,,52049.39999999991,52049.19999999995,49845115,49855,49861792,52063223,,black,XXXXIRXX,26,f,1,0,Psychologie,0,0,0,0,0
Fixation,canvas.Screen,2_20_0_0,2022-06-24T11:35:51.960Z,,,0,V,1952.1940000000031,timeout,,,53999.89999999991,53998732,52046546,52050.59999999986,52063223,54015417,,grey,XXXXIRXX,26,f,1,0,Psychologie,0,0,0,0,0
Stimulus,canvas.Screen,2_20_0_1,2022-06-24T11:35:52.059Z,,,0,V,99.0679999999993,timeout,,,54099,54097809,53998732,54000.299999999814,54015417,54114485,,grey,XXXXIRXX,26,f,1,0,Psychologie,0,0,0,0,0
Reaction,canvas.Screen,2_20_0_2,2022-06-24T11:35:52.195Z,,,0,V,118.61499999985972,response,stim_detected,mousedown,54235.09999999986,54233.09999999986,54097809,54099.39999999991,54114485,54248019,,grey,XXXXIRXX,26,f,1,0,Psychologie,0,0,0,0,0
Trial,flow.Sequence,2_20_0,2022-06-24T11:35:52.196Z,,,0,V,2169.876999999862,completion,,,54235.5,54233.09999999986,52046546,52050.59999999986,52063223,54248019,,grey,XXXXIRXX,26,f,1,0,Psychologie,0,0,0,0,0
Frame,canvas.Frame,2_20,2022-06-24T11:35:52.196Z,,,0,V,2172.4769999999553,,,,54236,54235.69999999995,52046546,52049.69999999995,52063223,54248019,,grey,XXXXIRXX,26,f,1,0,Psychologie,0,0,0,0,0
Fixation,canvas.Screen,2_21_0_0,2022-06-24T11:35:53.711Z,,,0,V,1518.0279999999984,timeout,,,55751.09999999986,55749366,54231342,54237.19999999995,54248019,55766047,,grey,XXXXIRXX,26,f,1,0,Psychologie,0,0,0,0,0
Stimulus,canvas.Screen,2_21_0_1,2022-06-24T11:35:53.810Z,,,0,V,99.78399999999965,timeout,,,55850,55849153,55749366,55751.39999999991,55766047,55865831,,grey,XXXXIRXX,26,f,1,0,Psychologie,0,0,0,0,0
Reaction,canvas.Screen,2_21_0_2,2022-06-24T11:35:53.975Z,,,0,V,147.1690000000017,response,stim_detected,mousedown,56014.799999999814,56013,55849153,55850.299999999814,55865831,56032.58,,grey,XXXXIRXX,26,f,1,0,Psychologie,0,0,0,0,0
Trial,flow.Sequence,2_21_0,2022-06-24T11:35:53.976Z,,,0,V,1764.9809999999998,completion,,,56015.19999999995,56013,54231342,54237.19999999995,54248019,56032.58,,grey,XXXXIRXX,26,f,1,0,Psychologie,0,0,0,0,0
Frame,canvas.Frame,2_21,2022-06-24T11:35:53.976Z,,,0,V,1767.2809999998135,,,,56015.59999999986,56015.299999999814,54231342,54236.19999999995,54248019,56032.58,,grey,XXXXIRXX,26,f,1,0,Psychologie,0,0,0,0,0
Fixation,canvas.Screen,2_22_0_0,2022-06-24T11:35:56.012Z,,,1,AV,2034.201000000001,timeout,,,58051.19999999995,58050107,56015903,56016.799999999814,56032.58,58066781,,grey,XXXXIRXX,26,f,1,0,Psychologie,0,0,0,0,0
Stimulus,canvas.Screen,2_22_0_1,2022-06-24T11:35:56.112Z,,,1,AV,100.04799999999523,timeout,,,58151.19999999995,58150155,58050107,58051.5,58066781,58166829,,grey,XXXXIRXX,26,f,1,0,Psychologie,0,0,0,0,0
Reaction,canvas.Screen,2_22_0_2,2022-06-24T11:35:56.248Z,,,1,AV,119.1710000000021,response,stim_detected,mousedown,58287.59999999986,58286,58150155,58151.39999999991,58166829,58300.72,,grey,XXXXIRXX,26,f,1,0,Psychologie,0,0,0,0,0
Trial,flow.Sequence,2_22_0,2022-06-24T11:35:56.248Z,,,1,AV,2253.4199999999983,completion,,,58288.09999999986,58286,56015903,56016.69999999995,56032.58,58300.72,,grey,XXXXIRXX,26,f,1,0,Psychologie,0,0,0,0,0
Frame,canvas.Frame,2_22,2022-06-24T11:35:56.249Z,,,1,AV,2255.6199999999517,,,,58288.39999999991,58288.19999999995,56015903,56015.69999999995,56032.58,58300.72,,grey,XXXXIRXX,26,f,1,0,Psychologie,0,0,0,0,0
Fixation,canvas.Screen,2_23_0_0,2022-06-24T11:35:58.682Z,,,1,AV,2436.163999999997,timeout,,,60721.5,60720198,58284043,58289.69999999995,58300.72,60736884,,grey,XXXXIRXX,26,f,1,0,Psychologie,0,0,0,0,0
Stimulus,canvas.Screen,2_23_0_1,2022-06-24T11:35:58.781Z,,,1,AV,98.04899999999907,timeout,,,60819.59999999986,60818261,60720198,60721.69999999995,60736884,60834933,,grey,XXXXIRXX,26,f,1,0,Psychologie,0,0,0,0,0
Reaction,canvas.Screen,2_23_0_2,2022-06-24T11:35:58.922Z,,,1,AV,124.06700000000274,response,stim_detected,mousedown,60960.59999999986,60959,60818261,60819.799999999814,60834933,60969159,,grey,XXXXIRXX,26,f,1,0,Psychologie,0,0,0,0,0
Trial,flow.Sequence,2_23_0,2022-06-24T11:35:58.922Z,,,1,AV,2658.279999999999,completion,,,60961,60959,58284043,58289.69999999995,58300.72,60969159,,grey,XXXXIRXX,26,f,1,0,Psychologie,0,0,0,0,0
Frame,canvas.Frame,2_23,2022-06-24T11:35:58.922Z,,,1,AV,2660.379999999859,,,,60961.299999999814,60961.09999999986,58284043,58288.69999999995,58300.72,60969159,,grey,XXXXIRXX,26,f,1,0,Psychologie,0,0,0,0,0
Fixation,canvas.Screen,2_24_0_0,2022-06-24T11:36:00.967Z,,,1,A,2052.2160000000003,timeout,,,63006.39999999991,63004691,60952482,60962.299999999814,60969159,63021375,,black,XXXXIRXX,26,f,1,0,Psychologie,0,0,0,0,0
Stimulus,canvas.Screen,2_24_0_1,2022-06-24T11:36:01.066Z,,,1,A,99.31199999999808,timeout,,,63105.5,63104009,63004691,63006.59999999986,63021375,63120687,,black,XXXXIRXX,26,f,1,0,Psychologie,0,0,0,0,0
Reaction,canvas.Screen,2_24_0_2,2022-06-24T11:36:01.244Z,,,1,A,160.31300000000192,response,stim_detected,mousedown,63282.69999999995,63281,63104009,63105.59999999986,63120687,63287425,,black,XXXXIRXX,26,f,1,0,Psychologie,0,0,0,0,0
Trial,flow.Sequence,2_24_0,2022-06-24T11:36:01.244Z,,,1,A,2311.8410000000003,completion,,,63283,63281,60952482,60962.299999999814,60969159,63287425,,black,XXXXIRXX,26,f,1,0,Psychologie,0,0,0,0,0
Frame,canvas.Frame,2_24,2022-06-24T11:36:01.244Z,,,1,A,2313.9409999998607,,,,63283.39999999991,63283.09999999986,60952482,60961.59999999986,60969159,63287425,,black,XXXXIRXX,26,f,1,0,Psychologie,0,0,0,0,0
Fixation,canvas.Screen,2_25_0_0,2022-06-24T11:36:03.285Z,,,0,V,2051.4119999999966,timeout,,,65323.69999999995,65322159,63270748,63284.299999999814,63287425,65338837,,grey,XXXXIRXX,26,f,1,0,Psychologie,0,0,0,0,0
Stimulus,canvas.Screen,2_25_0_1,2022-06-24T11:36:03.383Z,,,0,V,99.58499999999913,timeout,,,65422.5,65421748,65322159,65324,65338837,65438422,,grey,XXXXIRXX,26,f,1,0,Psychologie,0,0,0,0,0
Reaction,canvas.Screen,2_25_0_2,2022-06-24T11:36:03.675Z,,,0,V,273.4779999999082,response,stim_detected,mousedown,65713.8999999999,65711.8999999999,65421748,65422.799999999814,65438422,65722359,,grey,XXXXIRXX,26,f,1,0,Psychologie,0,0,0,0,0
Trial,flow.Sequence,2_25_0,2022-06-24T11:36:03.675Z,,,0,V,2424.474999999904,completion,,,65714.29999999981,65711.8999999999,63270748,63284.299999999814,63287425,65722359,,grey,XXXXIRXX,26,f,1,0,Psychologie,0,0,0,0,0
Frame,canvas.Frame,2_25,2022-06-24T11:36:03.676Z,,,0,V,2426.974999999904,,,,65714.59999999986,65714.3999999999,63270748,63283.5,63287425,65722359,,grey,XXXXIRXX,26,f,1,0,Psychologie,0,0,0,0,0
Fixation,canvas.Screen,2_26_0_0,2022-06-24T11:36:06.154Z,,,1,A,2485.8600000000006,timeout,,,68192.69999999995,68191536,65705682,65715.79999999981,65722359,68208219,,black,XXXXIRXX,26,f,1,0,Psychologie,0,0,0,0,0
Stimulus,canvas.Screen,2_26_0_1,2022-06-24T11:36:06.252Z,,,1,A,99.19199999999546,timeout,,,68291.59999999986,68290734,68191536,68193,68208219,68307411,,black,XXXXIRXX,26,f,1,0,Psychologie,0,0,0,0,0
Reaction,canvas.Screen,2_26_0_2,2022-06-24T11:36:06.506Z,,,1,A,235.48899999991409,response,stim_detected,mousedown,68544.59999999986,68542.8999999999,68290734,68291.79999999981,68307411,68557619,,black,XXXXIRXX,26,f,1,0,Psychologie,0,0,0,0,0
Trial,flow.Sequence,2_26_0,2022-06-24T11:36:06.506Z,,,1,A,2820.54099999991,completion,,,68545.09999999986,68542.8999999999,65705682,65715.69999999995,65722359,68557619,,black,XXXXIRXX,26,f,1,0,Psychologie,0,0,0,0,0
Frame,canvas.Frame,2_26,2022-06-24T11:36:06.506Z,,,1,A,2822.8409999999567,,,,68545.3999999999,68545.19999999995,65705682,65714.79999999981,65722359,68557619,,black,XXXXIRXX,26,f,1,0,Psychologie,0,0,0,0,0
Fixation,canvas.Screen,2_27_0_0,2022-06-24T11:36:08.804Z,,,1,A,2300.9669999999896,timeout,,,70843.3999999999,70841912,68540942,68546.5,68557619,70858586,,black,XXXXIRXX,26,f,1,0,Psychologie,0,0,0,0,0
Stimulus,canvas.Screen,2_27_0_1,2022-06-24T11:36:08.905Z,,,1,A,100.59000000001106,timeout,,,70944.29999999981,70942499,70841912,70843.69999999995,70858586,70959176,,black,XXXXIRXX,26,f,1,0,Psychologie,0,0,0,0,0
Reaction,canvas.Screen,2_27_0_2,2022-06-24T11:36:09.210Z,,,1,A,288.7239999999001,response,stim_detected,mousedown,71249.5,71247.8999999999,70942499,70944.59999999986,70959176,71276077,,black,XXXXIRXX,26,f,1,0,Psychologie,0,0,0,0,0
Trial,flow.Sequence,2_27_0,2022-06-24T11:36:09.211Z,,,1,A,2690.280999999901,completion,,,71249.8999999999,71247.8999999999,68540942,68546.5,68557619,71276077,,black,XXXXIRXX,26,f,1,0,Psychologie,0,0,0,0,0
Frame,canvas.Frame,2_27,2022-06-24T11:36:09.211Z,,,1,A,2692.380999999994,,,,71250.19999999995,71250,68540942,68545.59999999986,68557619,71276077,,black,XXXXIRXX,26,f,1,0,Psychologie,0,0,0,0,0
Fixation,canvas.Screen,2_28_0_0,2022-06-24T11:36:11.074Z,,,1,A,1851.9729999999981,timeout,,,73112.8999999999,73111366,71242723,71251.3999999999,71276077,73128.05,,black,XXXXIRXX,26,f,1,0,Psychologie,0,0,0,0,0
Stimulus,canvas.Screen,2_28_0_1,2022-06-24T11:36:11.173Z,,,1,A,99.10700000000361,timeout,,,73211.79999999981,73210482,73111366,73113.29999999981,73128.05,73227157,,black,XXXXIRXX,26,f,1,0,Psychologie,0,0,0,0,0
Reaction,canvas.Screen,2_28_0_2,2022-06-24T11:36:11.370Z,,,1,A,179.74299999990035,response,stim_detected,mousedown,73409,73406.8999999999,73210482,73212.09999999986,73227157,73410875,,black,XXXXIRXX,26,f,1,0,Psychologie,0,0,0,0,0
Trial,flow.Sequence,2_28_0,2022-06-24T11:36:11.370Z,,,1,A,2130.822999999902,completion,,,73409.3999999999,73406.8999999999,71242723,71251.19999999995,71276077,73410875,,black,XXXXIRXX,26,f,1,0,Psychologie,0,0,0,0,0
Frame,canvas.Frame,2_28,2022-06-24T11:36:11.371Z,,,1,A,2133.422999999995,,,,73409.79999999981,73409.5,71242723,71250.3999999999,71276077,73410875,,black,XXXXIRXX,26,f,1,0,Psychologie,0,0,0,0,0
Fixation,canvas.Screen,2_29_0_0,2022-06-24T11:36:13.056Z,,,1,A,1700.017000000007,timeout,,,75095,75094224,73394198,73411.19999999995,73410875,75110892,,black,XXXXIRXX,26,f,1,0,Psychologie,0,0,0,0,0
Stimulus,canvas.Screen,2_29_0_1,2022-06-24T11:36:13.158Z,,,1,A,101.17999999999302,timeout,,,75197,75195393,75094224,75095.19999999995,75110892,75212072,,black,XXXXIRXX,26,f,1,0,Psychologie,0,0,0,0,0
Reaction,canvas.Screen,2_29_0_2,2022-06-24T11:36:13.354Z,,,1,A,178.82799999990675,response,stim_detected,mousedown,75393,75390.8999999999,75195393,75197.19999999995,75212072,75395511,,black,XXXXIRXX,26,f,1,0,Psychologie,0,0,0,0,0
Trial,flow.Sequence,2_29_0,2022-06-24T11:36:13.354Z,,,1,A,1980.0249999999069,completion,,,75393.5,75390.8999999999,73394198,73410.8999999999,73410875,75395511,,black,XXXXIRXX,26,f,1,0,Psychologie,0,0,0,0,0
Frame,canvas.Frame,2_29,2022-06-24T11:36:13.355Z,,,1,A,1982.7249999998603,,,,75393.79999999981,75393.59999999986,73394198,73409.8999999999,73410875,75395511,,black,XXXXIRXX,26,f,1,0,Psychologie,0,0,0,0,0
Fixation,canvas.Screen,2_30_0_0,2022-06-24T11:36:15.109Z,,,0,V,1768.0130000000063,timeout,,,77148.09999999986,77146845,75378834,75395.29999999981,75395511,77163524,,grey,XXXXIRXX,26,f,1,0,Psychologie,0,0,0,0,0
Stimulus,canvas.Screen,2_30_0_1,2022-06-24T11:36:15.209Z,,,0,V,99.88399999999092,timeout,,,77248,77246731,77146845,77148.29999999981,77163524,77263408,,grey,XXXXIRXX,26,f,1,0,Psychologie,0,0,0,0,0
Reaction,canvas.Screen,2_30_0_2,2022-06-24T11:36:15.482Z,,,0,V,256.49199999991106,response,stim_detected,mousedown,77521.5,77519.8999999999,77246731,77248.3999999999,77263408,77530246,,grey,XXXXIRXX,26,f,1,0,Psychologie,0,0,0,0,0
Trial,flow.Sequence,2_30_0,2022-06-24T11:36:15.483Z,,,0,V,2124.3889999999083,completion,,,77521.8999999999,77519.8999999999,75378834,75395.19999999995,75395511,77530246,,grey,XXXXIRXX,26,f,1,0,Psychologie,0,0,0,0,0
Frame,canvas.Frame,2_30,2022-06-24T11:36:15.483Z,,,0,V,2126.4890000000014,,,,77522.09999999986,77522,75378834,75393.8999999999,75395511,77530246,,grey,XXXXIRXX,26,f,1,0,Psychologie,0,0,0,0,0
Fixation,canvas.Screen,2_31_0_0,2022-06-24T11:36:17.161Z,,,1,A,1685.3059999999969,timeout,,,79200.29999999981,79198867,77513569,77523.3999999999,77530246,79215552,,black,XXXXIRXX,26,f,1,0,Psychologie,0,0,0,0,0
Stimulus,canvas.Screen,2_31_0_1,2022-06-24T11:36:17.260Z,,,1,A,99.17900000000373,timeout,,,79299.19999999995,79298054,79198867,79200.5,79215552,79314731,,black,XXXXIRXX,26,f,1,0,Psychologie,0,0,0,0,0
Reaction,canvas.Screen,2_31_0_2,2022-06-24T11:36:17.438Z,,,1,A,161.1689999999071,response,stim_detected,mousedown,79477.3999999999,79475.8999999999,79298054,79299.5,79314731,79481585,,black,XXXXIRXX,26,f,1,0,Psychologie,0,0,0,0,0
Trial,flow.Sequence,2_31_0,2022-06-24T11:36:17.439Z,,,1,A,1945.6539999999077,completion,,,79477.79999999981,79475.8999999999,77513569,77523.29999999981,77530246,79481585,,black,XXXXIRXX,26,f,1,0,Psychologie,0,0,0,0,0
Frame,canvas.Frame,2_31,2022-06-24T11:36:17.439Z,,,1,A,1947.7540000000008,,,,79478.19999999995,79478,77513569,77522.3999999999,77530246,79481585,,black,XXXXIRXX,26,f,1,0,Psychologie,0,0,0,0,0
Fixation,canvas.Screen,2_32_0_0,2022-06-24T11:36:19.261Z,,,0,V,1834.1149999999907,timeout,,,81300.29999999981,81299026,79464908,79479.29999999981,79481585,81315.7,,grey,XXXXIRXX,26,f,1,0,Psychologie,0,0,0,0,0
Stimulus,canvas.Screen,2_32_0_1,2022-06-24T11:36:19.361Z,,,0,V,100.52500000000873,timeout,,,81400.3999999999,81399548,81299026,81300.5,81315.7,81416225,,grey,XXXXIRXX,26,f,1,0,Psychologie,0,0,0,0,0
Reaction,canvas.Screen,2_32_0_2,2022-06-24T11:36:19.669Z,,,0,V,290.5749999998079,response,stim_detected,mousedown,81708.3999999999,81706.79999999981,81399548,81400.59999999986,81416225,81716407,,grey,XXXXIRXX,26,f,1,0,Psychologie,0,0,0,0,0
Trial,flow.Sequence,2_32_0,2022-06-24T11:36:19.670Z,,,0,V,2225.2149999998073,completion,,,81708.79999999981,81706.79999999981,79464908,79479.09999999986,79481585,81716407,,grey,XXXXIRXX,26,f,1,0,Psychologie,0,0,0,0,0
Frame,canvas.Frame,2_32,2022-06-24T11:36:19.670Z,,,0,V,2227.3149999999005,,,,81709.19999999995,81708.8999999999,79464908,79478.3999999999,79481585,81716407,,grey,XXXXIRXX,26,f,1,0,Psychologie,0,0,0,0,0
Fixation,canvas.Screen,2_33_0_0,2022-06-24T11:36:21.562Z,,,1,A,1900.2479999999923,timeout,,,83601.29999999981,83599985,81699.73,81710.29999999981,81716407,83616655,,black,XXXXIRXX,26,f,1,0,Psychologie,0,0,0,0,0
Stimulus,canvas.Screen,2_33_0_1,2022-06-24T11:36:21.663Z,,,1,A,101.09500000000116,timeout,,,83702.29999999981,83701072,83599985,83601.59999999986,83616655,83717.75,,black,XXXXIRXX,26,f,1,0,Psychologie,0,0,0,0,0
Reaction,canvas.Screen,2_33_0_2,2022-06-24T11:36:21.829Z,,,1,A,149.04999999981374,response,stim_detected,mousedown,83868.5,83866.79999999981,83701072,83702.69999999995,83717.75,83884.51,,black,XXXXIRXX,26,f,1,0,Psychologie,0,0,0,0,0
Trial,flow.Sequence,2_33_0,2022-06-24T11:36:21.830Z,,,1,A,2150.392999999807,completion,,,83869,83866.79999999981,81699.73,81710.19999999995,81716407,83884.51,,black,XXXXIRXX,26,f,1,0,Psychologie,0,0,0,0,0
Frame,canvas.Frame,2_33,2022-06-24T11:36:21.830Z,,,1,A,2152.692999999854,,,,83869.3999999999,83869.09999999986,81699.73,81709.29999999981,81716407,83884.51,,black,XXXXIRXX,26,f,1,0,Psychologie,0,0,0,0,0
Fixation,canvas.Screen,2_34_0_0,2022-06-24T11:36:23.815Z,,,0,V,1985.4170000000013,timeout,,,85854.5,85853243,83867833,83870.5,83884.51,85869927,,grey,XXXXIRXX,26,f,1,0,Psychologie,0,0,0,0,0
Stimulus,canvas.Screen,2_34_0_1,2022-06-24T11:36:23.914Z,,,0,V,98.73399999999674,timeout,,,85953.3999999999,85951988,85853243,85854.79999999981,85869927,85968661,,grey,XXXXIRXX,26,f,1,0,Psychologie,0,0,0,0,0
Reaction,canvas.Screen,2_34_0_2,2022-06-24T11:36:24.151Z,,,0,V,220.13899999982095,response,stim_detected,mousedown,86190.3999999999,86188.79999999981,85951988,85953.79999999981,85968661,86202735,,grey,XXXXIRXX,26,f,1,0,Psychologie,0,0,0,0,0
Trial,flow.Sequence,2_34_0,2022-06-24T11:36:24.152Z,,,0,V,2304.289999999819,completion,,,86190.8999999999,86188.79999999981,83867833,83870.3999999999,83884.51,86202735,,grey,XXXXIRXX,26,f,1,0,Psychologie,0,0,0,0,0
Frame,canvas.Frame,2_34,2022-06-24T11:36:24.152Z,,,0,V,2306.4900000000052,,,,86191.09999999986,86191,83867833,83869.59999999986,83884.51,86202735,,grey,XXXXIRXX,26,f,1,0,Psychologie,0,0,0,0,0
Fixation,canvas.Screen,2_35_0_0,2022-06-24T11:36:25.982Z,,,1,A,1834.4860000000044,timeout,,,88021.59999999986,88020544,86186058,86192.3999999999,86202735,88037221,,black,XXXXIRXX,26,f,1,0,Psychologie,0,0,0,0,0
Stimulus,canvas.Screen,2_35_0_1,2022-06-24T11:36:26.082Z,,,1,A,99.83999999999651,timeout,,,88121.59999999986,88120386,88020544,88021.79999999981,88037221,88137061,,black,XXXXIRXX,26,f,1,0,Psychologie,0,0,0,0,0
Reaction,canvas.Screen,2_35_0_2,2022-06-24T11:36:26.253Z,,,1,A,153.73899999981222,response,stim_detected,mousedown,88292.3999999999,88290.79999999981,88120386,88121.79999999981,88137061,88304155,,black,XXXXIRXX,26,f,1,0,Psychologie,0,0,0,0,0
Trial,flow.Sequence,2_35_0,2022-06-24T11:36:26.254Z,,,1,A,2088.064999999813,completion,,,88292.79999999981,88290.79999999981,86186058,86192.29999999981,86202735,88304155,,black,XXXXIRXX,26,f,1,0,Psychologie,0,0,0,0,0
Frame,canvas.Frame,2_35,2022-06-24T11:36:26.254Z,,,1,A,2090.1649999999063,,,,88293.19999999995,88292.8999999999,86186058,86191.3999999999,86202735,88304155,,black,XXXXIRXX,26,f,1,0,Psychologie,0,0,0,0,0
Fixation,canvas.Screen,2_36_0_0,2022-06-24T11:36:27.867Z,,,1,AV,1617.0149999999994,timeout,,,89905.69999999995,89904499,88287478,88294.3999999999,88304155,89921.17,,grey,XXXXIRXX,26,f,1,0,Psychologie,0,0,0,0,0
Stimulus,canvas.Screen,2_36_0_1,2022-06-24T11:36:27.968Z,,,1,AV,100.84500000000116,timeout,,,90006.69999999995,90005337,89904499,89906,89921.17,90022015,,grey,XXXXIRXX,26,f,1,0,Psychologie,0,0,0,0,0
Reaction,canvas.Screen,2_36_0_2,2022-06-24T11:36:28.158Z,,,1,AV,173.78499999981432,response,stim_detected,mousedown,90197.29999999981,90195.79999999981,90005337,90006.8999999999,90022015,90205385,,grey,XXXXIRXX,26,f,1,0,Psychologie,0,0,0,0,0
Trial,flow.Sequence,2_36_0,2022-06-24T11:36:28.159Z,,,1,AV,1891.644999999815,completion,,,90197.79999999981,90195.79999999981,88287478,88294.19999999995,88304155,90205385,,grey,XXXXIRXX,26,f,1,0,Psychologie,0,0,0,0,0
Frame,canvas.Frame,2_36,2022-06-24T11:36:28.159Z,,,1,AV,1893.744999999908,,,,90198.09999999986,90197.8999999999,88287478,88293.3999999999,88304155,90205385,,grey,XXXXIRXX,26,f,1,0,Psychologie,0,0,0,0,0
Fixation,canvas.Screen,2_37_0_0,2022-06-24T11:36:30.187Z,,,1,AV,2035.6929999999993,timeout,,,92225.79999999981,92224393,90188708,90199.19999999995,90205385,92241078,,grey,XXXXIRXX,26,f,1,0,Psychologie,0,0,0,0,0
Stimulus,canvas.Screen,2_37_0_1,2022-06-24T11:36:30.286Z,,,1,AV,99.01800000001094,timeout,,,92324.79999999981,92323419,92224393,92226,92241078,92340096,,grey,XXXXIRXX,26,f,1,0,Psychologie,0,0,0,0,0
Reaction,canvas.Screen,2_37_0_2,2022-06-24T11:36:30.441Z,,,1,AV,138.60399999994843,response,stim_detected,mousedown,92480.5,92478.69999999995,92323419,92325.09999999986,92340096,92490262,,grey,XXXXIRXX,26,f,1,0,Psychologie,0,0,0,0,0
Trial,flow.Sequence,2_37_0,2022-06-24T11:36:30.442Z,,,1,AV,2273.3149999999587,completion,,,92481.09999999986,92478.69999999995,90188708,90199.09999999986,90205385,92490262,,grey,XXXXIRXX,26,f,1,0,Psychologie,0,0,0,0,0
Frame,canvas.Frame,2_37,2022-06-24T11:36:30.442Z,,,1,AV,2275.8149999999587,,,,92481.5,92481.19999999995,90188708,90198.29999999981,90205385,92490262,,grey,XXXXIRXX,26,f,1,0,Psychologie,0,0,0,0,0
Fixation,canvas.Screen,2_38_0_0,2022-06-24T11:36:32.354Z,,,1,A,1918.5699999999924,timeout,,,94393.5,94392149,92473585,92482.79999999981,92490262,94408832,,black,XXXXIRXX,26,f,1,0,Psychologie,0,0,0,0,0
Stimulus,canvas.Screen,2_38_0_1,2022-06-24T11:36:32.454Z,,,1,A,99.44100000000617,timeout,,,94492.59999999986,94491596,94392149,94393.59999999986,94408832,94508273,,black,XXXXIRXX,26,f,1,0,Psychologie,0,0,0,0,0
Reaction,canvas.Screen,2_38_0_2,2022-06-24T11:36:32.616Z,,,1,A,146.22699999999895,response,stim_detected,mousedown,94655.29999999981,94654.5,94491596,94492.79999999981,94508273,94658349,,black,XXXXIRXX,26,f,1,0,Psychologie,0,0,0,0,0
Trial,flow.Sequence,2_38_0,2022-06-24T11:36:32.616Z,,,1,A,2164.2379999999976,completion,,,94655.5,94654.5,92473585,92482.69999999995,92490262,94658349,,black,XXXXIRXX,26,f,1,0,Psychologie,0,0,0,0,0
Frame,canvas.Frame,2_38,2022-06-24T11:36:32.616Z,,,1,A,2165.337999999858,,,,94655.59999999986,94655.59999999986,92473585,92481.8999999999,92490262,94658349,,black,XXXXIRXX,26,f,1,0,Psychologie,0,0,0,0,0
Fixation,canvas.Screen,2_39_0_0,2022-06-24T11:36:34.172Z,,,1,AV,1567.6529999999912,timeout,,,96211,96209325,94641672,94656.19999999995,94658349,96226002,,grey,XXXXIRXX,26,f,1,0,Psychologie,0,0,0,0,0
Stimulus,canvas.Screen,2_39_0_1,2022-06-24T11:36:34.272Z,,,1,AV,100.10700000000361,timeout,,,96310.8999999999,96309432,96209325,96211.29999999981,96226002,96326109,,grey,XXXXIRXX,26,f,1,0,Psychologie,0,0,0,0,0
Reaction,canvas.Screen,2_39_0_2,2022-06-24T11:36:34.474Z,,,1,AV,185.5909999999567,response,stim_detected,mousedown,96513.3999999999,96511.69999999995,96309432,96311.29999999981,96326109,96526353,,grey,XXXXIRXX,26,f,1,0,Psychologie,0,0,0,0,0
Trial,flow.Sequence,2_39_0,2022-06-24T11:36:34.475Z,,,1,AV,1853.3509999999515,completion,,,96513.79999999981,96511.69999999995,94641672,94656.09999999986,94658349,96526353,,grey,XXXXIRXX,26,f,1,0,Psychologie,0,0,0,0,0
Frame,canvas.Frame,2_39,2022-06-24T11:36:34.475Z,,,1,AV,1855.650999999998,,,,96514.19999999995,96514,94641672,94655.69999999995,94658349,96526353,,grey,XXXXIRXX,26,f,1,0,Psychologie,0,0,0,0,0
Fixation,canvas.Screen,2_40_0_0,2022-06-24T11:36:36.271Z,,,1,AV,1799.2649999999994,timeout,,,98310.09999999986,98308956,96509675,96515.3999999999,96526353,98325618,,grey,XXXXIRXX,26,f,1,0,Psychologie,0,0,0,0,0
Stimulus,canvas.Screen,2_40_0_1,2022-06-24T11:36:36.373Z,,,1,AV,101.85499999999593,timeout,,,98412.09999999986,98410796,98308956,98310.29999999981,98325618,98427473,,grey,XXXXIRXX,26,f,1,0,Psychologie,0,0,0,0,0
Reaction,canvas.Screen,2_40_0_2,2022-06-24T11:36:36.528Z,,,1,AV,138.2269999999553,response,stim_detected,mousedown,98567.19999999995,98565.69999999995,98410796,98412.3999999999,98427473,98577693,,grey,XXXXIRXX,26,f,1,0,Psychologie,0,0,0,0,0
Trial,flow.Sequence,2_40_0,2022-06-24T11:36:36.529Z,,,1,AV,2039.3469999999506,completion,,,98567.69999999995,98565.69999999995,96509675,96515.29999999981,96526353,98577693,,grey,XXXXIRXX,26,f,1,0,Psychologie,0,0,0,0,0
Frame,canvas.Frame,2_40,2022-06-24T11:36:36.529Z,,,1,AV,2041.446999999811,,,,98567.8999999999,98567.79999999981,96509675,96514.3999999999,96526353,98577693,,grey,XXXXIRXX,26,f,1,0,Psychologie,0,0,0,0,0
Fixation,canvas.Screen,2_41_0_0,2022-06-24T11:36:38.024Z,,,0,V,1501.3029999999999,timeout,,,100063.19999999995,100062315,98561016,98569.29999999981,98577693,100078996,,grey,XXXXIRXX,26,f,1,0,Psychologie,0,0,0,0,0
Stimulus,canvas.Screen,2_41_0_1,2022-06-24T11:36:38.124Z,,,0,V,99.49000000000524,timeout,,,100163.19999999995,100161812,100062315,100063.5,100078996,100178486,,grey,XXXXIRXX,26,f,1,0,Psychologie,0,0,0,0,0
Reaction,canvas.Screen,2_41_0_2,2022-06-24T11:36:38.412Z,,,0,V,271.1139999998559,response,stim_detected,mousedown,100451.19999999995,100449.59999999986,100161812,100163.3999999999,100178486,100462266,,grey,XXXXIRXX,26,f,1,0,Psychologie,0,0,0,0,0
Trial,flow.Sequence,2_41_0,2022-06-24T11:36:38.413Z,,,0,V,1871.906999999861,completion,,,100451.59999999986,100449.59999999986,98561016,98569.09999999986,98577693,100462266,,grey,XXXXIRXX,26,f,1,0,Psychologie,0,0,0,0,0
Frame,canvas.Frame,2_41,2022-06-24T11:36:38.413Z,,,0,V,1874.1069999998144,,,,100452,100451.79999999981,98561016,98568.09999999986,98577693,100462266,,grey,XXXXIRXX,26,f,1,0,Psychologie,0,0,0,0,0
Fixation,canvas.Screen,2_42_0_0,2022-06-24T11:36:40.325Z,,,1,A,1917.4700000000012,timeout,,,102364.5,102363062,100445589,100453.3999999999,100462266,102379736,,black,XXXXIRXX,26,f,1,0,Psychologie,0,0,0,0,0
Stimulus,canvas.Screen,2_42_0_1,2022-06-24T11:36:40.426Z,,,1,A,100.57399999999325,timeout,,,102465.29999999981,102463632,102363062,102364.8999999999,102379736,102480.31,,black,XXXXIRXX,26,f,1,0,Psychologie,0,0,0,0,0
Reaction,canvas.Screen,2_42_0_2,2022-06-24T11:36:40.620Z,,,1,A,177.19000000000233,response,stim_detected,mousedown,102659.09999999986,102657.5,102463632,102465.59999999986,102480.31,102663757,,black,XXXXIRXX,26,f,1,0,Psychologie,0,0,0,0,0
Trial,flow.Sequence,2_42_0,2022-06-24T11:36:40.620Z,,,1,A,2195.2339999999967,completion,,,102659.5,102657.5,100445589,100453.09999999986,100462266,102663757,,black,XXXXIRXX,26,f,1,0,Psychologie,0,0,0,0,0
Frame,canvas.Frame,2_42,2022-06-24T11:36:40.621Z,,,1,A,2197.333999999857,,,,102659.79999999981,102659.59999999986,100445589,100452.19999999995,100462266,102663757,,black,XXXXIRXX,26,f,1,0,Psychologie,0,0,0,0,0
Fixation,canvas.Screen,2_43_0_0,2022-06-24T11:36:42.877Z,,,1,AV,2267.7780000000057,timeout,,,104916.3999999999,104914.86,102647.08,102661.09999999986,102663757,104931535,,grey,XXXXIRXX,26,f,1,0,Psychologie,0,0,0,0,0
Stimulus,canvas.Screen,2_43_0_1,2022-06-24T11:36:42.977Z,,,1,AV,100.49199999999837,timeout,,,105016.5,105015.35,104914.86,104916.69999999995,104931535,105032027,,grey,XXXXIRXX,26,f,1,0,Psychologie,0,0,0,0,0
Reaction,canvas.Screen,2_43_0_2,2022-06-24T11:36:43.146Z,,,1,AV,151.57299999985844,response,stim_detected,mousedown,105185.19999999995,105183.59999999986,105015.35,105016.8999999999,105032027,105198742,,grey,XXXXIRXX,26,f,1,0,Psychologie,0,0,0,0,0
Trial,flow.Sequence,2_43_0,2022-06-24T11:36:43.147Z,,,1,AV,2519.8429999998625,completion,,,105185.69999999995,105183.59999999986,102647.08,102660.8999999999,102663757,105198742,,grey,XXXXIRXX,26,f,1,0,Psychologie,0,0,0,0,0
Frame,canvas.Frame,2_43,2022-06-24T11:36:43.147Z,,,1,AV,2522.042999999816,,,,105186,105185.79999999981,102647.08,102660.09999999986,102663757,105198742,,grey,XXXXIRXX,26,f,1,0,Psychologie,0,0,0,0,0
Fixation,canvas.Screen,2_44_0_0,2022-06-24T11:36:45.614Z,,,0,V,2469.157999999996,timeout,,,107653.29999999981,107651217,105182065,105187,105198742,107667.9,,grey,XXXXIRXX,26,f,1,0,Psychologie,0,0,0,0,0
Stimulus,canvas.Screen,2_44_0_1,2022-06-24T11:36:45.712Z,,,0,V,99.2100000000064,timeout,,,107751.5,107750433,107651217,107653.5,107667.9,107767.11,,grey,XXXXIRXX,26,f,1,0,Psychologie,0,0,0,0,0
Reaction,canvas.Screen,2_44_0_2,2022-06-24T11:36:45.935Z,,,0,V,205.38999999999942,response,stim_detected,mousedown,107974.19999999995,107972.5,107750433,107751.79999999981,107767.11,107983963,,grey,XXXXIRXX,26,f,1,0,Psychologie,0,0,0,0,0
Trial,flow.Sequence,2_44_0,2022-06-24T11:36:45.935Z,,,0,V,2773.7580000000016,completion,,,107974.5,107972.5,105182065,105187,105198742,107983963,,grey,XXXXIRXX,26,f,1,0,Psychologie,0,0,0,0,0
Frame,canvas.Frame,2_44,2022-06-24T11:36:45.936Z,,,0,V,2775.957999999955,,,,107974.8999999999,107974.69999999995,105182065,105186.09999999986,105198742,107983963,,grey,XXXXIRXX,26,f,1,0,Psychologie,0,0,0,0,0
Fixation,canvas.Screen,2_45_0_0,2022-06-24T11:36:47.897Z,,,0,V,1967.229999999996,timeout,,,109935.79999999981,109934521,107967286,107976,107983963,109951193,,grey,XXXXIRXX,26,f,1,0,Psychologie,0,0,0,0,0
Stimulus,canvas.Screen,2_45_0_1,2022-06-24T11:36:47.997Z,,,0,V,100.8469999999943,timeout,,,110036.59999999986,110035362,109934521,109936,109951193,110052.04,,grey,XXXXIRXX,26,f,1,0,Psychologie,0,0,0,0,0
Reaction,canvas.Screen,2_45_0_2,2022-06-24T11:36:48.196Z,,,0,V,181.4600000000064,response,stim_detected,mousedown,110235.09999999986,110233.5,110035362,110036.8999999999,110052.04,110252143,,grey,XXXXIRXX,26,f,1,0,Psychologie,0,0,0,0,0
Trial,flow.Sequence,2_45_0,2022-06-24T11:36:48.196Z,,,0,V,2249.5369999999966,completion,,,110235.5,110233.5,107967286,107976,107983963,110252143,,grey,XXXXIRXX,26,f,1,0,Psychologie,0,0,0,0,0
Frame,canvas.Frame,2_45,2022-06-24T11:36:48.197Z,,,0,V,2251.636999999857,,,,110235.8999999999,110235.59999999986,107967286,107975,107983963,110252143,,grey,XXXXIRXX,26,f,1,0,Psychologie,0,0,0,0,0
Fixation,canvas.Screen,2_46_0_0,2022-06-24T11:36:50.683Z,,,1,AV,2485.368000000002,timeout,,,112721.69999999995,112720831,110235466,110237,110252143,112737511,,grey,XXXXIRXX,26,f,1,0,Psychologie,0,0,0,0,0
Stimulus,canvas.Screen,2_46_0_1,2022-06-24T11:36:50.783Z,,,1,AV,99.66599999999744,timeout,,,112821.79999999981,112820.5,112720831,112722,112737511,112837177,,grey,XXXXIRXX,26,f,1,0,Psychologie,0,0,0,0,0
Reaction,canvas.Screen,2_46_0_2,2022-06-24T11:36:50.982Z,,,1,AV,182.32300000000396,response,stim_detected,mousedown,113021.29999999981,113019.5,112820.5,112822,112837177,113037343,,grey,XXXXIRXX,26,f,1,0,Psychologie,0,0,0,0,0
Trial,flow.Sequence,2_46_0,2022-06-24T11:36:50.983Z,,,1,AV,2767.3570000000036,completion,,,113021.79999999981,113019.5,110235466,110236.79999999981,110252143,113037343,,grey,XXXXIRXX,26,f,1,0,Psychologie,0,0,0,0,0
Frame,canvas.Frame,2_46,2022-06-24T11:36:50.983Z,,,1,AV,2769.7569999999105,,,,113022.09999999986,113021.8999999999,110235466,110235.8999999999,110252143,113037343,,grey,XXXXIRXX,26,f,1,0,Psychologie,0,0,0,0,0
Fixation,canvas.Screen,2_47_0_0,2022-06-24T11:36:53.335Z,,,1,A,2351.7800000000134,timeout,,,115374.29999999981,115372444,113020666,113023.3999999999,113037343,115389123,,black,XXXXIRXX,26,f,1,0,Psychologie,0,0,0,0,0
Stimulus,canvas.Screen,2_47_0_1,2022-06-24T11:36:53.435Z,,,1,A,99.69599999999627,timeout,,,115474,115472143,115372444,115374.5,115389123,115488819,,black,XXXXIRXX,26,f,1,0,Psychologie,0,0,0,0,0
Reaction,canvas.Screen,2_47_0_2,2022-06-24T11:36:53.591Z,,,1,A,139.58099999990372,response,stim_detected,mousedown,115630.09999999986,115628.3999999999,115472143,115474.19999999995,115488819,115655762,,black,XXXXIRXX,26,f,1,0,Psychologie,0,0,0,0,0
Trial,flow.Sequence,2_47_0,2022-06-24T11:36:53.591Z,,,1,A,2591.0569999999134,completion,,,115630.3999999999,115628.3999999999,113020666,113023.29999999981,113037343,115655762,,black,XXXXIRXX,26,f,1,0,Psychologie,0,0,0,0,0
Frame,canvas.Frame,2_47,2022-06-24T11:36:53.592Z,,,1,A,2593.256999999867,,,,115630.79999999981,115630.59999999986,113020666,113022.19999999995,113037343,115655762,,black,XXXXIRXX,26,f,1,0,Psychologie,0,0,0,0,0
Fixation,canvas.Screen,2_48_0_0,2022-06-24T11:36:56.035Z,,,1,AV,2434.050999999992,timeout,,,118074.19999999995,118073141,115622408,115631.8999999999,115655762,118089813,,grey,XXXXIRXX,26,f,1,0,Psychologie,0,0,0,0,0
Stimulus,canvas.Screen,2_48_0_1,2022-06-24T11:36:56.136Z,,,1,AV,100.63900000001013,timeout,,,118175.09999999986,118173777,118073141,118074.5,118089813,118190452,,grey,XXXXIRXX,26,f,1,0,Psychologie,0,0,0,0,0
Reaction,canvas.Screen,2_48_0_2,2022-06-24T11:36:56.315Z,,,1,AV,162.04799999999523,response,stim_detected,mousedown,118354.19999999995,118352.5,118173777,118175.3999999999,118190452,118357568,,grey,XXXXIRXX,26,f,1,0,Psychologie,0,0,0,0,0
Trial,flow.Sequence,2_48_0,2022-06-24T11:36:56.315Z,,,1,AV,2696.7379999999976,completion,,,118354.59999999986,118352.5,115622408,115631.79999999981,115655762,118357568,,grey,XXXXIRXX,26,f,1,0,Psychologie,0,0,0,0,0
Frame,canvas.Frame,2_48,2022-06-24T11:36:56.316Z,,,1,AV,2698.937999999951,,,,118354.8999999999,118354.69999999995,115622408,115630.8999999999,115655762,118357568,,grey,XXXXIRXX,26,f,1,0,Psychologie,0,0,0,0,0
Fixation,canvas.Screen,2_49_0_0,2022-06-24T11:36:58.772Z,,,0,V,2467.722999999998,timeout,,,120810.09999999986,120808617,118340891,118356.09999999986,118357568,120825291,,grey,XXXXIRXX,26,f,1,0,Psychologie,0,0,0,0,0
Stimulus,canvas.Screen,2_49_0_1,2022-06-24T11:36:58.872Z,,,0,V,100.39900000000489,timeout,,,120910.29999999981,120909014,120808617,120810.3999999999,120825291,120925.69,,grey,XXXXIRXX,26,f,1,0,Psychologie,0,0,0,0,0
Reaction,canvas.Screen,2_49_0_2,2022-06-24T11:36:59.148Z,,,0,V,258.8099999999977,response,stim_detected,mousedown,121186,121184.5,120909014,120910.5,120925.69,121192778,,grey,XXXXIRXX,26,f,1,0,Psychologie,0,0,0,0,0
Trial,flow.Sequence,2_49_0,2022-06-24T11:36:59.148Z,,,0,V,2826.9320000000007,completion,,,121186.3999999999,121184.5,118340891,118355.8999999999,118357568,121192778,,grey,XXXXIRXX,26,f,1,0,Psychologie,0,0,0,0,0
Frame,canvas.Frame,2_49,2022-06-24T11:36:59.148Z,,,0,V,2829.031999999861,,,,121186.69999999995,121186.59999999986,118340891,118355.09999999986,118357568,121192778,,grey,XXXXIRXX,26,f,1,0,Psychologie,0,0,0,0,0
Fixation,canvas.Screen,2_50_0_0,2022-06-24T11:37:01.557Z,,,1,AV,2418.1659999999974,timeout,,,123595.19999999995,123594267,121176101,121187.69999999995,121192778,123610944,,grey,XXXXIRXX,26,f,1,0,Psychologie,0,0,0,0,0
Stimulus,canvas.Screen,2_50_0_1,2022-06-24T11:37:01.657Z,,,1,AV,99.9369999999908,timeout,,,123695.09999999986,123694205,123594267,123595.5,123610944,123710881,,grey,XXXXIRXX,26,f,1,0,Psychologie,0,0,0,0,0
Reaction,canvas.Screen,2_50_0_2,2022-06-24T11:37:01.836Z,,,1,AV,161.71899999986636,response,stim_detected,mousedown,123874.19999999995,123872.59999999986,123694205,123695.3999999999,123710881,123877897,,grey,XXXXIRXX,26,f,1,0,Psychologie,0,0,0,0,0
Trial,flow.Sequence,2_50_0,2022-06-24T11:37:01.836Z,,,1,AV,2679.8219999998546,completion,,,123874.59999999986,123872.59999999986,121176101,121187.59999999986,121192778,123877897,,grey,XXXXIRXX,26,f,1,0,Psychologie,0,0,0,0,0
Frame,canvas.Frame,2_50,2022-06-24T11:37:01.836Z,,,1,AV,2681.9219999999477,,,,123874.8999999999,123874.69999999995,121176101,121186.8999999999,121192778,123877897,,grey,XXXXIRXX,26,f,1,0,Psychologie,0,0,0,0,0
Fixation,canvas.Screen,2_51_0_0,2022-06-24T11:37:04.077Z,,,1,AV,2252.4429999999993,timeout,,,126115.5,126113656,123861.22,123876,123877897,126130.34,,grey,XXXXIRXX,26,f,1,0,Psychologie,0,0,0,0,0
Stimulus,canvas.Screen,2_51_0_1,2022-06-24T11:37:04.175Z,,,1,AV,98.9380000000092,timeout,,,126213.69999999995,126212602,126113656,126115.79999999981,126130.34,126229278,,grey,XXXXIRXX,26,f,1,0,Psychologie,0,0,0,0,0
Reaction,canvas.Screen,2_51_0_2,2022-06-24T11:37:04.418Z,,,1,AV,225.2219999999943,response,stim_detected,mousedown,126456.5,126454.5,126212602,126213.8999999999,126229278,126462981,,grey,XXXXIRXX,26,f,1,0,Psychologie,0,0,0,0,0
Trial,flow.Sequence,2_51_0,2022-06-24T11:37:04.418Z,,,1,AV,2576.603000000003,completion,,,126456.8999999999,126454.5,123861.22,123875.8999999999,123877897,126462981,,grey,XXXXIRXX,26,f,1,0,Psychologie,0,0,0,0,0
Frame,canvas.Frame,2_51,2022-06-24T11:37:04.419Z,,,1,AV,2579.103000000003,,,,126457.19999999995,126457,123861.22,123875,123877897,126462981,,grey,XXXXIRXX,26,f,1,0,Psychologie,0,0,0,0,0
Fixation,canvas.Screen,2_52_0_0,2022-06-24T11:37:06.144Z,,,1,AV,1734.925000000003,timeout,,,128182.59999999986,128181224,126446304,126458.3999999999,126462981,128197906,,grey,XXXXIRXX,26,f,1,0,Psychologie,0,0,0,0,0
Stimulus,canvas.Screen,2_52_0_1,2022-06-24T11:37:06.243Z,,,1,AV,99.10199999999895,timeout,,,128281.5,128280335,128181224,128183,128197906,128297008,,grey,XXXXIRXX,26,f,1,0,Psychologie,0,0,0,0,0
Reaction,canvas.Screen,2_52_0_2,2022-06-24T11:37:06.465Z,,,1,AV,204.39199999990524,response,stim_detected,mousedown,128503.29999999981,128501.3999999999,128280335,128281.69999999995,128297008,128514.38,,grey,XXXXIRXX,26,f,1,0,Psychologie,0,0,0,0,0
Trial,flow.Sequence,2_52_0,2022-06-24T11:37:06.465Z,,,1,AV,2038.418999999907,completion,,,128503.59999999986,128501.3999999999,126446304,126458.19999999995,126462981,128514.38,,grey,XXXXIRXX,26,f,1,0,Psychologie,0,0,0,0,0
Frame,canvas.Frame,2_52,2022-06-24T11:37:06.466Z,,,1,AV,2040.818999999814,,,,128504.09999999986,128503.79999999981,126446304,126457.29999999981,126462981,128514.38,,grey,XXXXIRXX,26,f,1,0,Psychologie,0,0,0,0,0
Fixation,canvas.Screen,2_53_0_0,2022-06-24T11:37:08.012Z,,,1,A,1551.173999999999,timeout,,,130050.59999999986,130048875,128497702,128505.19999999995,128514.38,130065554,,black,XXXXIRXX,26,f,1,0,Psychologie,0,0,0,0,0
Stimulus,canvas.Screen,2_53_0_1,2022-06-24T11:37:08.111Z,,,1,A,99.89899999999034,timeout,,,130149.59999999986,130148776,130048875,130051,130065554,130165453,,black,XXXXIRXX,26,f,1,0,Psychologie,0,0,0,0,0
Reaction,canvas.Screen,2_53_0_2,2022-06-24T11:37:08.378Z,,,1,A,248.9469999999128,response,stim_detected,mousedown,130416.09999999986,130414.3999999999,130148776,130149.79999999981,130165453,130432315,,black,XXXXIRXX,26,f,1,0,Psychologie,0,0,0,0,0
Trial,flow.Sequence,2_53_0,2022-06-24T11:37:08.378Z,,,1,A,1900.0199999999022,completion,,,130416.3999999999,130414.3999999999,128497702,128505,128514.38,130432315,,black,XXXXIRXX,26,f,1,0,Psychologie,0,0,0,0,0
Frame,canvas.Frame,2_53,2022-06-24T11:37:08.378Z,,,1,A,1902.2199999998556,,,,130416.79999999981,130416.59999999986,128497702,128504.19999999995,128514.38,130432315,,black,XXXXIRXX,26,f,1,0,Psychologie,0,0,0,0,0
Fixation,canvas.Screen,2_54_0_0,2022-06-24T11:37:10.662Z,,,1,A,2283.508999999991,timeout,,,132700.8999999999,132699155,130415638,130417.8999999999,130432315,132715824,,black,XXXXIRXX,26,f,1,0,Psychologie,0,0,0,0,0
Stimulus,canvas.Screen,2_54_0_1,2022-06-24T11:37:10.764Z,,,1,A,101.22000000000116,timeout,,,132802.09999999986,132800368,132699155,132701.09999999986,132715824,132817044,,black,XXXXIRXX,26,f,1,0,Psychologie,0,0,0,0,0
Reaction,canvas.Screen,2_54_0_2,2022-06-24T11:37:11.041Z,,,1,A,261.35599999991246,response,stim_detected,mousedown,133080,133078.3999999999,132800368,132802.2999999998,132817044,133084078,,black,XXXXIRXX,26,f,1,0,Psychologie,0,0,0,0,0
Trial,flow.Sequence,2_54_0,2022-06-24T11:37:11.042Z,,,1,A,2646.0849999999045,completion,,,133080.2999999998,133078.3999999999,130415638,130417.8999999999,130432315,133084078,,black,XXXXIRXX,26,f,1,0,Psychologie,0,0,0,0,0
Frame,canvas.Frame,2_54,2022-06-24T11:37:11.042Z,,,1,A,2648.0849999999045,,,,133080.59999999986,133080.3999999999,130415638,130417,130432315,133084078,,black,XXXXIRXX,26,f,1,0,Psychologie,0,0,0,0,0
Fixation,canvas.Screen,2_55_0_0,2022-06-24T11:37:12.848Z,,,0,V,1818.4229999999807,timeout,,,134886.7999999998,134885818,133067401,133081.69999999995,133084078,134902501,,grey,XXXXIRXX,26,f,1,0,Psychologie,0,0,0,0,0
Stimulus,canvas.Screen,2_55_0_1,2022-06-24T11:37:12.947Z,,,0,V,99.07800000000861,timeout,,,134985.69999999995,134984905,134885818,134887,134902501,135001579,,grey,XXXXIRXX,26,f,1,0,Psychologie,0,0,0,0,0
Reaction,canvas.Screen,2_55_0_2,2022-06-24T11:37:13.238Z,,,0,V,273.72099999981583,response,stim_detected,mousedown,135276.8999999999,135275.2999999998,134984905,134986,135001579,135302189,,grey,XXXXIRXX,26,f,1,0,Psychologie,0,0,0,0,0
Trial,flow.Sequence,2_55_0,2022-06-24T11:37:13.239Z,,,0,V,2191.221999999805,completion,,,135277.2999999998,135275.2999999998,133067401,133081.59999999986,133084078,135302189,,grey,XXXXIRXX,26,f,1,0,Psychologie,0,0,0,0,0
Frame,canvas.Frame,2_55,2022-06-24T11:37:13.239Z,,,0,V,2193.221999999805,,,,135277.5,135277.2999999998,133067401,133080.7999999998,133084078,135302189,,grey,XXXXIRXX,26,f,1,0,Psychologie,0,0,0,0,0
Fixation,canvas.Screen,2_56_0_0,2022-06-24T11:37:15.485Z,,,0,V,2235.965999999986,timeout,,,137523.09999999986,137521469,135268835,135278.69999999995,135302189,137538155,,grey,XXXXIRXX,26,f,1,0,Psychologie,0,0,0,0,0
Stimulus,canvas.Screen,2_56_0_1,2022-06-24T11:37:15.582Z,,,0,V,98.66000000000349,timeout,,,137620.8999999999,137620.14,137521469,137523.3999999999,137538155,137636815,,grey,XXXXIRXX,26,f,1,0,Psychologie,0,0,0,0,0
Reaction,canvas.Screen,2_56_0_2,2022-06-24T11:37:15.836Z,,,0,V,235.4849999998114,response,stim_detected,mousedown,137874,137872.2999999998,137620.14,137621.09999999986,137636815,137887318,,grey,XXXXIRXX,26,f,1,0,Psychologie,0,0,0,0,0
Trial,flow.Sequence,2_56_0,2022-06-24T11:37:15.836Z,,,0,V,2570.1109999998007,completion,,,137874.3999999999,137872.2999999998,135268835,135278.59999999986,135302189,137887318,,grey,XXXXIRXX,26,f,1,0,Psychologie,0,0,0,0,0
Frame,canvas.Frame,2_56,2022-06-24T11:37:15.836Z,,,0,V,2572.4109999998473,,,,137874.69999999995,137874.59999999986,135268835,135277.7999999998,135302189,137887318,,grey,XXXXIRXX,26,f,1,0,Psychologie,0,0,0,0,0
Fixation,canvas.Screen,2_57_0_0,2022-06-24T11:37:17.701Z,,,1,A,1867.3070000000007,timeout,,,139739,139737952,137870641,137875.8999999999,137887318,139754625,,black,XXXXIRXX,26,f,1,0,Psychologie,0,0,0,0,0
Stimulus,canvas.Screen,2_57_0_1,2022-06-24T11:37:17.802Z,,,1,A,100.40700000000652,timeout,,,139840,139838357,139737952,139739.2999999998,139754625,139855032,,black,XXXXIRXX,26,f,1,0,Psychologie,0,0,0,0,0
Reaction,canvas.Screen,2_57_0_2,2022-06-24T11:37:18.016Z,,,1,A,198.26799999980722,response,stim_detected,mousedown,140054.7999999998,140053.2999999998,139838357,139840.2999999998,139855032,140072107,,black,XXXXIRXX,26,f,1,0,Psychologie,0,0,0,0,0
Trial,flow.Sequence,2_57_0,2022-06-24T11:37:18.017Z,,,1,A,2165.9819999998144,completion,,,140055.19999999995,140053.2999999998,137870641,137875.8999999999,137887318,140072107,,black,XXXXIRXX,26,f,1,0,Psychologie,0,0,0,0,0
Frame,canvas.Frame,2_57,2022-06-24T11:37:18.017Z,,,1,A,2168.1820000000007,,,,140055.69999999995,140055.5,137870641,137875,137887318,140072107,,black,XXXXIRXX,26,f,1,0,Psychologie,0,0,0,0,0
Fixation,canvas.Screen,2_58_0_0,2022-06-24T11:37:20.120Z,,,0,V,2101.1690000000235,timeout,,,142158.09999999986,142156.6,140055.43,140057.09999999986,140072107,142173276,,grey,XXXXIRXX,26,f,1,0,Psychologie,0,0,0,0,0
Stimulus,canvas.Screen,2_58_0_1,2022-06-24T11:37:20.219Z,,,0,V,99.89199999999255,timeout,,,142257.7999999998,142256494,142156.6,142158.5,142173276,142273168,,grey,XXXXIRXX,26,f,1,0,Psychologie,0,0,0,0,0
Reaction,canvas.Screen,2_58_0_2,2022-06-24T11:37:20.416Z,,,0,V,179.1319999998086,response,stim_detected,mousedown,142454.09999999986,142452.2999999998,142256494,142258,142273168,142456991,,grey,XXXXIRXX,26,f,1,0,Psychologie,0,0,0,0,0
Trial,flow.Sequence,2_58_0,2022-06-24T11:37:20.416Z,,,0,V,2380.1929999998247,completion,,,142454.5,142452.2999999998,140055.43,140056.7999999998,140072107,142456991,,grey,XXXXIRXX,26,f,1,0,Psychologie,0,0,0,0,0
Frame,canvas.Frame,2_58,2022-06-24T11:37:20.416Z,,,0,V,2382.4929999998712,,,,142454.7999999998,142454.59999999986,140055.43,140055.8999999999,140072107,142456991,,grey,XXXXIRXX,26,f,1,0,Psychologie,0,0,0,0,0
Fixation,canvas.Screen,2_59_0_0,2022-06-24T11:37:22.689Z,,,1,A,2285.755999999994,timeout,,,144727.19999999995,144726063,142440314,142455.8999999999,142456991,144742747,,black,XXXXIRXX,26,f,1,0,Psychologie,0,0,0,0,0
Stimulus,canvas.Screen,2_59_0_1,2022-06-24T11:37:22.788Z,,,1,A,99.19399999998859,timeout,,,144826.19999999995,144825105,144726063,144727.3999999999,144742747,144841941,,black,XXXXIRXX,26,f,1,0,Psychologie,0,0,0,0,0
Reaction,canvas.Screen,2_59_0_2,2022-06-24T11:37:22.997Z,,,1,A,192.35899999982212,response,stim_detected,mousedown,145035.7999999998,145034.2999999998,144825105,144826.5,144841941,145042065,,black,XXXXIRXX,26,f,1,0,Psychologie,0,0,0,0,0
Trial,flow.Sequence,2_59_0,2022-06-24T11:37:22.998Z,,,1,A,2577.3089999998047,completion,,,145036.09999999986,145034.2999999998,142440314,142455.7999999998,142456991,145042065,,black,XXXXIRXX,26,f,1,0,Psychologie,0,0,0,0,0
Frame,canvas.Frame,2_59,2022-06-24T11:37:22.998Z,,,1,A,2579.3089999998047,,,,145036.5,145036.2999999998,142440314,142454.8999999999,142456991,145042065,,black,XXXXIRXX,26,f,1,0,Psychologie,0,0,0,0,0
Fixation,canvas.Screen,2_60_0_0,2022-06-24T11:37:24.573Z,,,1,A,1584.2079999999842,timeout,,,146611.2999999998,146609597,145025388,145037.59999999986,145042065,146626273,,black,XXXXIRXX,26,f,1,0,Psychologie,0,0,0,0,0
Stimulus,canvas.Screen,2_60_0_1,2022-06-24T11:37:24.673Z,,,1,A,100.29300000000512,timeout,,,146711.2999999998,146709888,146609597,146611.5,146626273,146726566,,black,XXXXIRXX,26,f,1,0,Psychologie,0,0,0,0,0
Reaction,canvas.Screen,2_60_0_2,2022-06-24T11:37:24.962Z,,,1,A,272.6339999999618,response,stim_detected,mousedown,147000.7999999998,146999.19999999995,146709888,146711.5,146726566,147010081,,black,XXXXIRXX,26,f,1,0,Psychologie,0,0,0,0,0
Trial,flow.Sequence,2_60_0,2022-06-24T11:37:24.963Z,,,1,A,1957.134999999951,completion,,,147001.19999999995,146999.19999999995,145025388,145037.5,145042065,147010081,,black,XXXXIRXX,26,f,1,0,Psychologie,0,0,0,0,0
Frame,canvas.Frame,2_60,2022-06-24T11:37:24.963Z,,,1,A,1959.134999999951,,,,147001.3999999999,147001.19999999995,145025388,145036.59999999986,145042065,147010081,,black,XXXXIRXX,26,f,1,0,Psychologie,0,0,0,0,0
Fixation,canvas.Screen,2_61_0_0,2022-06-24T11:37:26.524Z,,,1,AV,1567.296000000002,timeout,,,148562.5,148560703,146993404,147002.69999999995,147010081,148577377,,grey,XXXXIRXX,26,f,1,0,Psychologie,0,0,0,0,0
Stimulus,canvas.Screen,2_61_0_1,2022-06-24T11:37:26.624Z,,,1,AV,100.39900000000489,timeout,,,148662.69999999995,148661099,148560703,148563,148577377,148677776,,grey,XXXXIRXX,26,f,1,0,Psychologie,0,0,0,0,0
Reaction,canvas.Screen,2_61_0_2,2022-06-24T11:37:26.925Z,,,1,AV,283.42399999994086,response,stim_detected,mousedown,148963.19999999995,148961.19999999995,148661099,148662.8999999999,148677776,148977.98,,grey,XXXXIRXX,26,f,1,0,Psychologie,0,0,0,0,0
Trial,flow.Sequence,2_61_0,2022-06-24T11:37:26.925Z,,,1,AV,1951.1189999999478,completion,,,148963.59999999986,148961.19999999995,146993404,147002.5,147010081,148977.98,,grey,XXXXIRXX,26,f,1,0,Psychologie,0,0,0,0,0
Frame,canvas.Frame,2_61,2022-06-24T11:37:26.925Z,,,1,AV,1953.6189999999478,,,,148963.8999999999,148963.69999999995,146993404,147001.69999999995,147010081,148977.98,,grey,XXXXIRXX,26,f,1,0,Psychologie,0,0,0,0,0
Fixation,canvas.Screen,2_62_0_0,2022-06-24T11:37:29.378Z,,,1,A,2453.810999999987,timeout,,,151416.69999999995,151415099,148961303,148965.19999999995,148977.98,151431791,,black,XXXXIRXX,26,f,1,0,Psychologie,0,0,0,0,0
Stimulus,canvas.Screen,2_62_0_1,2022-06-24T11:37:29.476Z,,,1,A,97.9200000000128,timeout,,,151514.69999999995,151513034,151415099,151416.8999999999,151431791,151529711,,black,XXXXIRXX,26,f,1,0,Psychologie,0,0,0,0,0
Reaction,canvas.Screen,2_62_0_2,2022-06-24T11:37:29.936Z,,,1,A,443.38899999985006,response,stim_detected,mousedown,151974.7999999998,151973.09999999986,151513034,151514.8999999999,151529711,151980036,,black,XXXXIRXX,26,f,1,0,Psychologie,0,0,0,0,0
Trial,flow.Sequence,2_62_0,2022-06-24T11:37:29.937Z,,,1,A,2995.11999999985,completion,,,151975.09999999986,151973.09999999986,148961303,148965.09999999986,148977.98,151980036,,black,XXXXIRXX,26,f,1,0,Psychologie,0,0,0,0,0
Frame,canvas.Frame,2_62,2022-06-24T11:37:29.937Z,,,1,A,2997.219999999943,,,,151975.3999999999,151975.19999999995,148961303,148964.19999999995,148977.98,151980036,,black,XXXXIRXX,26,f,1,0,Psychologie,0,0,0,0,0
Fixation,canvas.Screen,2_63_0_0,2022-06-24T11:37:32.411Z,,,1,A,2485.3669999999984,timeout,,,154449.69999999995,154448723,151963359,151976.59999999986,151980036,154465403,,black,XXXXIRXX,26,f,1,0,Psychologie,0,0,0,0,0
Stimulus,canvas.Screen,2_63_0_1,2022-06-24T11:37:32.511Z,,,1,A,99.74100000000908,timeout,,,154549.7999999998,154548467,154448723,154450,154465403,154565144,,black,XXXXIRXX,26,f,1,0,Psychologie,0,0,0,0,0
Reaction,canvas.Screen,2_63_0_2,2022-06-24T11:37:32.758Z,,,1,A,229.95599999986007,response,stim_detected,mousedown,154796.69999999995,154795.09999999986,154548467,154550.09999999986,154565144,154798566,,black,XXXXIRXX,26,f,1,0,Psychologie,0,0,0,0,0
Trial,flow.Sequence,2_63_0,2022-06-24T11:37:32.759Z,,,1,A,2815.0639999998675,completion,,,154797,154795.09999999986,151963359,151976.5,151980036,154798566,,black,XXXXIRXX,26,f,1,0,Psychologie,0,0,0,0,0
Frame,canvas.Frame,2_63,2022-06-24T11:37:32.759Z,,,1,A,2817.1639999999607,,,,154797.3999999999,154797.19999999995,151963359,151975.59999999986,151980036,154798566,,black,XXXXIRXX,26,f,1,0,Psychologie,0,0,0,0,0
Fixation,canvas.Screen,2_64_0_0,2022-06-24T11:37:34.598Z,,,0,V,1852.4170000000158,timeout,,,156636,156634295,154781889,154798.59999999986,154798566,156650983,,grey,XXXXIRXX,26,f,1,0,Psychologie,0,0,0,0,0
Stimulus,canvas.Screen,2_64_0_1,2022-06-24T11:37:34.696Z,,,0,V,99.06399999998393,timeout,,,156734.69999999995,156733345,156634295,156636.2999999998,156650983,156750047,,grey,XXXXIRXX,26,f,1,0,Psychologie,0,0,0,0,0
Reaction,canvas.Screen,2_64_0_2,2022-06-24T11:37:34.957Z,,,0,V,243.95300000000861,response,stim_detected,mousedown,156995.5,156994,156733345,156734.8999999999,156750047,156999994,,grey,XXXXIRXX,26,f,1,0,Psychologie,0,0,0,0,0
Trial,flow.Sequence,2_64_0,2022-06-24T11:37:34.958Z,,,0,V,2195.4340000000084,completion,,,156996,156994,154781889,154798.3999999999,154798566,156999994,,grey,XXXXIRXX,26,f,1,0,Psychologie,0,0,0,0,0
Frame,canvas.Frame,2_64,2022-06-24T11:37:34.958Z,,,0,V,2197.9340000000084,,,,156996.69999999995,156996.5,154781889,154797.59999999986,154798566,156999994,,grey,XXXXIRXX,26,f,1,0,Psychologie,0,0,0,0,0
Fixation,canvas.Screen,2_65_0_0,2022-06-24T11:37:36.713Z,,,0,V,1767.508999999991,timeout,,,158751.7999999998,158750829,156983.32,156998.09999999986,156999994,158767503,,grey,XXXXIRXX,26,f,1,0,Psychologie,0,0,0,0,0
Stimulus,canvas.Screen,2_65_0_1,2022-06-24T11:37:36.815Z,,,0,V,100.37700000000768,timeout,,,158853,158851204,158750829,158752.09999999986,158767503,158867.88,,grey,XXXXIRXX,26,f,1,0,Psychologie,0,0,0,0,0
Reaction,canvas.Screen,2_65_0_2,2022-06-24T11:37:37.078Z,,,0,V,247.21999999985565,response,stim_detected,mousedown,159116.8999999999,159115.09999999986,158851204,158853.2999999998,158867.88,159134803,,grey,XXXXIRXX,26,f,1,0,Psychologie,0,0,0,0,0
Trial,flow.Sequence,2_65_0,2022-06-24T11:37:37.079Z,,,0,V,2115.1059999998542,completion,,,159117.2999999998,159115.09999999986,156983.32,156998,156999994,159134803,,grey,XXXXIRXX,26,f,1,0,Psychologie,0,0,0,0,0
Frame,canvas.Frame,2_65,2022-06-24T11:37:37.079Z,,,0,V,2117.405999999901,,,,159117.59999999986,159117.3999999999,156983.32,156996.8999999999,156999994,159134803,,grey,XXXXIRXX,26,f,1,0,Psychologie,0,0,0,0,0
Fixation,canvas.Screen,2_66_0_0,2022-06-24T11:37:39.267Z,,,1,A,2185.5229999999865,timeout,,,161305.09999999986,161303643,159118126,159119,159134803,161320326,,black,XXXXIRXX,26,f,1,0,Psychologie,0,0,0,0,0
Stimulus,canvas.Screen,2_66_0_1,2022-06-24T11:37:39.365Z,,,1,A,99.3979999999865,timeout,,,161403.8999999999,161403047,161303643,161305.2999999998,161320326,161419724,,black,XXXXIRXX,26,f,1,0,Psychologie,0,0,0,0,0
Reaction,canvas.Screen,2_66_0_2,2022-06-24T11:37:39.765Z,,,1,A,382.3759999998729,response,stim_detected,mousedown,161803.8999999999,161802.09999999986,161403047,161404.19999999995,161419724,161819948,,black,XXXXIRXX,26,f,1,0,Psychologie,0,0,0,0,0
Trial,flow.Sequence,2_66_0,2022-06-24T11:37:39.766Z,,,1,A,2667.296999999846,completion,,,161804.2999999998,161802.09999999986,159118126,159118.8999999999,159134803,161819948,,black,XXXXIRXX,26,f,1,0,Psychologie,0,0,0,0,0
Frame,canvas.Frame,2_66,2022-06-24T11:37:39.766Z,,,1,A,2669.6969999999856,,,,161804.69999999995,161804.5,159118126,159117.7999999998,159134803,161819948,,black,XXXXIRXX,26,f,1,0,Psychologie,0,0,0,0,0
Fixation,canvas.Screen,2_67_0_0,2022-06-24T11:37:41.751Z,,,1,AV,1984.4340000000084,timeout,,,163789.09999999986,163787706,161803271,161806,161819948,163804382,,grey,XXXXIRXX,26,f,1,0,Psychologie,0,0,0,0,0
Stimulus,canvas.Screen,2_67_0_1,2022-06-24T11:37:41.851Z,,,1,AV,100.33399999997346,timeout,,,163889.2999999998,163888039,163787706,163789.3999999999,163804382,163904716,,grey,XXXXIRXX,26,f,1,0,Psychologie,0,0,0,0,0
Reaction,canvas.Screen,2_67_0_2,2022-06-24T11:37:42.032Z,,,1,AV,164.2840000000142,response,stim_detected,mousedown,164070.59999999986,164069,163888039,163889.5,163904716,164088109,,grey,XXXXIRXX,26,f,1,0,Psychologie,0,0,0,0,0
Trial,flow.Sequence,2_67_0,2022-06-24T11:37:42.033Z,,,1,AV,2249.051999999996,completion,,,164070.8999999999,164069,161803271,161805.8999999999,161819948,164088109,,grey,XXXXIRXX,26,f,1,0,Psychologie,0,0,0,0,0
Frame,canvas.Frame,2_67,2022-06-24T11:37:42.033Z,,,1,AV,2251.1519999998563,,,,164071.2999999998,164071.09999999986,161803271,161804.8999999999,161819948,164088109,,grey,XXXXIRXX,26,f,1,0,Psychologie,0,0,0,0,0
Fixation,canvas.Screen,2_68_0_0,2022-06-24T11:37:44.471Z,,,1,A,2436.657999999996,timeout,,,166509.2999999998,166508078,164071432,164073,164088109,166524767,,black,XXXXIRXX,26,f,1,0,Psychologie,0,0,0,0,0
Stimulus,canvas.Screen,2_68_0_1,2022-06-24T11:37:44.569Z,,,1,A,98.24100000000908,timeout,,,166607.2999999998,166606332,166508078,166509.59999999986,166524767,166623008,,black,XXXXIRXX,26,f,1,0,Psychologie,0,0,0,0,0
Reaction,canvas.Screen,2_68_0_2,2022-06-24T11:37:46.070Z,,,1,A,1501.0989999999874,timeout,,,168108.2999999998,168107.43,166606332,166607.59999999986,166623008,168124107,,black,XXXXIRXX,26,f,1,0,Psychologie,0,0,0,0,0
Trial,flow.Sequence,2_68_0,2022-06-24T11:37:46.070Z,,,1,A,4019.3209999999963,completion,,,168108.59999999986,168107.43,164071432,164072.7999999998,164088109,168124107,,black,XXXXIRXX,26,f,1,0,Psychologie,0,0,0,0,0
Frame,canvas.Frame,2_68,2022-06-24T11:37:46.071Z,,,1,A,4020.690999999817,,,,168109,168108.7999999998,164071432,164071.69999999995,164088109,168157461,,black,XXXXIRXX,26,f,1,0,Psychologie,0,0,0,0,0
Fixation,canvas.Screen,2_69_0_0,2022-06-24T11:37:47.855Z,,,1,A,1751.1319999999832,timeout,,,169893.5,169891916,168124107,168110.09999999986,168157461,169908593,,black,XXXXIRXX,26,f,1,0,Psychologie,0,0,0,0,0
Stimulus,canvas.Screen,2_69_0_1,2022-06-24T11:37:47.955Z,,,1,A,99.59600000001956,timeout,,,169993.2999999998,169991517,169891916,169893.8999999999,169908593,170008189,,black,XXXXIRXX,26,f,1,0,Psychologie,0,0,0,0,0
Reaction,canvas.Screen,2_69_0_2,2022-06-24T11:37:48.075Z,,,1,A,103.91099999984726,response,stim_detected,mousedown,170113.8999999999,170112.09999999986,169991517,169993.59999999986,170008189,170125.52,,black,XXXXIRXX,26,f,1,0,Psychologie,0,0,0,0,0
Trial,flow.Sequence,2_69_0,2022-06-24T11:37:48.076Z,,,1,A,1954.63899999985,completion,,,170114.3999999999,170112.09999999986,168124107,168109.8999999999,168157461,170125.52,,black,XXXXIRXX,26,f,1,0,Psychologie,0,0,0,0,0
Frame,canvas.Frame,2_69,2022-06-24T11:37:48.076Z,,,1,A,1957.0389999999898,,,,170114.69999999995,170114.5,168124107,168109.19999999995,168157461,170125.52,,black,XXXXIRXX,26,f,1,0,Psychologie,0,0,0,0,0
Fixation,canvas.Screen,2_70_0_0,2022-06-24T11:37:49.623Z,,,1,A,1550.9700000000012,timeout,,,171661.5,171659813,170108843,170115.8999999999,170125.52,171676.49,,black,XXXXIRXX,26,f,1,0,Psychologie,0,0,0,0,0
Stimulus,canvas.Screen,2_70_0_1,2022-06-24T11:37:49.723Z,,,1,A,100.10500000001048,timeout,,,171761.59999999986,171759918,171659813,171661.7999999998,171676.49,171776595,,black,XXXXIRXX,26,f,1,0,Psychologie,0,0,0,0,0
Reaction,canvas.Screen,2_70_0_2,2022-06-24T11:37:49.892Z,,,1,A,152.50499999985914,response,stim_detected,mousedown,171930.69999999995,171929.09999999986,171759918,171761.7999999998,171776595,171943415,,black,XXXXIRXX,26,f,1,0,Psychologie,0,0,0,0,0
Trial,flow.Sequence,2_70_0,2022-06-24T11:37:49.893Z,,,1,A,1803.5799999998708,completion,,,171931.09999999986,171929.09999999986,170108843,170115.7999999998,170125.52,171943415,,black,XXXXIRXX,26,f,1,0,Psychologie,0,0,0,0,0
Frame,canvas.Frame,2_70,2022-06-24T11:37:49.893Z,,,1,A,1805.679999999964,,,,171931.3999999999,171931.19999999995,170108843,170114.8999999999,170125.52,171943415,,black,XXXXIRXX,26,f,1,0,Psychologie,0,0,0,0,0
Fixation,canvas.Screen,2_71_0_0,2022-06-24T11:37:51.924Z,,,0,V,2034.4659999999858,timeout,,,173962.59999999986,173961205,171926738,171932.59999999986,171943415,173977881,,grey,XXXXIRXX,26,f,1,0,Psychologie,0,0,0,0,0
Stimulus,canvas.Screen,2_71_0_1,2022-06-24T11:37:52.023Z,,,0,V,99.61000000001513,timeout,,,174061.69999999995,174060819,173961205,173962.8999999999,173977881,174077491,,grey,XXXXIRXX,26,f,1,0,Psychologie,0,0,0,0,0
Reaction,canvas.Screen,2_71_0_2,2022-06-24T11:37:52.281Z,,,0,V,240.50899999999092,response,stim_detected,mousedown,174319.59999999986,174318,174060819,174062,174077491,174328264,,grey,XXXXIRXX,26,f,1,0,Psychologie,0,0,0,0,0
Trial,flow.Sequence,2_71_0,2022-06-24T11:37:52.281Z,,,0,V,2374.584999999992,completion,,,174319.8999999999,174318,171926738,171932.5,171943415,174328264,,grey,XXXXIRXX,26,f,1,0,Psychologie,0,0,0,0,0
Frame,canvas.Frame,2_71,2022-06-24T11:37:52.282Z,,,0,V,2376.584999999992,,,,174320.19999999995,174320,171926738,171931.59999999986,171943415,174328264,,grey,XXXXIRXX,26,f,1,0,Psychologie,0,0,0,0,0
Fixation,canvas.Screen,2_72_0_0,2022-06-24T11:37:53.977Z,,,0,V,1703.091000000015,timeout,,,176015.69999999995,176014659,174311587,174321.3999999999,174328264,176031355,,grey,XXXXIRXX,26,f,1,0,Psychologie,0,0,0,0,0
Stimulus,canvas.Screen,2_72_0_1,2022-06-24T11:37:54.075Z,,,0,V,98.00899999999092,timeout,,,176113.69999999995,176112688,176014659,176016,176031355,176129364,,grey,XXXXIRXX,26,f,1,0,Psychologie,0,0,0,0,0
Reaction,canvas.Screen,2_72_0_2,2022-06-24T11:37:54.285Z,,,0,V,191.83599999995204,response,stim_detected,mousedown,176323.09999999986,176321.19999999995,176112688,176113.8999999999,176129364,176329654,,grey,XXXXIRXX,26,f,1,0,Psychologie,0,0,0,0,0
Trial,flow.Sequence,2_72_0,2022-06-24T11:37:54.285Z,,,0,V,1992.9359999999579,completion,,,176323.5,176321.19999999995,174311587,174321.2999999998,174328264,176329654,,grey,XXXXIRXX,26,f,1,0,Psychologie,0,0,0,0,0
Frame,canvas.Frame,2_72,2022-06-24T11:37:54.285Z,,,0,V,1995.4359999999579,,,,176323.8999999999,176323.69999999995,174311587,174320.5,174328264,176329654,,grey,XXXXIRXX,26,f,1,0,Psychologie,0,0,0,0,0
Fixation,canvas.Screen,2_73_0_0,2022-06-24T11:37:56.360Z,,,1,AV,2084.9159999999974,timeout,,,178398.7999999998,178397891,176312977,176325.19999999995,176329654,178414.57,,grey,XXXXIRXX,26,f,1,0,Psychologie,0,0,0,0,0
Stimulus,canvas.Screen,2_73_0_1,2022-06-24T11:37:56.460Z,,,1,AV,99.7960000000021,timeout,,,178498.7999999998,178497689,178397891,178399.09999999986,178414.57,178514366,,grey,XXXXIRXX,26,f,1,0,Psychologie,0,0,0,0,0
Reaction,canvas.Screen,2_73_0_2,2022-06-24T11:37:56.647Z,,,1,AV,169.5339999998978,response,stim_detected,mousedown,178685.3999999999,178683.8999999999,178497689,178499.09999999986,178514366,178697908,,grey,XXXXIRXX,26,f,1,0,Psychologie,0,0,0,0,0
Trial,flow.Sequence,2_73_0,2022-06-24T11:37:56.647Z,,,1,AV,2354.2459999998973,completion,,,178685.7999999998,178683.8999999999,176312977,176325,176329654,178697908,,grey,XXXXIRXX,26,f,1,0,Psychologie,0,0,0,0,0
Frame,canvas.Frame,2_73,2022-06-24T11:37:56.648Z,,,1,AV,2356.3459999999905,,,,178686.09999999986,178686,176312977,176324.09999999986,176329654,178697908,,grey,XXXXIRXX,26,f,1,0,Psychologie,0,0,0,0,0
Fixation,canvas.Screen,2_74_0_0,2022-06-24T11:37:58.812Z,,,0,V,2167.4370000000054,timeout,,,180850.09999999986,180848672,178681231,178687.19999999995,178697908,180865345,,grey,XXXXIRXX,26,f,1,0,Psychologie,0,0,0,0,0
Stimulus,canvas.Screen,2_74_0_1,2022-06-24T11:37:58.913Z,,,0,V,100.87099999998463,timeout,,,180951.09999999986,180949537,180848672,180850.3999999999,180865345,180966216,,grey,XXXXIRXX,26,f,1,0,Psychologie,0,0,0,0,0
Reaction,canvas.Screen,2_74_0_2,2022-06-24T11:37:59.133Z,,,0,V,202.68399999992107,response,stim_detected,mousedown,181170.5,181168.8999999999,180949537,180951.2999999998,180966216,181182902,,grey,XXXXIRXX,26,f,1,0,Psychologie,0,0,0,0,0
Trial,flow.Sequence,2_74_0,2022-06-24T11:37:59.133Z,,,0,V,2470.991999999911,completion,,,181171,181168.8999999999,178681231,178687.09999999986,178697908,181182902,,grey,XXXXIRXX,26,f,1,0,Psychologie,0,0,0,0,0
Frame,canvas.Frame,2_74,2022-06-24T11:37:59.133Z,,,0,V,2473.092000000004,,,,181171.19999999995,181171,178681231,178686.3999999999,178697908,181182902,,grey,XXXXIRXX,26,f,1,0,Psychologie,0,0,0,0,0
Fixation,canvas.Screen,2_75_0_0,2022-06-24T11:38:01.431Z,,,0,V,2301.570000000007,timeout,,,183469,183467794,181166225,181172.59999999986,181182902,183484472,,grey,XXXXIRXX,26,f,1,0,Psychologie,0,0,0,0,0
Stimulus,canvas.Screen,2_75_0_1,2022-06-24T11:38:01.531Z,,,0,V,100.00099999998929,timeout,,,183569,183567796,183467794,183469.2999999998,183484472,183584473,,grey,XXXXIRXX,26,f,1,0,Psychologie,0,0,0,0,0
Reaction,canvas.Screen,2_75_0_2,2022-06-24T11:38:01.719Z,,,0,V,170.3269999998156,response,stim_detected,mousedown,183756.5,183754.7999999998,183567796,183569.2999999998,183584473,183767907,,grey,XXXXIRXX,26,f,1,0,Psychologie,0,0,0,0,0
Trial,flow.Sequence,2_75_0,2022-06-24T11:38:01.719Z,,,0,V,2571.897999999812,completion,,,183756.7999999998,183754.7999999998,181166225,181172.59999999986,181182902,183767907,,grey,XXXXIRXX,26,f,1,0,Psychologie,0,0,0,0,0
Frame,canvas.Frame,2_75,2022-06-24T11:38:01.719Z,,,0,V,2574.097999999998,,,,183757.19999999995,183757,181166225,181171.5,181182902,183767907,,grey,XXXXIRXX,26,f,1,0,Psychologie,0,0,0,0,0
Fixation,canvas.Screen,2_76_0_0,2022-06-24T11:38:03.551Z,,,0,V,1836.43299999999,timeout,,,185589.19999999995,185587646,183751.23,183758.2999999998,183767907,185604.34,,grey,XXXXIRXX,26,f,1,0,Psychologie,0,0,0,0,0
Stimulus,canvas.Screen,2_76_0_1,2022-06-24T11:38:03.649Z,,,0,V,98.07500000001164,timeout,,,185687.09999999986,185685739,185587646,185589.3999999999,185604.34,185702415,,grey,XXXXIRXX,26,f,1,0,Psychologie,0,0,0,0,0
Reaction,canvas.Screen,2_76_0_2,2022-06-24T11:38:03.824Z,,,0,V,157.3849999998056,response,stim_detected,mousedown,185861.3999999999,185859.7999999998,185685739,185687.3999999999,185702415,185869337,,grey,XXXXIRXX,26,f,1,0,Psychologie,0,0,0,0,0
Trial,flow.Sequence,2_76_0,2022-06-24T11:38:03.824Z,,,0,V,2091.892999999807,completion,,,185861.7999999998,185859.7999999998,183751.23,183758.2999999998,183767907,185869337,,grey,XXXXIRXX,26,f,1,0,Psychologie,0,0,0,0,0
Frame,canvas.Frame,2_76,2022-06-24T11:38:03.824Z,,,0,V,2093.9929999999003,,,,185862.09999999986,185861.8999999999,183751.23,183757.3999999999,183767907,185869337,,grey,XXXXIRXX,26,f,1,0,Psychologie,0,0,0,0,0
Fixation,canvas.Screen,2_77_0_0,2022-06-24T11:38:06.269Z,,,0,V,2453.331999999995,timeout,,,188307.3999999999,188305.98,185852.66,185863.19999999995,185869337,188322669,,grey,XXXXIRXX,26,f,1,0,Psychologie,0,0,0,0,0
Stimulus,canvas.Screen,2_77_0_1,2022-06-24T11:38:06.367Z,,,0,V,98.44599999999627,timeout,,,188405.19999999995,188404438,188305.98,188307.5,188322669,188421115,,grey,XXXXIRXX,26,f,1,0,Psychologie,0,0,0,0,0
Reaction,canvas.Screen,2_77_0_2,2022-06-24T11:38:06.557Z,,,0,V,171.78499999991618,response,stim_detected,mousedown,188594.5,188592.8999999999,188404438,188405.5,188421115,188604528,,grey,XXXXIRXX,26,f,1,0,Psychologie,0,0,0,0,0
Trial,flow.Sequence,2_77_0,2022-06-24T11:38:06.557Z,,,0,V,2723.5629999999073,completion,,,188594.8999999999,188592.8999999999,185852.66,185863.09999999986,185869337,188604528,,grey,XXXXIRXX,26,f,1,0,Psychologie,0,0,0,0,0
Frame,canvas.Frame,2_77,2022-06-24T11:38:06.557Z,,,0,V,2725.6630000000005,,,,188595.19999999995,188595,185852.66,185862.2999999998,185869337,188604528,,grey,XXXXIRXX,26,f,1,0,Psychologie,0,0,0,0,0
Fixation,canvas.Screen,2_78_0_0,2022-06-24T11:38:08.620Z,,,1,A,2068.362000000023,timeout,,,190657.5,190656.21,188587851,188596.2999999998,188604528,190672.89,,black,XXXXIRXX,26,f,1,0,Psychologie,0,0,0,0,0
Stimulus,canvas.Screen,2_78_0_1,2022-06-24T11:38:08.720Z,,,1,A,99.6699999999837,timeout,,,190757.3999999999,190755883,190656.21,190657.59999999986,190672.89,190772.56,,black,XXXXIRXX,26,f,1,0,Psychologie,0,0,0,0,0
Reaction,canvas.Screen,2_78_0_2,2022-06-24T11:38:09.109Z,,,1,A,372.23999999981606,response,stim_detected,mousedown,191146.3999999999,191144.7999999998,190755883,190757.69999999995,190772.56,191156227,,black,XXXXIRXX,26,f,1,0,Psychologie,0,0,0,0,0
Trial,flow.Sequence,2_78_0,2022-06-24T11:38:09.109Z,,,1,A,2540.2719999998226,completion,,,191146.7999999998,191144.7999999998,188587851,188596.09999999986,188604528,191156227,,black,XXXXIRXX,26,f,1,0,Psychologie,0,0,0,0,0
Frame,canvas.Frame,2_78,2022-06-24T11:38:09.109Z,,,1,A,2542.3719999999157,,,,191147.09999999986,191146.8999999999,188587851,188595.2999999998,188604528,191156227,,black,XXXXIRXX,26,f,1,0,Psychologie,0,0,0,0,0
Fixation,canvas.Screen,2_79_0_0,2022-06-24T11:38:11.422Z,,,1,A,2318.563999999984,timeout,,,193459.69999999995,193458111,191139.55,191148.5,191156227,193474791,,black,XXXXIRXX,26,f,1,0,Psychologie,0,0,0,0,0
Stimulus,canvas.Screen,2_79_0_1,2022-06-24T11:38:11.522Z,,,1,A,99.7039999999979,timeout,,,193559.59999999986,193557818,193458111,193459.8999999999,193474791,193574495,,black,XXXXIRXX,26,f,1,0,Psychologie,0,0,0,0,0
Reaction,canvas.Screen,2_79_0_2,2022-06-24T11:38:11.684Z,,,1,A,145.50500000000466,response,stim_detected,mousedown,193722.09999999986,193720,193557818,193559.8999999999,193574495,193741305,,black,XXXXIRXX,26,f,1,0,Psychologie,0,0,0,0,0
Trial,flow.Sequence,2_79_0,2022-06-24T11:38:11.685Z,,,1,A,2563.7729999999865,completion,,,193722.5,193720,191139.55,191148.3999999999,191156227,193741305,,black,XXXXIRXX,26,f,1,0,Psychologie,0,0,0,0,0
Frame,canvas.Frame,2_79,2022-06-24T11:38:11.685Z,,,1,A,2566.372999999847,,,,193722.7999999998,193722.59999999986,191139.55,191147.5,191156227,193741305,,black,XXXXIRXX,26,f,1,0,Psychologie,0,0,0,0,0
Fixation,canvas.Screen,2_80_0_0,2022-06-24T11:38:14.007Z,,,0,V,2318.2660000000033,timeout,,,196045,196042893,193707951,193724,193741305,196059571,,grey,XXXXIRXX,26,f,1,0,Psychologie,0,0,0,0,0
Stimulus,canvas.Screen,2_80_0_1,2022-06-24T11:38:14.106Z,,,0,V,99.78599999999278,timeout,,,196144.2999999998,196142681,196042893,196045.2999999998,196059571,196159357,,grey,XXXXIRXX,26,f,1,0,Psychologie,0,0,0,0,0
Reaction,canvas.Screen,2_80_0_2,2022-06-24T11:38:14.324Z,,,0,V,200.34299999996438,response,stim_detected,mousedown,196361.3999999999,196359.69999999995,196142681,196144.59999999986,196159357,196393061,,grey,XXXXIRXX,26,f,1,0,Psychologie,0,0,0,0,0
Trial,flow.Sequence,2_80_0,2022-06-24T11:38:14.324Z,,,0,V,2618.3949999999604,completion,,,196361.7999999998,196359.69999999995,193707951,193723.8999999999,193741305,196393061,,grey,XXXXIRXX,26,f,1,0,Psychologie,0,0,0,0,0
Frame,canvas.Frame,2_80,2022-06-24T11:38:14.324Z,,,0,V,2620.695000000007,,,,196362.09999999986,196362,193707951,193723.09999999986,193741305,196393061,,grey,XXXXIRXX,26,f,1,0,Psychologie,0,0,0,0,0
Fixation,canvas.Screen,2_81_0_0,2022-06-24T11:38:16.774Z,,,1,AV,2433.881000000023,timeout,,,198811.7999999998,198810271,196376384,196363.2999999998,196393061,198826942,,grey,XXXXIRXX,26,f,1,0,Psychologie,0,0,0,0,0
Stimulus,canvas.Screen,2_81_0_1,2022-06-24T11:38:16.875Z,,,1,AV,100.94800000000396,timeout,,,198912.8999999999,198911214,198810271,198812,198826942,198927.89,,grey,XXXXIRXX,26,f,1,0,Psychologie,0,0,0,0,0
Reaction,canvas.Screen,2_81_0_2,2022-06-24T11:38:17.080Z,,,1,AV,187.90999999979977,response,stim_detected,mousedown,199117.3999999999,199115.7999999998,198911214,198913.09999999986,198927.89,199144883,,grey,XXXXIRXX,26,f,1,0,Psychologie,0,0,0,0,0
Trial,flow.Sequence,2_81_0,2022-06-24T11:38:17.080Z,,,1,AV,2722.738999999827,completion,,,199117.69999999995,199115.7999999998,196376384,196363.19999999995,196393061,199144883,,grey,XXXXIRXX,26,f,1,0,Psychologie,0,0,0,0,0
Frame,canvas.Frame,2_81,2022-06-24T11:38:17.080Z,,,1,AV,2724.83899999992,,,,199118.09999999986,199117.8999999999,196376384,196362.2999999998,196393061,199144883,,grey,XXXXIRXX,26,f,1,0,Psychologie,0,0,0,0,0
Fixation,canvas.Screen,2_82_0_0,2022-06-24T11:38:18.593Z,,,1,A,1501.7490000000107,timeout,,,200631.09999999986,200629946,199128206,199119.19999999995,199144883,200646632,,black,XXXXIRXX,26,f,1,0,Psychologie,0,0,0,0,0
Stimulus,canvas.Screen,2_82_0_1,2022-06-24T11:38:18.693Z,,,1,A,99.33599999998114,timeout,,,200730.8999999999,200729291,200629946,200631.2999999998,200646632,200745968,,black,XXXXIRXX,26,f,1,0,Psychologie,0,0,0,0,0
Reaction,canvas.Screen,2_82_0_2,2022-06-24T11:38:18.930Z,,,1,A,219.73199999995995,response,stim_detected,mousedown,200967.3999999999,200965.69999999995,200729291,200731.09999999986,200745968,200979467,,black,XXXXIRXX,26,f,1,0,Psychologie,0,0,0,0,0
Trial,flow.Sequence,2_82_0,2022-06-24T11:38:18.930Z,,,1,A,1820.8169999999518,completion,,,200967.69999999995,200965.69999999995,199128206,199119.19999999995,199144883,200979467,,black,XXXXIRXX,26,f,1,0,Psychologie,0,0,0,0,0
Frame,canvas.Frame,2_82,2022-06-24T11:38:18.930Z,,,1,A,1823.0169999999052,,,,200968,200967.8999999999,199128206,199118.2999999998,199144883,200979467,,black,XXXXIRXX,26,f,1,0,Psychologie,0,0,0,0,0
Fixation,canvas.Screen,2_83_0_0,2022-06-24T11:38:20.877Z,,,1,AV,1950.5529999999853,timeout,,,202914.8999999999,202913348,200962.79,200969.19999999995,200979467,202930.02,,grey,XXXXIRXX,26,f,1,0,Psychologie,0,0,0,0,0
Stimulus,canvas.Screen,2_83_0_1,2022-06-24T11:38:20.978Z,,,1,AV,100.87200000000303,timeout,,,203016,203014214,202913348,202915.09999999986,202930.02,203030892,,grey,XXXXIRXX,26,f,1,0,Psychologie,0,0,0,0,0
Reaction,canvas.Screen,2_83_0_2,2022-06-24T11:38:21.116Z,,,1,AV,121.70799999986775,response,stim_detected,mousedown,203154.3999999999,203152.59999999986,203014214,203016.2999999998,203030892,203164.25,,grey,XXXXIRXX,26,f,1,0,Psychologie,0,0,0,0,0
Trial,flow.Sequence,2_83_0,2022-06-24T11:38:21.117Z,,,1,AV,2173.132999999856,completion,,,203154.69999999995,203152.59999999986,200962.79,200969.09999999986,200979467,203164.25,,grey,XXXXIRXX,26,f,1,0,Psychologie,0,0,0,0,0
Frame,canvas.Frame,2_83,2022-06-24T11:38:21.117Z,,,1,AV,2175.4329999999027,,,,203155.09999999986,203154.8999999999,200962.79,200968.19999999995,200979467,203164.25,,grey,XXXXIRXX,26,f,1,0,Psychologie,0,0,0,0,0
Fixation,canvas.Screen,2_84_0_0,2022-06-24T11:38:23.412Z,,,1,A,2301.725000000006,timeout,,,205450.09999999986,205449296,203147573,203156.19999999995,203164.25,205465975,,black,XXXXIRXX,26,f,1,0,Psychologie,0,0,0,0,0
Stimulus,canvas.Screen,2_84_0_1,2022-06-24T11:38:23.512Z,,,1,A,100.02899999998044,timeout,,,205550.19999999995,205549324,205449296,205450.2999999998,205465975,205566004,,black,XXXXIRXX,26,f,1,0,Psychologie,0,0,0,0,0
Reaction,canvas.Screen,2_84_0_2,2022-06-24T11:38:23.686Z,,,1,A,155.59599999987404,response,stim_detected,mousedown,205723.5,205721.59999999986,205549324,205550.3999999999,205566004,205732651,,black,XXXXIRXX,26,f,1,0,Psychologie,0,0,0,0,0
Trial,flow.Sequence,2_84_0,2022-06-24T11:38:23.686Z,,,1,A,2557.3499999998603,completion,,,205723.8999999999,205721.59999999986,203147573,203156.19999999995,203164.25,205732651,,black,XXXXIRXX,26,f,1,0,Psychologie,0,0,0,0,0
Frame,canvas.Frame,2_84,2022-06-24T11:38:23.686Z,,,1,A,2559.75,,,,205724.19999999995,205724,203147573,203155.19999999995,203164.25,205732651,,black,XXXXIRXX,26,f,1,0,Psychologie,0,0,0,0,0
Fixation,canvas.Screen,2_85_0_0,2022-06-24T11:38:25.714Z,,,1,AV,2034.5950000000012,timeout,,,207752.3999999999,207750569,205715974,205725.3999999999,205732651,207767246,,grey,XXXXIRXX,26,f,1,0,Psychologie,0,0,0,0,0
Stimulus,canvas.Screen,2_85_0_1,2022-06-24T11:38:25.814Z,,,1,AV,100.17499999998836,timeout,,,207852.19999999995,207850744,207750569,207752.69999999995,207767246,207867421,,grey,XXXXIRXX,26,f,1,0,Psychologie,0,0,0,0,0
Reaction,canvas.Screen,2_85_0_2,2022-06-24T11:38:25.945Z,,,1,AV,113.27899999995134,response,stim_detected,mousedown,207982.3999999999,207980.69999999995,207850744,207852.5,207867421,208000847,,grey,XXXXIRXX,26,f,1,0,Psychologie,0,0,0,0,0
Trial,flow.Sequence,2_85_0,2022-06-24T11:38:25.945Z,,,1,AV,2248.048999999941,completion,,,207982.7999999998,207980.69999999995,205715974,205725.19999999995,205732651,208000847,,grey,XXXXIRXX,26,f,1,0,Psychologie,0,0,0,0,0
Frame,canvas.Frame,2_85,2022-06-24T11:38:25.945Z,,,1,AV,2250.2489999998943,,,,207983,207982.8999999999,205715974,205724.3999999999,205732651,208000847,,grey,XXXXIRXX,26,f,1,0,Psychologie,0,0,0,0,0
Fixation,canvas.Screen,2_86_0_0,2022-06-24T11:38:27.965Z,,,1,AV,2017.3910000000033,timeout,,,210002.59999999986,210001565,207967493,207984.09999999986,208000847,210018238,,grey,XXXXIRXX,26,f,1,0,Psychologie,0,0,0,0,0
Stimulus,canvas.Screen,2_86_0_1,2022-06-24T11:38:28.065Z,,,1,AV,100.00599999999395,timeout,,,210102.3999999999,210101572,210001565,210002.8999999999,210018238,210118244,,grey,XXXXIRXX,26,f,1,0,Psychologie,0,0,0,0,0
Reaction,canvas.Screen,2_86_0_2,2022-06-24T11:38:28.242Z,,,1,AV,160.35599999985425,response,stim_detected,mousedown,210280.2999999998,210278.59999999986,210101572,210102.59999999986,210118244,210285658,,grey,XXXXIRXX,26,f,1,0,Psychologie,0,0,0,0,0
Trial,flow.Sequence,2_86_0,2022-06-24T11:38:28.243Z,,,1,AV,2277.7529999998515,completion,,,210280.69999999995,210278.59999999986,207967493,207984,208000847,210285658,,grey,XXXXIRXX,26,f,1,0,Psychologie,0,0,0,0,0
Frame,canvas.Frame,2_86,2022-06-24T11:38:28.243Z,,,1,AV,2279.952999999805,,,,210281,210280.7999999998,207967493,207983.19999999995,208000847,210285658,,grey,XXXXIRXX,26,f,1,0,Psychologie,0,0,0,0,0
Fixation,canvas.Screen,2_87_0_0,2022-06-24T11:38:30.485Z,,,1,AV,2252.244000000006,timeout,,,212523.09999999986,212521219,210268981,210282,210285658,212537902,,grey,XXXXIRXX,26,f,1,0,Psychologie,0,0,0,0,0
Stimulus,canvas.Screen,2_87_0_1,2022-06-24T11:38:30.584Z,,,1,AV,99.41000000000349,timeout,,,212621.69999999995,212620634,212521219,212523.2999999998,212537902,212637312,,grey,XXXXIRXX,26,f,1,0,Psychologie,0,0,0,0,0
Reaction,canvas.Screen,2_87_0_2,2022-06-24T11:38:30.757Z,,,1,AV,156.18799999999464,response,stim_detected,mousedown,212795.19999999995,212793.5,212620634,212621.8999999999,212637312,212804042,,grey,XXXXIRXX,26,f,1,0,Psychologie,0,0,0,0,0
Trial,flow.Sequence,2_87_0,2022-06-24T11:38:30.758Z,,,1,AV,2507.842000000004,completion,,,212795.59999999986,212793.5,210268981,210282,210285658,212804042,,grey,XXXXIRXX,26,f,1,0,Psychologie,0,0,0,0,0
Frame,canvas.Frame,2_87,2022-06-24T11:38:30.758Z,,,1,AV,2510.0419999999576,,,,212795.8999999999,212795.69999999995,210268981,210281.09999999986,210285658,212804042,,grey,XXXXIRXX,26,f,1,0,Psychologie,0,0,0,0,0
Fixation,canvas.Screen,2_88_0_0,2022-06-24T11:38:33.086Z,,,1,A,2334.9370000000054,timeout,,,215123.69999999995,215122301,212787365,212797,212804042,215138979,,black,XXXXIRXX,26,f,1,0,Psychologie,0,0,0,0,0
Stimulus,canvas.Screen,2_88_0_1,2022-06-24T11:38:33.186Z,,,1,A,100.05000000001746,timeout,,,215223.59999999986,215222352,215122301,215123.8999999999,215138979,215239029,,black,XXXXIRXX,26,f,1,0,Psychologie,0,0,0,0,0
Reaction,canvas.Screen,2_88_0_2,2022-06-24T11:38:33.337Z,,,1,A,133.87099999989732,response,stim_detected,mousedown,215374.5,215372.8999999999,215222352,215224,215239029,215389093,,black,XXXXIRXX,26,f,1,0,Psychologie,0,0,0,0,0
Trial,flow.Sequence,2_88_0,2022-06-24T11:38:33.337Z,,,1,A,2568.85799999992,completion,,,215374.8999999999,215372.8999999999,212787365,212796.7999999998,212804042,215389093,,black,XXXXIRXX,26,f,1,0,Psychologie,0,0,0,0,0
Frame,canvas.Frame,2_88,2022-06-24T11:38:33.337Z,,,1,A,2570.9580000000133,,,,215375.19999999995,215375,212787365,212796.09999999986,212804042,215389093,,black,XXXXIRXX,26,f,1,0,Psychologie,0,0,0,0,0
Fixation,canvas.Screen,2_89_0_0,2022-06-24T11:38:35.805Z,,,1,AV,2468.978999999992,timeout,,,217842.8999999999,217841.39,215372416,215376.3999999999,215389093,217858072,,grey,XXXXIRXX,26,f,1,0,Psychologie,0,0,0,0,0
Stimulus,canvas.Screen,2_89_0_1,2022-06-24T11:38:35.905Z,,,1,AV,99.31300000002375,timeout,,,217942.59999999986,217940708,217841.39,217843.19999999995,217858072,217957385,,grey,XXXXIRXX,26,f,1,0,Psychologie,0,0,0,0,0
Reaction,canvas.Screen,2_89_0_2,2022-06-24T11:38:36.096Z,,,1,AV,174.214999999851,response,stim_detected,mousedown,218133.3999999999,218131.59999999986,217940708,217942.8999999999,217957385,218140948,,grey,XXXXIRXX,26,f,1,0,Psychologie,0,0,0,0,0
Trial,flow.Sequence,2_89_0,2022-06-24T11:38:36.096Z,,,1,AV,2742.506999999867,completion,,,218133.7999999998,218131.59999999986,215372416,215376.2999999998,215389093,218140948,,grey,XXXXIRXX,26,f,1,0,Psychologie,0,0,0,0,0
Frame,canvas.Frame,2_89,2022-06-24T11:38:36.096Z,,,1,AV,2744.8069999999134,,,,218134.09999999986,218133.8999999999,215372416,215375.3999999999,215389093,218140948,,grey,XXXXIRXX,26,f,1,0,Psychologie,0,0,0,0,0
Fixation,canvas.Screen,2_90_0_0,2022-06-24T11:38:38.039Z,,,1,A,1951.2099999999919,timeout,,,220076.7999999998,220075481,218124271,218135.19999999995,218140948,220092158,,black,XXXXIRXX,26,f,1,0,Psychologie,0,0,0,0,0
Stimulus,canvas.Screen,2_90_0_1,2022-06-24T11:38:38.139Z,,,1,A,99.78500000000349,timeout,,,220176.7999999998,220175269,220075481,220077.09999999986,220092158,220191943,,black,XXXXIRXX,26,f,1,0,Psychologie,0,0,0,0,0
Reaction,canvas.Screen,2_90_0_2,2022-06-24T11:38:38.307Z,,,1,A,151.656999999861,response,stim_detected,mousedown,220345.19999999995,220343.59999999986,220175269,220177.09999999986,220191943,220709305,,black,XXXXIRXX,26,f,1,0,Psychologie,0,0,0,0,0
Trial,flow.Sequence,2_90_0,2022-06-24T11:38:38.308Z,,,1,A,2202.6519999998563,completion,,,220345.59999999986,220343.59999999986,218124271,218135.19999999995,218140948,220709305,,black,XXXXIRXX,26,f,1,0,Psychologie,0,0,0,0,0
Frame,canvas.Frame,2_90,2022-06-24T11:38:38.308Z,,,1,A,2204.7519999999495,,,,220345.8999999999,220345.69999999995,218124271,218134.2999999998,218140948,220709305,,black,XXXXIRXX,26,f,1,0,Psychologie,0,0,0,0,0
Loop,flow.Loop,2,2022-06-24T11:38:38.308Z,,,,,212511.00299999997,completion,,,220346.2999999998,220345.69999999995,7818011,7820.5,7834697,220709305,,,XXXXIRXX,26,f,1,0,Psychologie,0,0,0,0,0
end,html.Page,3,2022-06-24T11:38:41.949Z,,,,,3277.195000000007,form submission,,,223987.19999999995,223986.5,220692628,220346.5,220709305,224127.39,,,XXXXIRXX,26,f,1,0,Psychologie,0,0,0,0,0
root,flow.Sequence,,2022-06-24T11:38:42.019Z,,,,,222590495,completion,,,224056.3999999999,223986.5,1379329,1385.5999999998603,1396005,224127.39,,,XXXXIRXX,26,f,1,0,Psychologie,0,0,0,0,0
